"rt","url","trial_type","trial_index","time_elapsed","internal_node_id","assignmentID","mturkID","hitID","view_history","stimulus","key_press","state","test_part","correct_response","correct","order_block","order_chunk","bonus","responses"
"3488.2000000476837","consent.html","external-html","0","3628","0.0-0.0","33FBRBDW6PLDQ8HU5ZAHD8XSL5HC8O","A11TREGDHSUSJW","3DFYDSXB2WMWAZWJRSN67LWQ0PPJUT","","","","","","","","","","",""
"114033","","instructions","1","117662","0.0-1.0","33FBRBDW6PLDQ8HU5ZAHD8XSL5HC8O","A11TREGDHSUSJW","3DFYDSXB2WMWAZWJRSN67LWQ0PPJUT","[{""page_index"":0,""viewing_time"":5300.599999904633},{""page_index"":1,""viewing_time"":4188.900000095367},{""page_index"":2,""viewing_time"":6351.900000095367},{""page_index"":3,""viewing_time"":9262.5},{""page_index"":4,""viewing_time"":2647},{""page_index"":5,""viewing_time"":35112},{""page_index"":6,""viewing_time"":4255.599999904633},{""page_index"":7,""viewing_time"":46913.799999952316}]","","","","","","","","","",""
"2016","","image-keyboard-response","2","119680","0.0-2.0-0.0","33FBRBDW6PLDQ8HU5ZAHD8XSL5HC8O","A11TREGDHSUSJW","3DFYDSXB2WMWAZWJRSN67LWQ0PPJUT","","img/practice/S2.jpg","83","2","practice","68","false","","","",""
"null","","html-keyboard-response","3","119982","0.0-2.0-1.0","33FBRBDW6PLDQ8HU5ZAHD8XSL5HC8O","A11TREGDHSUSJW","3DFYDSXB2WMWAZWJRSN67LWQ0PPJUT","","<img src=""img/practice/S2.jpg"" width=""540"" height = ""360"">","null","","","","","","","",""
"null","","html-keyboard-response","4","119984","0.0-2.0-2.0","33FBRBDW6PLDQ8HU5ZAHD8XSL5HC8O","A11TREGDHSUSJW","3DFYDSXB2WMWAZWJRSN67LWQ0PPJUT","","","null","","","","","","","",""
"789.3999998569489","","image-keyboard-response","5","120774","0.0-2.0-0.1","33FBRBDW6PLDQ8HU5ZAHD8XSL5HC8O","A11TREGDHSUSJW","3DFYDSXB2WMWAZWJRSN67LWQ0PPJUT","","img/practice/S4.jpg","68","4","practice","74","false","","","",""
"null","","html-keyboard-response","6","121076","0.0-2.0-1.1","33FBRBDW6PLDQ8HU5ZAHD8XSL5HC8O","A11TREGDHSUSJW","3DFYDSXB2WMWAZWJRSN67LWQ0PPJUT","","<img src=""img/practice/S4.jpg"" width=""540"" height = ""360"">","null","","","","","","","",""
"null","","html-keyboard-response","7","121078","0.0-2.0-2.1","33FBRBDW6PLDQ8HU5ZAHD8XSL5HC8O","A11TREGDHSUSJW","3DFYDSXB2WMWAZWJRSN67LWQ0PPJUT","","","null","","","","","","","",""
"1247.7000000476837","","image-keyboard-response","8","122327","0.0-2.0-0.2","33FBRBDW6PLDQ8HU5ZAHD8XSL5HC8O","A11TREGDHSUSJW","3DFYDSXB2WMWAZWJRSN67LWQ0PPJUT","","img/practice/S1.jpg","72","1","practice","83","false","","","",""
"null","","html-keyboard-response","9","122629","0.0-2.0-1.2","33FBRBDW6PLDQ8HU5ZAHD8XSL5HC8O","A11TREGDHSUSJW","3DFYDSXB2WMWAZWJRSN67LWQ0PPJUT","","<img src=""img/practice/S1.jpg"" width=""540"" height = ""360"">","null","","","","","","","",""
"null","","html-keyboard-response","10","122631","0.0-2.0-2.2","33FBRBDW6PLDQ8HU5ZAHD8XSL5HC8O","A11TREGDHSUSJW","3DFYDSXB2WMWAZWJRSN67LWQ0PPJUT","","","null","","","","","","","",""
"718.7999999523163","","image-keyboard-response","11","123350","0.0-2.0-0.3","33FBRBDW6PLDQ8HU5ZAHD8XSL5HC8O","A11TREGDHSUSJW","3DFYDSXB2WMWAZWJRSN67LWQ0PPJUT","","img/practice/S3.jpg","74","3","practice","72","false","","","",""
"null","","html-keyboard-response","12","123652","0.0-2.0-1.3","33FBRBDW6PLDQ8HU5ZAHD8XSL5HC8O","A11TREGDHSUSJW","3DFYDSXB2WMWAZWJRSN67LWQ0PPJUT","","<img src=""img/practice/S3.jpg"" width=""540"" height = ""360"">","null","","","","","","","",""
"null","","html-keyboard-response","13","123654","0.0-2.0-2.3","33FBRBDW6PLDQ8HU5ZAHD8XSL5HC8O","A11TREGDHSUSJW","3DFYDSXB2WMWAZWJRSN67LWQ0PPJUT","","","null","","","","","","","",""
"1016.2999999523163","","image-keyboard-response","14","124671","0.0-2.0-0.4","33FBRBDW6PLDQ8HU5ZAHD8XSL5HC8O","A11TREGDHSUSJW","3DFYDSXB2WMWAZWJRSN67LWQ0PPJUT","","img/practice/S2.jpg","83","2","practice","68","false","","","",""
"null","","html-keyboard-response","15","124973","0.0-2.0-1.4","33FBRBDW6PLDQ8HU5ZAHD8XSL5HC8O","A11TREGDHSUSJW","3DFYDSXB2WMWAZWJRSN67LWQ0PPJUT","","<img src=""img/practice/S2.jpg"" width=""540"" height = ""360"">","null","","","","","","","",""
"null","","html-keyboard-response","16","124975","0.0-2.0-2.4","33FBRBDW6PLDQ8HU5ZAHD8XSL5HC8O","A11TREGDHSUSJW","3DFYDSXB2WMWAZWJRSN67LWQ0PPJUT","","","null","","","","","","","",""
"439.2000000476837","","image-keyboard-response","17","125415","0.0-2.0-0.5","33FBRBDW6PLDQ8HU5ZAHD8XSL5HC8O","A11TREGDHSUSJW","3DFYDSXB2WMWAZWJRSN67LWQ0PPJUT","","img/practice/S1.jpg","68","1","practice","83","false","","","",""
"null","","html-keyboard-response","18","125717","0.0-2.0-1.5","33FBRBDW6PLDQ8HU5ZAHD8XSL5HC8O","A11TREGDHSUSJW","3DFYDSXB2WMWAZWJRSN67LWQ0PPJUT","","<img src=""img/practice/S1.jpg"" width=""540"" height = ""360"">","null","","","","","","","",""
"null","","html-keyboard-response","19","125719","0.0-2.0-2.5","33FBRBDW6PLDQ8HU5ZAHD8XSL5HC8O","A11TREGDHSUSJW","3DFYDSXB2WMWAZWJRSN67LWQ0PPJUT","","","null","","","","","","","",""
"271","","image-keyboard-response","20","125990","0.0-2.0-0.6","33FBRBDW6PLDQ8HU5ZAHD8XSL5HC8O","A11TREGDHSUSJW","3DFYDSXB2WMWAZWJRSN67LWQ0PPJUT","","img/practice/S4.jpg","72","4","practice","74","false","","","",""
"null","","html-keyboard-response","21","126292","0.0-2.0-1.6","33FBRBDW6PLDQ8HU5ZAHD8XSL5HC8O","A11TREGDHSUSJW","3DFYDSXB2WMWAZWJRSN67LWQ0PPJUT","","<img src=""img/practice/S4.jpg"" width=""540"" height = ""360"">","null","","","","","","","",""
"null","","html-keyboard-response","22","126294","0.0-2.0-2.6","33FBRBDW6PLDQ8HU5ZAHD8XSL5HC8O","A11TREGDHSUSJW","3DFYDSXB2WMWAZWJRSN67LWQ0PPJUT","","","null","","","","","","","",""
"311.2000000476837","","image-keyboard-response","23","126606","0.0-2.0-0.7","33FBRBDW6PLDQ8HU5ZAHD8XSL5HC8O","A11TREGDHSUSJW","3DFYDSXB2WMWAZWJRSN67LWQ0PPJUT","","img/practice/S3.jpg","74","3","practice","72","false","","","",""
"null","","html-keyboard-response","24","126908","0.0-2.0-1.7","33FBRBDW6PLDQ8HU5ZAHD8XSL5HC8O","A11TREGDHSUSJW","3DFYDSXB2WMWAZWJRSN67LWQ0PPJUT","","<img src=""img/practice/S3.jpg"" width=""540"" height = ""360"">","null","","","","","","","",""
"null","","html-keyboard-response","25","126910","0.0-2.0-2.7","33FBRBDW6PLDQ8HU5ZAHD8XSL5HC8O","A11TREGDHSUSJW","3DFYDSXB2WMWAZWJRSN67LWQ0PPJUT","","","null","","","","","","","",""
"631.6000001430511","","image-keyboard-response","26","127542","0.0-2.0-0.8","33FBRBDW6PLDQ8HU5ZAHD8XSL5HC8O","A11TREGDHSUSJW","3DFYDSXB2WMWAZWJRSN67LWQ0PPJUT","","img/practice/S1.jpg","83","1","practice","83","true","","","",""
"null","","html-keyboard-response","27","127844","0.0-2.0-1.8","33FBRBDW6PLDQ8HU5ZAHD8XSL5HC8O","A11TREGDHSUSJW","3DFYDSXB2WMWAZWJRSN67LWQ0PPJUT","","<img src=""img/practice/S1.jpg"" width=""540"" height = ""360"" style=""border:16px solid orange"">","null","","","","","","","",""
"null","","html-keyboard-response","28","127846","0.0-2.0-2.8","33FBRBDW6PLDQ8HU5ZAHD8XSL5HC8O","A11TREGDHSUSJW","3DFYDSXB2WMWAZWJRSN67LWQ0PPJUT","","","null","","","","","","","",""
"623.9000000953674","","image-keyboard-response","29","128470","0.0-2.0-0.9","33FBRBDW6PLDQ8HU5ZAHD8XSL5HC8O","A11TREGDHSUSJW","3DFYDSXB2WMWAZWJRSN67LWQ0PPJUT","","img/practice/S4.jpg","68","4","practice","74","false","","","",""
"null","","html-keyboard-response","30","128771","0.0-2.0-1.9","33FBRBDW6PLDQ8HU5ZAHD8XSL5HC8O","A11TREGDHSUSJW","3DFYDSXB2WMWAZWJRSN67LWQ0PPJUT","","<img src=""img/practice/S4.jpg"" width=""540"" height = ""360"">","null","","","","","","","",""
"null","","html-keyboard-response","31","128773","0.0-2.0-2.9","33FBRBDW6PLDQ8HU5ZAHD8XSL5HC8O","A11TREGDHSUSJW","3DFYDSXB2WMWAZWJRSN67LWQ0PPJUT","","","null","","","","","","","",""
"825.1000001430511","","image-keyboard-response","32","129599","0.0-2.0-0.10","33FBRBDW6PLDQ8HU5ZAHD8XSL5HC8O","A11TREGDHSUSJW","3DFYDSXB2WMWAZWJRSN67LWQ0PPJUT","","img/practice/S3.jpg","72","3","practice","72","true","","","",""
"null","","html-keyboard-response","33","129901","0.0-2.0-1.10","33FBRBDW6PLDQ8HU5ZAHD8XSL5HC8O","A11TREGDHSUSJW","3DFYDSXB2WMWAZWJRSN67LWQ0PPJUT","","<img src=""img/practice/S3.jpg"" width=""540"" height = ""360"" style=""border:16px solid orange"">","null","","","","","","","",""
"null","","html-keyboard-response","34","129904","0.0-2.0-2.10","33FBRBDW6PLDQ8HU5ZAHD8XSL5HC8O","A11TREGDHSUSJW","3DFYDSXB2WMWAZWJRSN67LWQ0PPJUT","","","null","","","","","","","",""
"885.9000000953674","","image-keyboard-response","35","130790","0.0-2.0-0.11","33FBRBDW6PLDQ8HU5ZAHD8XSL5HC8O","A11TREGDHSUSJW","3DFYDSXB2WMWAZWJRSN67LWQ0PPJUT","","img/practice/S2.jpg","74","2","practice","68","false","","","",""
"null","","html-keyboard-response","36","131092","0.0-2.0-1.11","33FBRBDW6PLDQ8HU5ZAHD8XSL5HC8O","A11TREGDHSUSJW","3DFYDSXB2WMWAZWJRSN67LWQ0PPJUT","","<img src=""img/practice/S2.jpg"" width=""540"" height = ""360"">","null","","","","","","","",""
"null","","html-keyboard-response","37","131094","0.0-2.0-2.11","33FBRBDW6PLDQ8HU5ZAHD8XSL5HC8O","A11TREGDHSUSJW","3DFYDSXB2WMWAZWJRSN67LWQ0PPJUT","","","null","","","","","","","",""
"728.6999998092651","","image-keyboard-response","38","131823","0.0-2.0-0.12","33FBRBDW6PLDQ8HU5ZAHD8XSL5HC8O","A11TREGDHSUSJW","3DFYDSXB2WMWAZWJRSN67LWQ0PPJUT","","img/practice/S1.jpg","83","1","practice","83","true","","","",""
"null","","html-keyboard-response","39","132125","0.0-2.0-1.12","33FBRBDW6PLDQ8HU5ZAHD8XSL5HC8O","A11TREGDHSUSJW","3DFYDSXB2WMWAZWJRSN67LWQ0PPJUT","","<img src=""img/practice/S1.jpg"" width=""540"" height = ""360"" style=""border:16px solid orange"">","null","","","","","","","",""
"null","","html-keyboard-response","40","132128","0.0-2.0-2.12","33FBRBDW6PLDQ8HU5ZAHD8XSL5HC8O","A11TREGDHSUSJW","3DFYDSXB2WMWAZWJRSN67LWQ0PPJUT","","","null","","","","","","","",""
"598.0999999046326","","image-keyboard-response","41","132726","0.0-2.0-0.13","33FBRBDW6PLDQ8HU5ZAHD8XSL5HC8O","A11TREGDHSUSJW","3DFYDSXB2WMWAZWJRSN67LWQ0PPJUT","","img/practice/S2.jpg","68","2","practice","68","true","","","",""
"null","","html-keyboard-response","42","133028","0.0-2.0-1.13","33FBRBDW6PLDQ8HU5ZAHD8XSL5HC8O","A11TREGDHSUSJW","3DFYDSXB2WMWAZWJRSN67LWQ0PPJUT","","<img src=""img/practice/S2.jpg"" width=""540"" height = ""360"" style=""border:16px solid orange"">","null","","","","","","","",""
"null","","html-keyboard-response","43","133030","0.0-2.0-2.13","33FBRBDW6PLDQ8HU5ZAHD8XSL5HC8O","A11TREGDHSUSJW","3DFYDSXB2WMWAZWJRSN67LWQ0PPJUT","","","null","","","","","","","",""
"728.7999999523163","","image-keyboard-response","44","133759","0.0-2.0-0.14","33FBRBDW6PLDQ8HU5ZAHD8XSL5HC8O","A11TREGDHSUSJW","3DFYDSXB2WMWAZWJRSN67LWQ0PPJUT","","img/practice/S4.jpg","72","4","practice","74","false","","","",""
"null","","html-keyboard-response","45","134060","0.0-2.0-1.14","33FBRBDW6PLDQ8HU5ZAHD8XSL5HC8O","A11TREGDHSUSJW","3DFYDSXB2WMWAZWJRSN67LWQ0PPJUT","","<img src=""img/practice/S4.jpg"" width=""540"" height = ""360"">","null","","","","","","","",""
"null","","html-keyboard-response","46","134063","0.0-2.0-2.14","33FBRBDW6PLDQ8HU5ZAHD8XSL5HC8O","A11TREGDHSUSJW","3DFYDSXB2WMWAZWJRSN67LWQ0PPJUT","","","null","","","","","","","",""
"79.10000014305115","","image-keyboard-response","47","134143","0.0-2.0-0.15","33FBRBDW6PLDQ8HU5ZAHD8XSL5HC8O","A11TREGDHSUSJW","3DFYDSXB2WMWAZWJRSN67LWQ0PPJUT","","img/practice/S3.jpg","74","3","practice","72","false","","","",""
"null","","html-keyboard-response","48","134444","0.0-2.0-1.15","33FBRBDW6PLDQ8HU5ZAHD8XSL5HC8O","A11TREGDHSUSJW","3DFYDSXB2WMWAZWJRSN67LWQ0PPJUT","","<img src=""img/practice/S3.jpg"" width=""540"" height = ""360"">","null","","","","","","","",""
"null","","html-keyboard-response","49","134446","0.0-2.0-2.15","33FBRBDW6PLDQ8HU5ZAHD8XSL5HC8O","A11TREGDHSUSJW","3DFYDSXB2WMWAZWJRSN67LWQ0PPJUT","","","null","","","","","","","",""
"407.10000014305115","","image-keyboard-response","50","134854","0.0-2.0-0.16","33FBRBDW6PLDQ8HU5ZAHD8XSL5HC8O","A11TREGDHSUSJW","3DFYDSXB2WMWAZWJRSN67LWQ0PPJUT","","img/practice/S3.jpg","74","3","practice","72","false","","","",""
"null","","html-keyboard-response","51","135156","0.0-2.0-1.16","33FBRBDW6PLDQ8HU5ZAHD8XSL5HC8O","A11TREGDHSUSJW","3DFYDSXB2WMWAZWJRSN67LWQ0PPJUT","","<img src=""img/practice/S3.jpg"" width=""540"" height = ""360"">","null","","","","","","","",""
"null","","html-keyboard-response","52","135157","0.0-2.0-2.16","33FBRBDW6PLDQ8HU5ZAHD8XSL5HC8O","A11TREGDHSUSJW","3DFYDSXB2WMWAZWJRSN67LWQ0PPJUT","","","null","","","","","","","",""
"624.5999999046326","","image-keyboard-response","53","135783","0.0-2.0-0.17","33FBRBDW6PLDQ8HU5ZAHD8XSL5HC8O","A11TREGDHSUSJW","3DFYDSXB2WMWAZWJRSN67LWQ0PPJUT","","img/practice/S1.jpg","68","1","practice","83","false","","","",""
"null","","html-keyboard-response","54","136084","0.0-2.0-1.17","33FBRBDW6PLDQ8HU5ZAHD8XSL5HC8O","A11TREGDHSUSJW","3DFYDSXB2WMWAZWJRSN67LWQ0PPJUT","","<img src=""img/practice/S1.jpg"" width=""540"" height = ""360"">","null","","","","","","","",""
"null","","html-keyboard-response","55","136086","0.0-2.0-2.17","33FBRBDW6PLDQ8HU5ZAHD8XSL5HC8O","A11TREGDHSUSJW","3DFYDSXB2WMWAZWJRSN67LWQ0PPJUT","","","null","","","","","","","",""
"87.5","","image-keyboard-response","56","136174","0.0-2.0-0.18","33FBRBDW6PLDQ8HU5ZAHD8XSL5HC8O","A11TREGDHSUSJW","3DFYDSXB2WMWAZWJRSN67LWQ0PPJUT","","img/practice/S4.jpg","83","4","practice","74","false","","","",""
"null","","html-keyboard-response","57","136476","0.0-2.0-1.18","33FBRBDW6PLDQ8HU5ZAHD8XSL5HC8O","A11TREGDHSUSJW","3DFYDSXB2WMWAZWJRSN67LWQ0PPJUT","","<img src=""img/practice/S4.jpg"" width=""540"" height = ""360"">","null","","","","","","","",""
"null","","html-keyboard-response","58","136478","0.0-2.0-2.18","33FBRBDW6PLDQ8HU5ZAHD8XSL5HC8O","A11TREGDHSUSJW","3DFYDSXB2WMWAZWJRSN67LWQ0PPJUT","","","null","","","","","","","",""
"464","","image-keyboard-response","59","136942","0.0-2.0-0.19","33FBRBDW6PLDQ8HU5ZAHD8XSL5HC8O","A11TREGDHSUSJW","3DFYDSXB2WMWAZWJRSN67LWQ0PPJUT","","img/practice/S2.jpg","72","2","practice","68","false","","","",""
"null","","html-keyboard-response","60","137245","0.0-2.0-1.19","33FBRBDW6PLDQ8HU5ZAHD8XSL5HC8O","A11TREGDHSUSJW","3DFYDSXB2WMWAZWJRSN67LWQ0PPJUT","","<img src=""img/practice/S2.jpg"" width=""540"" height = ""360"">","null","","","","","","","",""
"null","","html-keyboard-response","61","137246","0.0-2.0-2.19","33FBRBDW6PLDQ8HU5ZAHD8XSL5HC8O","A11TREGDHSUSJW","3DFYDSXB2WMWAZWJRSN67LWQ0PPJUT","","","null","","","","","","","",""
"471.7000000476837","","image-keyboard-response","62","137719","0.0-2.0-0.20","33FBRBDW6PLDQ8HU5ZAHD8XSL5HC8O","A11TREGDHSUSJW","3DFYDSXB2WMWAZWJRSN67LWQ0PPJUT","","img/practice/S4.jpg","74","4","practice","74","true","","","",""
"null","","html-keyboard-response","63","138020","0.0-2.0-1.20","33FBRBDW6PLDQ8HU5ZAHD8XSL5HC8O","A11TREGDHSUSJW","3DFYDSXB2WMWAZWJRSN67LWQ0PPJUT","","<img src=""img/practice/S4.jpg"" width=""540"" height = ""360"" style=""border:16px solid orange"">","null","","","","","","","",""
"null","","html-keyboard-response","64","138021","0.0-2.0-2.20","33FBRBDW6PLDQ8HU5ZAHD8XSL5HC8O","A11TREGDHSUSJW","3DFYDSXB2WMWAZWJRSN67LWQ0PPJUT","","","null","","","","","","","",""
"1016.3999998569489","","image-keyboard-response","65","139038","0.0-2.0-0.21","33FBRBDW6PLDQ8HU5ZAHD8XSL5HC8O","A11TREGDHSUSJW","3DFYDSXB2WMWAZWJRSN67LWQ0PPJUT","","img/practice/S2.jpg","72","2","practice","68","false","","","",""
"null","","html-keyboard-response","66","139340","0.0-2.0-1.21","33FBRBDW6PLDQ8HU5ZAHD8XSL5HC8O","A11TREGDHSUSJW","3DFYDSXB2WMWAZWJRSN67LWQ0PPJUT","","<img src=""img/practice/S2.jpg"" width=""540"" height = ""360"">","null","","","","","","","",""
"null","","html-keyboard-response","67","139342","0.0-2.0-2.21","33FBRBDW6PLDQ8HU5ZAHD8XSL5HC8O","A11TREGDHSUSJW","3DFYDSXB2WMWAZWJRSN67LWQ0PPJUT","","","null","","","","","","","",""
"600.2999999523163","","image-keyboard-response","68","139943","0.0-2.0-0.22","33FBRBDW6PLDQ8HU5ZAHD8XSL5HC8O","A11TREGDHSUSJW","3DFYDSXB2WMWAZWJRSN67LWQ0PPJUT","","img/practice/S1.jpg","68","1","practice","83","false","","","",""
"null","","html-keyboard-response","69","140244","0.0-2.0-1.22","33FBRBDW6PLDQ8HU5ZAHD8XSL5HC8O","A11TREGDHSUSJW","3DFYDSXB2WMWAZWJRSN67LWQ0PPJUT","","<img src=""img/practice/S1.jpg"" width=""540"" height = ""360"">","null","","","","","","","",""
"null","","html-keyboard-response","70","140248","0.0-2.0-2.22","33FBRBDW6PLDQ8HU5ZAHD8XSL5HC8O","A11TREGDHSUSJW","3DFYDSXB2WMWAZWJRSN67LWQ0PPJUT","","","null","","","","","","","",""
"877.7999999523163","","image-keyboard-response","71","141127","0.0-2.0-0.23","33FBRBDW6PLDQ8HU5ZAHD8XSL5HC8O","A11TREGDHSUSJW","3DFYDSXB2WMWAZWJRSN67LWQ0PPJUT","","img/practice/S3.jpg","74","3","practice","72","false","","","",""
"null","","html-keyboard-response","72","141428","0.0-2.0-1.23","33FBRBDW6PLDQ8HU5ZAHD8XSL5HC8O","A11TREGDHSUSJW","3DFYDSXB2WMWAZWJRSN67LWQ0PPJUT","","<img src=""img/practice/S3.jpg"" width=""540"" height = ""360"">","null","","","","","","","",""
"null","","html-keyboard-response","73","141431","0.0-2.0-2.23","33FBRBDW6PLDQ8HU5ZAHD8XSL5HC8O","A11TREGDHSUSJW","3DFYDSXB2WMWAZWJRSN67LWQ0PPJUT","","","null","","","","","","","",""
"2266.5","","instructions","74","143697","0.0-3.0","33FBRBDW6PLDQ8HU5ZAHD8XSL5HC8O","A11TREGDHSUSJW","3DFYDSXB2WMWAZWJRSN67LWQ0PPJUT","[{""page_index"":0,""viewing_time"":2266.2000000476837}]","","","","","","","","","",""
"5761.599999904633","","instructions","75","149459","0.0-4.0","33FBRBDW6PLDQ8HU5ZAHD8XSL5HC8O","A11TREGDHSUSJW","3DFYDSXB2WMWAZWJRSN67LWQ0PPJUT","[{""page_index"":0,""viewing_time"":5761.400000095367}]","","","","","","","","","",""
"8677.599999904633","","instructions","76","158137","0.0-5.0","33FBRBDW6PLDQ8HU5ZAHD8XSL5HC8O","A11TREGDHSUSJW","3DFYDSXB2WMWAZWJRSN67LWQ0PPJUT","[{""page_index"":0,""viewing_time"":6268.299999952316},{""page_index"":1,""viewing_time"":2409}]","","","","","","","","","",""
"700.5","","image-keyboard-response","77","158839","0.0-6.0","33FBRBDW6PLDQ8HU5ZAHD8XSL5HC8O","A11TREGDHSUSJW","3DFYDSXB2WMWAZWJRSN67LWQ0PPJUT","","img/set1/S2.jpg","83","2","structured_incentive","68","false","structured_incentive,structured_normal,random","2,3,1,2","",""
"null","","html-keyboard-response","78","159190","0.0-7.0","33FBRBDW6PLDQ8HU5ZAHD8XSL5HC8O","A11TREGDHSUSJW","3DFYDSXB2WMWAZWJRSN67LWQ0PPJUT","","<img src=""img/set1/S2.jpg"" width=""540"" height = ""360"">","null","","","","","","","",""
"null","","html-keyboard-response","79","159193","0.0-8.0","33FBRBDW6PLDQ8HU5ZAHD8XSL5HC8O","A11TREGDHSUSJW","3DFYDSXB2WMWAZWJRSN67LWQ0PPJUT","","","null","","","","","","","",""
"644.7999999523163","","image-keyboard-response","80","159838","0.0-9.0","33FBRBDW6PLDQ8HU5ZAHD8XSL5HC8O","A11TREGDHSUSJW","3DFYDSXB2WMWAZWJRSN67LWQ0PPJUT","","img/set1/S3.jpg","83","3","structured_incentive","72","false","structured_incentive,structured_normal,random","2,3,1,2","",""
"null","","html-keyboard-response","81","160190","0.0-10.0","33FBRBDW6PLDQ8HU5ZAHD8XSL5HC8O","A11TREGDHSUSJW","3DFYDSXB2WMWAZWJRSN67LWQ0PPJUT","","<img src=""img/set1/S3.jpg"" width=""540"" height = ""360"">","null","","","","","","","",""
"null","","html-keyboard-response","82","160193","0.0-11.0","33FBRBDW6PLDQ8HU5ZAHD8XSL5HC8O","A11TREGDHSUSJW","3DFYDSXB2WMWAZWJRSN67LWQ0PPJUT","","","null","","","","","","","",""
"645.5999999046326","","image-keyboard-response","83","160839","0.0-12.0","33FBRBDW6PLDQ8HU5ZAHD8XSL5HC8O","A11TREGDHSUSJW","3DFYDSXB2WMWAZWJRSN67LWQ0PPJUT","","img/set1/S1.jpg","83","1","structured_incentive","83","true","structured_incentive,structured_normal,random","2,3,1,2","",""
"null","","html-keyboard-response","84","161192","0.0-13.0","33FBRBDW6PLDQ8HU5ZAHD8XSL5HC8O","A11TREGDHSUSJW","3DFYDSXB2WMWAZWJRSN67LWQ0PPJUT","","<img src=""img/set1/S1.jpg"" width=""540"" height = ""360"" style=""border:16px solid orange"">","null","","","","","","","",""
"null","","html-keyboard-response","85","161194","0.0-14.0","33FBRBDW6PLDQ8HU5ZAHD8XSL5HC8O","A11TREGDHSUSJW","3DFYDSXB2WMWAZWJRSN67LWQ0PPJUT","","","null","","","","","","","",""
"675.5","","image-keyboard-response","86","161871","0.0-15.0","33FBRBDW6PLDQ8HU5ZAHD8XSL5HC8O","A11TREGDHSUSJW","3DFYDSXB2WMWAZWJRSN67LWQ0PPJUT","","img/set1/S1.jpg","83","1","structured_incentive","83","true","structured_incentive,structured_normal,random","2,3,1,2","",""
"null","","html-keyboard-response","87","162222","0.0-16.0","33FBRBDW6PLDQ8HU5ZAHD8XSL5HC8O","A11TREGDHSUSJW","3DFYDSXB2WMWAZWJRSN67LWQ0PPJUT","","<img src=""img/set1/S1.jpg"" width=""540"" height = ""360"" style=""border:16px solid orange"">","null","","","","","","","",""
"null","","html-keyboard-response","88","162224","0.0-17.0","33FBRBDW6PLDQ8HU5ZAHD8XSL5HC8O","A11TREGDHSUSJW","3DFYDSXB2WMWAZWJRSN67LWQ0PPJUT","","","null","","","","","","","",""
"614","","image-keyboard-response","89","162838","0.0-18.0","33FBRBDW6PLDQ8HU5ZAHD8XSL5HC8O","A11TREGDHSUSJW","3DFYDSXB2WMWAZWJRSN67LWQ0PPJUT","","img/set1/S2.jpg","68","2","structured_incentive","68","true","structured_incentive,structured_normal,random","2,3,1,2","",""
"null","","html-keyboard-response","90","163189","0.0-19.0","33FBRBDW6PLDQ8HU5ZAHD8XSL5HC8O","A11TREGDHSUSJW","3DFYDSXB2WMWAZWJRSN67LWQ0PPJUT","","<img src=""img/set1/S2.jpg"" width=""540"" height = ""360"" style=""border:16px solid orange"">","null","","","","","","","",""
"null","","html-keyboard-response","91","163191","0.0-20.0","33FBRBDW6PLDQ8HU5ZAHD8XSL5HC8O","A11TREGDHSUSJW","3DFYDSXB2WMWAZWJRSN67LWQ0PPJUT","","","null","","","","","","","",""
"767.0999999046326","","image-keyboard-response","92","163959","0.0-21.0","33FBRBDW6PLDQ8HU5ZAHD8XSL5HC8O","A11TREGDHSUSJW","3DFYDSXB2WMWAZWJRSN67LWQ0PPJUT","","img/set1/S3.jpg","74","3","structured_incentive","72","false","structured_incentive,structured_normal,random","2,3,1,2","",""
"null","","html-keyboard-response","93","164311","0.0-22.0","33FBRBDW6PLDQ8HU5ZAHD8XSL5HC8O","A11TREGDHSUSJW","3DFYDSXB2WMWAZWJRSN67LWQ0PPJUT","","<img src=""img/set1/S3.jpg"" width=""540"" height = ""360"">","null","","","","","","","",""
"null","","html-keyboard-response","94","164314","0.0-23.0","33FBRBDW6PLDQ8HU5ZAHD8XSL5HC8O","A11TREGDHSUSJW","3DFYDSXB2WMWAZWJRSN67LWQ0PPJUT","","","null","","","","","","","",""
"1323.9000000953674","","image-keyboard-response","95","165639","0.0-24.0","33FBRBDW6PLDQ8HU5ZAHD8XSL5HC8O","A11TREGDHSUSJW","3DFYDSXB2WMWAZWJRSN67LWQ0PPJUT","","img/set1/S3.jpg","83","3","structured_incentive","72","false","structured_incentive,structured_normal,random","2,3,1,2","",""
"null","","html-keyboard-response","96","165991","0.0-25.0","33FBRBDW6PLDQ8HU5ZAHD8XSL5HC8O","A11TREGDHSUSJW","3DFYDSXB2WMWAZWJRSN67LWQ0PPJUT","","<img src=""img/set1/S3.jpg"" width=""540"" height = ""360"">","null","","","","","","","",""
"null","","html-keyboard-response","97","165993","0.0-26.0","33FBRBDW6PLDQ8HU5ZAHD8XSL5HC8O","A11TREGDHSUSJW","3DFYDSXB2WMWAZWJRSN67LWQ0PPJUT","","","null","","","","","","","",""
"189.90000009536743","","image-keyboard-response","98","166183","0.0-27.0","33FBRBDW6PLDQ8HU5ZAHD8XSL5HC8O","A11TREGDHSUSJW","3DFYDSXB2WMWAZWJRSN67LWQ0PPJUT","","img/set1/S2.jpg","68","2","structured_incentive","68","true","structured_incentive,structured_normal,random","2,3,1,2","",""
"null","","html-keyboard-response","99","166535","0.0-28.0","33FBRBDW6PLDQ8HU5ZAHD8XSL5HC8O","A11TREGDHSUSJW","3DFYDSXB2WMWAZWJRSN67LWQ0PPJUT","","<img src=""img/set1/S2.jpg"" width=""540"" height = ""360"" style=""border:16px solid orange"">","null","","","","","","","",""
"null","","html-keyboard-response","100","166538","0.0-29.0","33FBRBDW6PLDQ8HU5ZAHD8XSL5HC8O","A11TREGDHSUSJW","3DFYDSXB2WMWAZWJRSN67LWQ0PPJUT","","","null","","","","","","","",""
"836.3999998569489","","image-keyboard-response","101","167375","0.0-30.0","33FBRBDW6PLDQ8HU5ZAHD8XSL5HC8O","A11TREGDHSUSJW","3DFYDSXB2WMWAZWJRSN67LWQ0PPJUT","","img/set1/S3.jpg","74","3","structured_incentive","72","false","structured_incentive,structured_normal,random","2,3,1,2","",""
"null","","html-keyboard-response","102","167727","0.0-31.0","33FBRBDW6PLDQ8HU5ZAHD8XSL5HC8O","A11TREGDHSUSJW","3DFYDSXB2WMWAZWJRSN67LWQ0PPJUT","","<img src=""img/set1/S3.jpg"" width=""540"" height = ""360"">","null","","","","","","","",""
"null","","html-keyboard-response","103","167729","0.0-32.0","33FBRBDW6PLDQ8HU5ZAHD8XSL5HC8O","A11TREGDHSUSJW","3DFYDSXB2WMWAZWJRSN67LWQ0PPJUT","","","null","","","","","","","",""
"357.19999980926514","","image-keyboard-response","104","168087","0.0-33.0","33FBRBDW6PLDQ8HU5ZAHD8XSL5HC8O","A11TREGDHSUSJW","3DFYDSXB2WMWAZWJRSN67LWQ0PPJUT","","img/set1/S2.jpg","68","2","structured_incentive","68","true","structured_incentive,structured_normal,random","2,3,1,2","",""
"null","","html-keyboard-response","105","168438","0.0-34.0","33FBRBDW6PLDQ8HU5ZAHD8XSL5HC8O","A11TREGDHSUSJW","3DFYDSXB2WMWAZWJRSN67LWQ0PPJUT","","<img src=""img/set1/S2.jpg"" width=""540"" height = ""360"" style=""border:16px solid orange"">","null","","","","","","","",""
"null","","html-keyboard-response","106","168441","0.0-35.0","33FBRBDW6PLDQ8HU5ZAHD8XSL5HC8O","A11TREGDHSUSJW","3DFYDSXB2WMWAZWJRSN67LWQ0PPJUT","","","null","","","","","","","",""
"381.10000014305115","","image-keyboard-response","107","168823","0.0-36.0","33FBRBDW6PLDQ8HU5ZAHD8XSL5HC8O","A11TREGDHSUSJW","3DFYDSXB2WMWAZWJRSN67LWQ0PPJUT","","img/set1/S3.jpg","68","3","structured_incentive","72","false","structured_incentive,structured_normal,random","2,3,1,2","",""
"null","","html-keyboard-response","108","169174","0.0-37.0","33FBRBDW6PLDQ8HU5ZAHD8XSL5HC8O","A11TREGDHSUSJW","3DFYDSXB2WMWAZWJRSN67LWQ0PPJUT","","<img src=""img/set1/S3.jpg"" width=""540"" height = ""360"">","null","","","","","","","",""
"null","","html-keyboard-response","109","169176","0.0-38.0","33FBRBDW6PLDQ8HU5ZAHD8XSL5HC8O","A11TREGDHSUSJW","3DFYDSXB2WMWAZWJRSN67LWQ0PPJUT","","","null","","","","","","","",""
"69.60000014305115","","image-keyboard-response","110","169246","0.0-39.0","33FBRBDW6PLDQ8HU5ZAHD8XSL5HC8O","A11TREGDHSUSJW","3DFYDSXB2WMWAZWJRSN67LWQ0PPJUT","","img/set1/S2.jpg","83","2","structured_incentive","68","false","structured_incentive,structured_normal,random","2,3,1,2","",""
"null","","html-keyboard-response","111","169598","0.0-40.0","33FBRBDW6PLDQ8HU5ZAHD8XSL5HC8O","A11TREGDHSUSJW","3DFYDSXB2WMWAZWJRSN67LWQ0PPJUT","","<img src=""img/set1/S2.jpg"" width=""540"" height = ""360"">","null","","","","","","","",""
"null","","html-keyboard-response","112","169600","0.0-41.0","33FBRBDW6PLDQ8HU5ZAHD8XSL5HC8O","A11TREGDHSUSJW","3DFYDSXB2WMWAZWJRSN67LWQ0PPJUT","","","null","","","","","","","",""
"446.40000009536743","","image-keyboard-response","113","170047","0.0-42.0","33FBRBDW6PLDQ8HU5ZAHD8XSL5HC8O","A11TREGDHSUSJW","3DFYDSXB2WMWAZWJRSN67LWQ0PPJUT","","img/set1/S3.jpg","68","3","structured_incentive","72","false","structured_incentive,structured_normal,random","2,3,1,2","",""
"null","","html-keyboard-response","114","170399","0.0-43.0","33FBRBDW6PLDQ8HU5ZAHD8XSL5HC8O","A11TREGDHSUSJW","3DFYDSXB2WMWAZWJRSN67LWQ0PPJUT","","<img src=""img/set1/S3.jpg"" width=""540"" height = ""360"">","null","","","","","","","",""
"null","","html-keyboard-response","115","170401","0.0-44.0","33FBRBDW6PLDQ8HU5ZAHD8XSL5HC8O","A11TREGDHSUSJW","3DFYDSXB2WMWAZWJRSN67LWQ0PPJUT","","","null","","","","","","","",""
"837.2000000476837","","image-keyboard-response","116","171238","0.0-45.0","33FBRBDW6PLDQ8HU5ZAHD8XSL5HC8O","A11TREGDHSUSJW","3DFYDSXB2WMWAZWJRSN67LWQ0PPJUT","","img/set1/S1.jpg","74","1","structured_incentive","83","false","structured_incentive,structured_normal,random","2,3,1,2","",""
"null","","html-keyboard-response","117","171590","0.0-46.0","33FBRBDW6PLDQ8HU5ZAHD8XSL5HC8O","A11TREGDHSUSJW","3DFYDSXB2WMWAZWJRSN67LWQ0PPJUT","","<img src=""img/set1/S1.jpg"" width=""540"" height = ""360"">","null","","","","","","","",""
"null","","html-keyboard-response","118","171593","0.0-47.0","33FBRBDW6PLDQ8HU5ZAHD8XSL5HC8O","A11TREGDHSUSJW","3DFYDSXB2WMWAZWJRSN67LWQ0PPJUT","","","null","","","","","","","",""
"1284.5","","image-keyboard-response","119","172878","0.0-48.0","33FBRBDW6PLDQ8HU5ZAHD8XSL5HC8O","A11TREGDHSUSJW","3DFYDSXB2WMWAZWJRSN67LWQ0PPJUT","","img/set1/S1.jpg","83","1","structured_incentive","83","true","structured_incentive,structured_normal,random","2,3,1,2","",""
"null","","html-keyboard-response","120","173229","0.0-49.0","33FBRBDW6PLDQ8HU5ZAHD8XSL5HC8O","A11TREGDHSUSJW","3DFYDSXB2WMWAZWJRSN67LWQ0PPJUT","","<img src=""img/set1/S1.jpg"" width=""540"" height = ""360"" style=""border:16px solid orange"">","null","","","","","","","",""
"null","","html-keyboard-response","121","173232","0.0-50.0","33FBRBDW6PLDQ8HU5ZAHD8XSL5HC8O","A11TREGDHSUSJW","3DFYDSXB2WMWAZWJRSN67LWQ0PPJUT","","","null","","","","","","","",""
"741.5999999046326","","image-keyboard-response","122","173974","0.0-51.0","33FBRBDW6PLDQ8HU5ZAHD8XSL5HC8O","A11TREGDHSUSJW","3DFYDSXB2WMWAZWJRSN67LWQ0PPJUT","","img/set1/S2.jpg","83","2","structured_incentive","68","false","structured_incentive,structured_normal,random","2,3,1,2","",""
"null","","html-keyboard-response","123","174326","0.0-52.0","33FBRBDW6PLDQ8HU5ZAHD8XSL5HC8O","A11TREGDHSUSJW","3DFYDSXB2WMWAZWJRSN67LWQ0PPJUT","","<img src=""img/set1/S2.jpg"" width=""540"" height = ""360"">","null","","","","","","","",""
"null","","html-keyboard-response","124","174328","0.0-53.0","33FBRBDW6PLDQ8HU5ZAHD8XSL5HC8O","A11TREGDHSUSJW","3DFYDSXB2WMWAZWJRSN67LWQ0PPJUT","","","null","","","","","","","",""
"741.7000000476837","","image-keyboard-response","125","175071","0.0-54.0","33FBRBDW6PLDQ8HU5ZAHD8XSL5HC8O","A11TREGDHSUSJW","3DFYDSXB2WMWAZWJRSN67LWQ0PPJUT","","img/set1/S4.jpg","68","4","structured_incentive","74","false","structured_incentive,structured_normal,random","2,3,1,2","",""
"null","","html-keyboard-response","126","175422","0.0-55.0","33FBRBDW6PLDQ8HU5ZAHD8XSL5HC8O","A11TREGDHSUSJW","3DFYDSXB2WMWAZWJRSN67LWQ0PPJUT","","<img src=""img/set1/S4.jpg"" width=""540"" height = ""360"">","null","","","","","","","",""
"null","","html-keyboard-response","127","175425","0.0-56.0","33FBRBDW6PLDQ8HU5ZAHD8XSL5HC8O","A11TREGDHSUSJW","3DFYDSXB2WMWAZWJRSN67LWQ0PPJUT","","","null","","","","","","","",""
"92.60000014305115","","image-keyboard-response","128","175518","0.0-57.0","33FBRBDW6PLDQ8HU5ZAHD8XSL5HC8O","A11TREGDHSUSJW","3DFYDSXB2WMWAZWJRSN67LWQ0PPJUT","","img/set1/S4.jpg","74","4","structured_incentive","74","true","structured_incentive,structured_normal,random","2,3,1,2","",""
"null","","html-keyboard-response","129","175870","0.0-58.0","33FBRBDW6PLDQ8HU5ZAHD8XSL5HC8O","A11TREGDHSUSJW","3DFYDSXB2WMWAZWJRSN67LWQ0PPJUT","","<img src=""img/set1/S4.jpg"" width=""540"" height = ""360"" style=""border:16px solid Violet"">","null","","","","","","","",""
"null","","html-keyboard-response","130","175872","0.0-59.0","33FBRBDW6PLDQ8HU5ZAHD8XSL5HC8O","A11TREGDHSUSJW","3DFYDSXB2WMWAZWJRSN67LWQ0PPJUT","","","null","","","","","","","",""
"614.0999999046326","","image-keyboard-response","131","176487","0.0-60.0","33FBRBDW6PLDQ8HU5ZAHD8XSL5HC8O","A11TREGDHSUSJW","3DFYDSXB2WMWAZWJRSN67LWQ0PPJUT","","img/set1/S4.jpg","74","4","structured_incentive","74","true","structured_incentive,structured_normal,random","2,3,1,2","",""
"null","","html-keyboard-response","132","176838","0.0-61.0","33FBRBDW6PLDQ8HU5ZAHD8XSL5HC8O","A11TREGDHSUSJW","3DFYDSXB2WMWAZWJRSN67LWQ0PPJUT","","<img src=""img/set1/S4.jpg"" width=""540"" height = ""360"" style=""border:16px solid Violet"">","null","","","","","","","",""
"null","","html-keyboard-response","133","176840","0.0-62.0","33FBRBDW6PLDQ8HU5ZAHD8XSL5HC8O","A11TREGDHSUSJW","3DFYDSXB2WMWAZWJRSN67LWQ0PPJUT","","","null","","","","","","","",""
"1189.6000001430511","","image-keyboard-response","134","178030","0.0-63.0","33FBRBDW6PLDQ8HU5ZAHD8XSL5HC8O","A11TREGDHSUSJW","3DFYDSXB2WMWAZWJRSN67LWQ0PPJUT","","img/set1/S1.jpg","83","1","structured_incentive","83","true","structured_incentive,structured_normal,random","2,3,1,2","",""
"null","","html-keyboard-response","135","178382","0.0-64.0","33FBRBDW6PLDQ8HU5ZAHD8XSL5HC8O","A11TREGDHSUSJW","3DFYDSXB2WMWAZWJRSN67LWQ0PPJUT","","<img src=""img/set1/S1.jpg"" width=""540"" height = ""360"" style=""border:16px solid orange"">","null","","","","","","","",""
"null","","html-keyboard-response","136","178385","0.0-65.0","33FBRBDW6PLDQ8HU5ZAHD8XSL5HC8O","A11TREGDHSUSJW","3DFYDSXB2WMWAZWJRSN67LWQ0PPJUT","","","null","","","","","","","",""
"740.7999999523163","","image-keyboard-response","137","179126","0.0-66.0","33FBRBDW6PLDQ8HU5ZAHD8XSL5HC8O","A11TREGDHSUSJW","3DFYDSXB2WMWAZWJRSN67LWQ0PPJUT","","img/set1/S2.jpg","83","2","structured_incentive","68","false","structured_incentive,structured_normal,random","2,3,1,2","",""
"null","","html-keyboard-response","138","179478","0.0-67.0","33FBRBDW6PLDQ8HU5ZAHD8XSL5HC8O","A11TREGDHSUSJW","3DFYDSXB2WMWAZWJRSN67LWQ0PPJUT","","<img src=""img/set1/S2.jpg"" width=""540"" height = ""360"">","null","","","","","","","",""
"null","","html-keyboard-response","139","179481","0.0-68.0","33FBRBDW6PLDQ8HU5ZAHD8XSL5HC8O","A11TREGDHSUSJW","3DFYDSXB2WMWAZWJRSN67LWQ0PPJUT","","","null","","","","","","","",""
"708.8000001907349","","image-keyboard-response","140","180190","0.0-69.0","33FBRBDW6PLDQ8HU5ZAHD8XSL5HC8O","A11TREGDHSUSJW","3DFYDSXB2WMWAZWJRSN67LWQ0PPJUT","","img/set1/S3.jpg","74","3","structured_incentive","72","false","structured_incentive,structured_normal,random","2,3,1,2","",""
"null","","html-keyboard-response","141","180543","0.0-70.0","33FBRBDW6PLDQ8HU5ZAHD8XSL5HC8O","A11TREGDHSUSJW","3DFYDSXB2WMWAZWJRSN67LWQ0PPJUT","","<img src=""img/set1/S3.jpg"" width=""540"" height = ""360"">","null","","","","","","","",""
"null","","html-keyboard-response","142","180544","0.0-71.0","33FBRBDW6PLDQ8HU5ZAHD8XSL5HC8O","A11TREGDHSUSJW","3DFYDSXB2WMWAZWJRSN67LWQ0PPJUT","","","null","","","","","","","",""
"869.3000001907349","","image-keyboard-response","143","181414","0.0-72.0","33FBRBDW6PLDQ8HU5ZAHD8XSL5HC8O","A11TREGDHSUSJW","3DFYDSXB2WMWAZWJRSN67LWQ0PPJUT","","img/set1/S4.jpg","74","4","structured_incentive","74","true","structured_incentive,structured_normal,random","2,3,1,2","",""
"null","","html-keyboard-response","144","181765","0.0-73.0","33FBRBDW6PLDQ8HU5ZAHD8XSL5HC8O","A11TREGDHSUSJW","3DFYDSXB2WMWAZWJRSN67LWQ0PPJUT","","<img src=""img/set1/S4.jpg"" width=""540"" height = ""360"" style=""border:16px solid Violet"">","null","","","","","","","",""
"null","","html-keyboard-response","145","181767","0.0-74.0","33FBRBDW6PLDQ8HU5ZAHD8XSL5HC8O","A11TREGDHSUSJW","3DFYDSXB2WMWAZWJRSN67LWQ0PPJUT","","","null","","","","","","","",""
"582.5","","image-keyboard-response","146","182350","0.0-75.0","33FBRBDW6PLDQ8HU5ZAHD8XSL5HC8O","A11TREGDHSUSJW","3DFYDSXB2WMWAZWJRSN67LWQ0PPJUT","","img/set1/S1.jpg","83","1","structured_incentive","83","true","structured_incentive,structured_normal,random","2,3,1,2","",""
"null","","html-keyboard-response","147","182701","0.0-76.0","33FBRBDW6PLDQ8HU5ZAHD8XSL5HC8O","A11TREGDHSUSJW","3DFYDSXB2WMWAZWJRSN67LWQ0PPJUT","","<img src=""img/set1/S1.jpg"" width=""540"" height = ""360"" style=""border:16px solid orange"">","null","","","","","","","",""
"null","","html-keyboard-response","148","182704","0.0-77.0","33FBRBDW6PLDQ8HU5ZAHD8XSL5HC8O","A11TREGDHSUSJW","3DFYDSXB2WMWAZWJRSN67LWQ0PPJUT","","","null","","","","","","","",""
"574.3000001907349","","image-keyboard-response","149","183279","0.0-78.0","33FBRBDW6PLDQ8HU5ZAHD8XSL5HC8O","A11TREGDHSUSJW","3DFYDSXB2WMWAZWJRSN67LWQ0PPJUT","","img/set1/S2.jpg","74","2","structured_incentive","68","false","structured_incentive,structured_normal,random","2,3,1,2","",""
"null","","html-keyboard-response","150","183630","0.0-79.0","33FBRBDW6PLDQ8HU5ZAHD8XSL5HC8O","A11TREGDHSUSJW","3DFYDSXB2WMWAZWJRSN67LWQ0PPJUT","","<img src=""img/set1/S2.jpg"" width=""540"" height = ""360"">","null","","","","","","","",""
"null","","html-keyboard-response","151","183632","0.0-80.0","33FBRBDW6PLDQ8HU5ZAHD8XSL5HC8O","A11TREGDHSUSJW","3DFYDSXB2WMWAZWJRSN67LWQ0PPJUT","","","null","","","","","","","",""
"1093.6000001430511","","image-keyboard-response","152","184726","0.0-81.0","33FBRBDW6PLDQ8HU5ZAHD8XSL5HC8O","A11TREGDHSUSJW","3DFYDSXB2WMWAZWJRSN67LWQ0PPJUT","","img/set1/S3.jpg","83","3","structured_incentive","72","false","structured_incentive,structured_normal,random","2,3,1,2","",""
"null","","html-keyboard-response","153","185078","0.0-82.0","33FBRBDW6PLDQ8HU5ZAHD8XSL5HC8O","A11TREGDHSUSJW","3DFYDSXB2WMWAZWJRSN67LWQ0PPJUT","","<img src=""img/set1/S3.jpg"" width=""540"" height = ""360"">","null","","","","","","","",""
"null","","html-keyboard-response","154","185080","0.0-83.0","33FBRBDW6PLDQ8HU5ZAHD8XSL5HC8O","A11TREGDHSUSJW","3DFYDSXB2WMWAZWJRSN67LWQ0PPJUT","","","null","","","","","","","",""
"230.39999985694885","","image-keyboard-response","155","185311","0.0-84.0","33FBRBDW6PLDQ8HU5ZAHD8XSL5HC8O","A11TREGDHSUSJW","3DFYDSXB2WMWAZWJRSN67LWQ0PPJUT","","img/set1/S4.jpg","74","4","structured_incentive","74","true","structured_incentive,structured_normal,random","2,3,1,2","",""
"null","","html-keyboard-response","156","185663","0.0-85.0","33FBRBDW6PLDQ8HU5ZAHD8XSL5HC8O","A11TREGDHSUSJW","3DFYDSXB2WMWAZWJRSN67LWQ0PPJUT","","<img src=""img/set1/S4.jpg"" width=""540"" height = ""360"" style=""border:16px solid Violet"">","null","","","","","","","",""
"null","","html-keyboard-response","157","185666","0.0-86.0","33FBRBDW6PLDQ8HU5ZAHD8XSL5HC8O","A11TREGDHSUSJW","3DFYDSXB2WMWAZWJRSN67LWQ0PPJUT","","","null","","","","","","","",""
"516.8000001907349","","image-keyboard-response","158","186183","0.0-87.0","33FBRBDW6PLDQ8HU5ZAHD8XSL5HC8O","A11TREGDHSUSJW","3DFYDSXB2WMWAZWJRSN67LWQ0PPJUT","","img/set1/S2.jpg","83","2","structured_incentive","68","false","structured_incentive,structured_normal,random","2,3,1,2","",""
"null","","html-keyboard-response","159","186535","0.0-88.0","33FBRBDW6PLDQ8HU5ZAHD8XSL5HC8O","A11TREGDHSUSJW","3DFYDSXB2WMWAZWJRSN67LWQ0PPJUT","","<img src=""img/set1/S2.jpg"" width=""540"" height = ""360"">","null","","","","","","","",""
"null","","html-keyboard-response","160","186536","0.0-89.0","33FBRBDW6PLDQ8HU5ZAHD8XSL5HC8O","A11TREGDHSUSJW","3DFYDSXB2WMWAZWJRSN67LWQ0PPJUT","","","null","","","","","","","",""
"902","","image-keyboard-response","161","187439","0.0-90.0","33FBRBDW6PLDQ8HU5ZAHD8XSL5HC8O","A11TREGDHSUSJW","3DFYDSXB2WMWAZWJRSN67LWQ0PPJUT","","img/set1/S3.jpg","68","3","structured_incentive","72","false","structured_incentive,structured_normal,random","2,3,1,2","",""
"null","","html-keyboard-response","162","187791","0.0-91.0","33FBRBDW6PLDQ8HU5ZAHD8XSL5HC8O","A11TREGDHSUSJW","3DFYDSXB2WMWAZWJRSN67LWQ0PPJUT","","<img src=""img/set1/S3.jpg"" width=""540"" height = ""360"">","null","","","","","","","",""
"null","","html-keyboard-response","163","187792","0.0-92.0","33FBRBDW6PLDQ8HU5ZAHD8XSL5HC8O","A11TREGDHSUSJW","3DFYDSXB2WMWAZWJRSN67LWQ0PPJUT","","","null","","","","","","","",""
"701.5","","image-keyboard-response","164","188495","0.0-93.0","33FBRBDW6PLDQ8HU5ZAHD8XSL5HC8O","A11TREGDHSUSJW","3DFYDSXB2WMWAZWJRSN67LWQ0PPJUT","","img/set1/S1.jpg","74","1","structured_incentive","83","false","structured_incentive,structured_normal,random","2,3,1,2","",""
"null","","html-keyboard-response","165","188847","0.0-94.0","33FBRBDW6PLDQ8HU5ZAHD8XSL5HC8O","A11TREGDHSUSJW","3DFYDSXB2WMWAZWJRSN67LWQ0PPJUT","","<img src=""img/set1/S1.jpg"" width=""540"" height = ""360"">","null","","","","","","","",""
"null","","html-keyboard-response","166","188849","0.0-95.0","33FBRBDW6PLDQ8HU5ZAHD8XSL5HC8O","A11TREGDHSUSJW","3DFYDSXB2WMWAZWJRSN67LWQ0PPJUT","","","null","","","","","","","",""
"228.79999995231628","","image-keyboard-response","167","189078","0.0-96.0","33FBRBDW6PLDQ8HU5ZAHD8XSL5HC8O","A11TREGDHSUSJW","3DFYDSXB2WMWAZWJRSN67LWQ0PPJUT","","img/set1/S2.jpg","83","2","structured_incentive","68","false","structured_incentive,structured_normal,random","2,3,1,2","",""
"null","","html-keyboard-response","168","189430","0.0-97.0","33FBRBDW6PLDQ8HU5ZAHD8XSL5HC8O","A11TREGDHSUSJW","3DFYDSXB2WMWAZWJRSN67LWQ0PPJUT","","<img src=""img/set1/S2.jpg"" width=""540"" height = ""360"">","null","","","","","","","",""
"null","","html-keyboard-response","169","189432","0.0-98.0","33FBRBDW6PLDQ8HU5ZAHD8XSL5HC8O","A11TREGDHSUSJW","3DFYDSXB2WMWAZWJRSN67LWQ0PPJUT","","","null","","","","","","","",""
"222.5","","image-keyboard-response","170","189655","0.0-99.0","33FBRBDW6PLDQ8HU5ZAHD8XSL5HC8O","A11TREGDHSUSJW","3DFYDSXB2WMWAZWJRSN67LWQ0PPJUT","","img/set1/S3.jpg","68","3","structured_incentive","72","false","structured_incentive,structured_normal,random","2,3,1,2","",""
"null","","html-keyboard-response","171","190007","0.0-100.0","33FBRBDW6PLDQ8HU5ZAHD8XSL5HC8O","A11TREGDHSUSJW","3DFYDSXB2WMWAZWJRSN67LWQ0PPJUT","","<img src=""img/set1/S3.jpg"" width=""540"" height = ""360"">","null","","","","","","","",""
"null","","html-keyboard-response","172","190010","0.0-101.0","33FBRBDW6PLDQ8HU5ZAHD8XSL5HC8O","A11TREGDHSUSJW","3DFYDSXB2WMWAZWJRSN67LWQ0PPJUT","","","null","","","","","","","",""
"483.10000014305115","","image-keyboard-response","173","190494","0.0-102.0","33FBRBDW6PLDQ8HU5ZAHD8XSL5HC8O","A11TREGDHSUSJW","3DFYDSXB2WMWAZWJRSN67LWQ0PPJUT","","img/set1/S1.jpg","68","1","structured_incentive","83","false","structured_incentive,structured_normal,random","2,3,1,2","",""
"null","","html-keyboard-response","174","190846","0.0-103.0","33FBRBDW6PLDQ8HU5ZAHD8XSL5HC8O","A11TREGDHSUSJW","3DFYDSXB2WMWAZWJRSN67LWQ0PPJUT","","<img src=""img/set1/S1.jpg"" width=""540"" height = ""360"">","null","","","","","","","",""
"null","","html-keyboard-response","175","190848","0.0-104.0","33FBRBDW6PLDQ8HU5ZAHD8XSL5HC8O","A11TREGDHSUSJW","3DFYDSXB2WMWAZWJRSN67LWQ0PPJUT","","","null","","","","","","","",""
"445.39999985694885","","image-keyboard-response","176","191294","0.0-105.0","33FBRBDW6PLDQ8HU5ZAHD8XSL5HC8O","A11TREGDHSUSJW","3DFYDSXB2WMWAZWJRSN67LWQ0PPJUT","","img/set1/S4.jpg","83","4","structured_incentive","74","false","structured_incentive,structured_normal,random","2,3,1,2","",""
"null","","html-keyboard-response","177","191645","0.0-106.0","33FBRBDW6PLDQ8HU5ZAHD8XSL5HC8O","A11TREGDHSUSJW","3DFYDSXB2WMWAZWJRSN67LWQ0PPJUT","","<img src=""img/set1/S4.jpg"" width=""540"" height = ""360"">","null","","","","","","","",""
"null","","html-keyboard-response","178","191648","0.0-107.0","33FBRBDW6PLDQ8HU5ZAHD8XSL5HC8O","A11TREGDHSUSJW","3DFYDSXB2WMWAZWJRSN67LWQ0PPJUT","","","null","","","","","","","",""
"869.3999998569489","","image-keyboard-response","179","192518","0.0-108.0","33FBRBDW6PLDQ8HU5ZAHD8XSL5HC8O","A11TREGDHSUSJW","3DFYDSXB2WMWAZWJRSN67LWQ0PPJUT","","img/set1/S1.jpg","83","1","structured_incentive","83","true","structured_incentive,structured_normal,random","2,3,1,2","",""
"null","","html-keyboard-response","180","192869","0.0-109.0","33FBRBDW6PLDQ8HU5ZAHD8XSL5HC8O","A11TREGDHSUSJW","3DFYDSXB2WMWAZWJRSN67LWQ0PPJUT","","<img src=""img/set1/S1.jpg"" width=""540"" height = ""360"" style=""border:16px solid orange"">","null","","","","","","","",""
"null","","html-keyboard-response","181","192872","0.0-110.0","33FBRBDW6PLDQ8HU5ZAHD8XSL5HC8O","A11TREGDHSUSJW","3DFYDSXB2WMWAZWJRSN67LWQ0PPJUT","","","null","","","","","","","",""
"677.1000001430511","","image-keyboard-response","182","193550","0.0-111.0","33FBRBDW6PLDQ8HU5ZAHD8XSL5HC8O","A11TREGDHSUSJW","3DFYDSXB2WMWAZWJRSN67LWQ0PPJUT","","img/set1/S3.jpg","83","3","structured_incentive","72","false","structured_incentive,structured_normal,random","2,3,1,2","",""
"null","","html-keyboard-response","183","193902","0.0-112.0","33FBRBDW6PLDQ8HU5ZAHD8XSL5HC8O","A11TREGDHSUSJW","3DFYDSXB2WMWAZWJRSN67LWQ0PPJUT","","<img src=""img/set1/S3.jpg"" width=""540"" height = ""360"">","null","","","","","","","",""
"null","","html-keyboard-response","184","193905","0.0-113.0","33FBRBDW6PLDQ8HU5ZAHD8XSL5HC8O","A11TREGDHSUSJW","3DFYDSXB2WMWAZWJRSN67LWQ0PPJUT","","","null","","","","","","","",""
"804.9000000953674","","image-keyboard-response","185","194711","0.0-114.0","33FBRBDW6PLDQ8HU5ZAHD8XSL5HC8O","A11TREGDHSUSJW","3DFYDSXB2WMWAZWJRSN67LWQ0PPJUT","","img/set1/S1.jpg","83","1","structured_incentive","83","true","structured_incentive,structured_normal,random","2,3,1,2","",""
"null","","html-keyboard-response","186","195063","0.0-115.0","33FBRBDW6PLDQ8HU5ZAHD8XSL5HC8O","A11TREGDHSUSJW","3DFYDSXB2WMWAZWJRSN67LWQ0PPJUT","","<img src=""img/set1/S1.jpg"" width=""540"" height = ""360"" style=""border:16px solid orange"">","null","","","","","","","",""
"null","","html-keyboard-response","187","195064","0.0-116.0","33FBRBDW6PLDQ8HU5ZAHD8XSL5HC8O","A11TREGDHSUSJW","3DFYDSXB2WMWAZWJRSN67LWQ0PPJUT","","","null","","","","","","","",""
"549.1000001430511","","image-keyboard-response","188","195614","0.0-117.0","33FBRBDW6PLDQ8HU5ZAHD8XSL5HC8O","A11TREGDHSUSJW","3DFYDSXB2WMWAZWJRSN67LWQ0PPJUT","","img/set1/S1.jpg","83","1","structured_incentive","83","true","structured_incentive,structured_normal,random","2,3,1,2","",""
"null","","html-keyboard-response","189","195966","0.0-118.0","33FBRBDW6PLDQ8HU5ZAHD8XSL5HC8O","A11TREGDHSUSJW","3DFYDSXB2WMWAZWJRSN67LWQ0PPJUT","","<img src=""img/set1/S1.jpg"" width=""540"" height = ""360"" style=""border:16px solid orange"">","null","","","","","","","",""
"null","","html-keyboard-response","190","195969","0.0-119.0","33FBRBDW6PLDQ8HU5ZAHD8XSL5HC8O","A11TREGDHSUSJW","3DFYDSXB2WMWAZWJRSN67LWQ0PPJUT","","","null","","","","","","","",""
"604.7999999523163","","image-keyboard-response","191","196574","0.0-120.0","33FBRBDW6PLDQ8HU5ZAHD8XSL5HC8O","A11TREGDHSUSJW","3DFYDSXB2WMWAZWJRSN67LWQ0PPJUT","","img/set1/S4.jpg","74","4","structured_incentive","74","true","structured_incentive,structured_normal,random","2,3,1,2","",""
"null","","html-keyboard-response","192","196926","0.0-121.0","33FBRBDW6PLDQ8HU5ZAHD8XSL5HC8O","A11TREGDHSUSJW","3DFYDSXB2WMWAZWJRSN67LWQ0PPJUT","","<img src=""img/set1/S4.jpg"" width=""540"" height = ""360"" style=""border:16px solid Violet"">","null","","","","","","","",""
"null","","html-keyboard-response","193","196928","0.0-122.0","33FBRBDW6PLDQ8HU5ZAHD8XSL5HC8O","A11TREGDHSUSJW","3DFYDSXB2WMWAZWJRSN67LWQ0PPJUT","","","null","","","","","","","",""
"1102","","image-keyboard-response","194","198030","0.0-123.0","33FBRBDW6PLDQ8HU5ZAHD8XSL5HC8O","A11TREGDHSUSJW","3DFYDSXB2WMWAZWJRSN67LWQ0PPJUT","","img/set1/S2.jpg","68","2","structured_incentive","68","true","structured_incentive,structured_normal,random","2,3,1,2","",""
"null","","html-keyboard-response","195","198382","0.0-124.0","33FBRBDW6PLDQ8HU5ZAHD8XSL5HC8O","A11TREGDHSUSJW","3DFYDSXB2WMWAZWJRSN67LWQ0PPJUT","","<img src=""img/set1/S2.jpg"" width=""540"" height = ""360"" style=""border:16px solid orange"">","null","","","","","","","",""
"null","","html-keyboard-response","196","198385","0.0-125.0","33FBRBDW6PLDQ8HU5ZAHD8XSL5HC8O","A11TREGDHSUSJW","3DFYDSXB2WMWAZWJRSN67LWQ0PPJUT","","","null","","","","","","","",""
"668.5","","image-keyboard-response","197","199054","0.0-126.0","33FBRBDW6PLDQ8HU5ZAHD8XSL5HC8O","A11TREGDHSUSJW","3DFYDSXB2WMWAZWJRSN67LWQ0PPJUT","","img/set1/S4.jpg","74","4","structured_incentive","74","true","structured_incentive,structured_normal,random","2,3,1,2","",""
"null","","html-keyboard-response","198","199406","0.0-127.0","33FBRBDW6PLDQ8HU5ZAHD8XSL5HC8O","A11TREGDHSUSJW","3DFYDSXB2WMWAZWJRSN67LWQ0PPJUT","","<img src=""img/set1/S4.jpg"" width=""540"" height = ""360"" style=""border:16px solid Violet"">","null","","","","","","","",""
"null","","html-keyboard-response","199","199409","0.0-128.0","33FBRBDW6PLDQ8HU5ZAHD8XSL5HC8O","A11TREGDHSUSJW","3DFYDSXB2WMWAZWJRSN67LWQ0PPJUT","","","null","","","","","","","",""
"548","","image-keyboard-response","200","199958","0.0-129.0","33FBRBDW6PLDQ8HU5ZAHD8XSL5HC8O","A11TREGDHSUSJW","3DFYDSXB2WMWAZWJRSN67LWQ0PPJUT","","img/set1/S4.jpg","74","4","structured_incentive","74","true","structured_incentive,structured_normal,random","2,3,1,2","",""
"null","","html-keyboard-response","201","200310","0.0-130.0","33FBRBDW6PLDQ8HU5ZAHD8XSL5HC8O","A11TREGDHSUSJW","3DFYDSXB2WMWAZWJRSN67LWQ0PPJUT","","<img src=""img/set1/S4.jpg"" width=""540"" height = ""360"" style=""border:16px solid Violet"">","null","","","","","","","",""
"null","","html-keyboard-response","202","200312","0.0-131.0","33FBRBDW6PLDQ8HU5ZAHD8XSL5HC8O","A11TREGDHSUSJW","3DFYDSXB2WMWAZWJRSN67LWQ0PPJUT","","","null","","","","","","","",""
"1093.6000001430511","","image-keyboard-response","203","201406","0.0-132.0","33FBRBDW6PLDQ8HU5ZAHD8XSL5HC8O","A11TREGDHSUSJW","3DFYDSXB2WMWAZWJRSN67LWQ0PPJUT","","img/set1/S1.jpg","68","1","structured_incentive","83","false","structured_incentive,structured_normal,random","2,3,1,2","",""
"null","","html-keyboard-response","204","201758","0.0-133.0","33FBRBDW6PLDQ8HU5ZAHD8XSL5HC8O","A11TREGDHSUSJW","3DFYDSXB2WMWAZWJRSN67LWQ0PPJUT","","<img src=""img/set1/S1.jpg"" width=""540"" height = ""360"">","null","","","","","","","",""
"null","","html-keyboard-response","205","201761","0.0-134.0","33FBRBDW6PLDQ8HU5ZAHD8XSL5HC8O","A11TREGDHSUSJW","3DFYDSXB2WMWAZWJRSN67LWQ0PPJUT","","","null","","","","","","","",""
"60.700000047683716","","image-keyboard-response","206","201822","0.0-135.0","33FBRBDW6PLDQ8HU5ZAHD8XSL5HC8O","A11TREGDHSUSJW","3DFYDSXB2WMWAZWJRSN67LWQ0PPJUT","","img/set1/S2.jpg","83","2","structured_incentive","68","false","structured_incentive,structured_normal,random","2,3,1,2","",""
"null","","html-keyboard-response","207","202175","0.0-136.0","33FBRBDW6PLDQ8HU5ZAHD8XSL5HC8O","A11TREGDHSUSJW","3DFYDSXB2WMWAZWJRSN67LWQ0PPJUT","","<img src=""img/set1/S2.jpg"" width=""540"" height = ""360"">","null","","","","","","","",""
"null","","html-keyboard-response","208","202177","0.0-137.0","33FBRBDW6PLDQ8HU5ZAHD8XSL5HC8O","A11TREGDHSUSJW","3DFYDSXB2WMWAZWJRSN67LWQ0PPJUT","","","null","","","","","","","",""
"740.5","","image-keyboard-response","209","202918","0.0-138.0","33FBRBDW6PLDQ8HU5ZAHD8XSL5HC8O","A11TREGDHSUSJW","3DFYDSXB2WMWAZWJRSN67LWQ0PPJUT","","img/set1/S4.jpg","74","4","structured_incentive","74","true","structured_incentive,structured_normal,random","2,3,1,2","",""
"null","","html-keyboard-response","210","203270","0.0-139.0","33FBRBDW6PLDQ8HU5ZAHD8XSL5HC8O","A11TREGDHSUSJW","3DFYDSXB2WMWAZWJRSN67LWQ0PPJUT","","<img src=""img/set1/S4.jpg"" width=""540"" height = ""360"" style=""border:16px solid Violet"">","null","","","","","","","",""
"null","","html-keyboard-response","211","203273","0.0-140.0","33FBRBDW6PLDQ8HU5ZAHD8XSL5HC8O","A11TREGDHSUSJW","3DFYDSXB2WMWAZWJRSN67LWQ0PPJUT","","","null","","","","","","","",""
"708.5999999046326","","image-keyboard-response","212","203982","0.0-141.0","33FBRBDW6PLDQ8HU5ZAHD8XSL5HC8O","A11TREGDHSUSJW","3DFYDSXB2WMWAZWJRSN67LWQ0PPJUT","","img/set1/S1.jpg","83","1","structured_incentive","83","true","structured_incentive,structured_normal,random","2,3,1,2","",""
"null","","html-keyboard-response","213","204333","0.0-142.0","33FBRBDW6PLDQ8HU5ZAHD8XSL5HC8O","A11TREGDHSUSJW","3DFYDSXB2WMWAZWJRSN67LWQ0PPJUT","","<img src=""img/set1/S1.jpg"" width=""540"" height = ""360"" style=""border:16px solid orange"">","null","","","","","","","",""
"null","","html-keyboard-response","214","204335","0.0-143.0","33FBRBDW6PLDQ8HU5ZAHD8XSL5HC8O","A11TREGDHSUSJW","3DFYDSXB2WMWAZWJRSN67LWQ0PPJUT","","","null","","","","","","","",""
"486","","image-keyboard-response","215","204822","0.0-144.0","33FBRBDW6PLDQ8HU5ZAHD8XSL5HC8O","A11TREGDHSUSJW","3DFYDSXB2WMWAZWJRSN67LWQ0PPJUT","","img/set1/S1.jpg","68","1","structured_incentive","83","false","structured_incentive,structured_normal,random","2,3,1,2","",""
"null","","html-keyboard-response","216","205173","0.0-145.0","33FBRBDW6PLDQ8HU5ZAHD8XSL5HC8O","A11TREGDHSUSJW","3DFYDSXB2WMWAZWJRSN67LWQ0PPJUT","","<img src=""img/set1/S1.jpg"" width=""540"" height = ""360"">","null","","","","","","","",""
"null","","html-keyboard-response","217","205176","0.0-146.0","33FBRBDW6PLDQ8HU5ZAHD8XSL5HC8O","A11TREGDHSUSJW","3DFYDSXB2WMWAZWJRSN67LWQ0PPJUT","","","null","","","","","","","",""
"157.29999995231628","","image-keyboard-response","218","205334","0.0-147.0","33FBRBDW6PLDQ8HU5ZAHD8XSL5HC8O","A11TREGDHSUSJW","3DFYDSXB2WMWAZWJRSN67LWQ0PPJUT","","img/set1/S4.jpg","83","4","structured_incentive","74","false","structured_incentive,structured_normal,random","2,3,1,2","",""
"null","","html-keyboard-response","219","205686","0.0-148.0","33FBRBDW6PLDQ8HU5ZAHD8XSL5HC8O","A11TREGDHSUSJW","3DFYDSXB2WMWAZWJRSN67LWQ0PPJUT","","<img src=""img/set1/S4.jpg"" width=""540"" height = ""360"">","null","","","","","","","",""
"null","","html-keyboard-response","220","205688","0.0-149.0","33FBRBDW6PLDQ8HU5ZAHD8XSL5HC8O","A11TREGDHSUSJW","3DFYDSXB2WMWAZWJRSN67LWQ0PPJUT","","","null","","","","","","","",""
"93.5","","image-keyboard-response","221","205782","0.0-150.0","33FBRBDW6PLDQ8HU5ZAHD8XSL5HC8O","A11TREGDHSUSJW","3DFYDSXB2WMWAZWJRSN67LWQ0PPJUT","","img/set1/S3.jpg","74","3","structured_incentive","72","false","structured_incentive,structured_normal,random","2,3,1,2","",""
"null","","html-keyboard-response","222","206135","0.0-151.0","33FBRBDW6PLDQ8HU5ZAHD8XSL5HC8O","A11TREGDHSUSJW","3DFYDSXB2WMWAZWJRSN67LWQ0PPJUT","","<img src=""img/set1/S3.jpg"" width=""540"" height = ""360"">","null","","","","","","","",""
"null","","html-keyboard-response","223","206138","0.0-152.0","33FBRBDW6PLDQ8HU5ZAHD8XSL5HC8O","A11TREGDHSUSJW","3DFYDSXB2WMWAZWJRSN67LWQ0PPJUT","","","null","","","","","","","",""
"2380.2999999523163","","image-keyboard-response","224","208519","0.0-153.0","33FBRBDW6PLDQ8HU5ZAHD8XSL5HC8O","A11TREGDHSUSJW","3DFYDSXB2WMWAZWJRSN67LWQ0PPJUT","","img/set1/S2.jpg","83","2","structured_incentive","68","false","structured_incentive,structured_normal,random","2,3,1,2","",""
"null","","html-keyboard-response","225","208870","0.0-154.0","33FBRBDW6PLDQ8HU5ZAHD8XSL5HC8O","A11TREGDHSUSJW","3DFYDSXB2WMWAZWJRSN67LWQ0PPJUT","","<img src=""img/set1/S2.jpg"" width=""540"" height = ""360"">","null","","","","","","","",""
"null","","html-keyboard-response","226","208872","0.0-155.0","33FBRBDW6PLDQ8HU5ZAHD8XSL5HC8O","A11TREGDHSUSJW","3DFYDSXB2WMWAZWJRSN67LWQ0PPJUT","","","null","","","","","","","",""
"37.5","","image-keyboard-response","227","208910","0.0-156.0","33FBRBDW6PLDQ8HU5ZAHD8XSL5HC8O","A11TREGDHSUSJW","3DFYDSXB2WMWAZWJRSN67LWQ0PPJUT","","img/set1/S3.jpg","68","3","structured_incentive","72","false","structured_incentive,structured_normal,random","2,3,1,2","",""
"null","","html-keyboard-response","228","209261","0.0-157.0","33FBRBDW6PLDQ8HU5ZAHD8XSL5HC8O","A11TREGDHSUSJW","3DFYDSXB2WMWAZWJRSN67LWQ0PPJUT","","<img src=""img/set1/S3.jpg"" width=""540"" height = ""360"">","null","","","","","","","",""
"null","","html-keyboard-response","229","209264","0.0-158.0","33FBRBDW6PLDQ8HU5ZAHD8XSL5HC8O","A11TREGDHSUSJW","3DFYDSXB2WMWAZWJRSN67LWQ0PPJUT","","","null","","","","","","","",""
"733.5999999046326","","image-keyboard-response","230","209998","0.0-159.0","33FBRBDW6PLDQ8HU5ZAHD8XSL5HC8O","A11TREGDHSUSJW","3DFYDSXB2WMWAZWJRSN67LWQ0PPJUT","","img/set1/S3.jpg","68","3","structured_incentive","72","false","structured_incentive,structured_normal,random","2,3,1,2","",""
"null","","html-keyboard-response","231","210351","0.0-160.0","33FBRBDW6PLDQ8HU5ZAHD8XSL5HC8O","A11TREGDHSUSJW","3DFYDSXB2WMWAZWJRSN67LWQ0PPJUT","","<img src=""img/set1/S3.jpg"" width=""540"" height = ""360"">","null","","","","","","","",""
"null","","html-keyboard-response","232","210352","0.0-161.0","33FBRBDW6PLDQ8HU5ZAHD8XSL5HC8O","A11TREGDHSUSJW","3DFYDSXB2WMWAZWJRSN67LWQ0PPJUT","","","null","","","","","","","",""
"741.0999999046326","","image-keyboard-response","233","211094","0.0-162.0","33FBRBDW6PLDQ8HU5ZAHD8XSL5HC8O","A11TREGDHSUSJW","3DFYDSXB2WMWAZWJRSN67LWQ0PPJUT","","img/set1/S1.jpg","83","1","structured_incentive","83","true","structured_incentive,structured_normal,random","2,3,1,2","",""
"null","","html-keyboard-response","234","211445","0.0-163.0","33FBRBDW6PLDQ8HU5ZAHD8XSL5HC8O","A11TREGDHSUSJW","3DFYDSXB2WMWAZWJRSN67LWQ0PPJUT","","<img src=""img/set1/S1.jpg"" width=""540"" height = ""360"" style=""border:16px solid orange"">","null","","","","","","","",""
"null","","html-keyboard-response","235","211447","0.0-164.0","33FBRBDW6PLDQ8HU5ZAHD8XSL5HC8O","A11TREGDHSUSJW","3DFYDSXB2WMWAZWJRSN67LWQ0PPJUT","","","null","","","","","","","",""
"1190.3000001907349","","image-keyboard-response","236","212638","0.0-165.0","33FBRBDW6PLDQ8HU5ZAHD8XSL5HC8O","A11TREGDHSUSJW","3DFYDSXB2WMWAZWJRSN67LWQ0PPJUT","","img/set1/S2.jpg","83","2","structured_incentive","68","false","structured_incentive,structured_normal,random","2,3,1,2","",""
"null","","html-keyboard-response","237","212989","0.0-166.0","33FBRBDW6PLDQ8HU5ZAHD8XSL5HC8O","A11TREGDHSUSJW","3DFYDSXB2WMWAZWJRSN67LWQ0PPJUT","","<img src=""img/set1/S2.jpg"" width=""540"" height = ""360"">","null","","","","","","","",""
"null","","html-keyboard-response","238","212991","0.0-167.0","33FBRBDW6PLDQ8HU5ZAHD8XSL5HC8O","A11TREGDHSUSJW","3DFYDSXB2WMWAZWJRSN67LWQ0PPJUT","","","null","","","","","","","",""
"902","","image-keyboard-response","239","213894","0.0-168.0","33FBRBDW6PLDQ8HU5ZAHD8XSL5HC8O","A11TREGDHSUSJW","3DFYDSXB2WMWAZWJRSN67LWQ0PPJUT","","img/set1/S3.jpg","83","3","structured_incentive","72","false","structured_incentive,structured_normal,random","2,3,1,2","",""
"null","","html-keyboard-response","240","214245","0.0-169.0","33FBRBDW6PLDQ8HU5ZAHD8XSL5HC8O","A11TREGDHSUSJW","3DFYDSXB2WMWAZWJRSN67LWQ0PPJUT","","<img src=""img/set1/S3.jpg"" width=""540"" height = ""360"">","null","","","","","","","",""
"null","","html-keyboard-response","241","214247","0.0-170.0","33FBRBDW6PLDQ8HU5ZAHD8XSL5HC8O","A11TREGDHSUSJW","3DFYDSXB2WMWAZWJRSN67LWQ0PPJUT","","","null","","","","","","","",""
"2030.7000000476837","","image-keyboard-response","242","216278","0.0-171.0","33FBRBDW6PLDQ8HU5ZAHD8XSL5HC8O","A11TREGDHSUSJW","3DFYDSXB2WMWAZWJRSN67LWQ0PPJUT","","img/set1/S2.jpg","74","2","structured_incentive","68","false","structured_incentive,structured_normal,random","2,3,1,2","",""
"null","","html-keyboard-response","243","216630","0.0-172.0","33FBRBDW6PLDQ8HU5ZAHD8XSL5HC8O","A11TREGDHSUSJW","3DFYDSXB2WMWAZWJRSN67LWQ0PPJUT","","<img src=""img/set1/S2.jpg"" width=""540"" height = ""360"">","null","","","","","","","",""
"null","","html-keyboard-response","244","216632","0.0-173.0","33FBRBDW6PLDQ8HU5ZAHD8XSL5HC8O","A11TREGDHSUSJW","3DFYDSXB2WMWAZWJRSN67LWQ0PPJUT","","","null","","","","","","","",""
"805.2000000476837","","image-keyboard-response","245","217438","0.0-174.0","33FBRBDW6PLDQ8HU5ZAHD8XSL5HC8O","A11TREGDHSUSJW","3DFYDSXB2WMWAZWJRSN67LWQ0PPJUT","","img/set1/S3.jpg","68","3","structured_incentive","72","false","structured_incentive,structured_normal,random","2,3,1,2","",""
"null","","html-keyboard-response","246","217789","0.0-175.0","33FBRBDW6PLDQ8HU5ZAHD8XSL5HC8O","A11TREGDHSUSJW","3DFYDSXB2WMWAZWJRSN67LWQ0PPJUT","","<img src=""img/set1/S3.jpg"" width=""540"" height = ""360"">","null","","","","","","","",""
"null","","html-keyboard-response","247","217792","0.0-176.0","33FBRBDW6PLDQ8HU5ZAHD8XSL5HC8O","A11TREGDHSUSJW","3DFYDSXB2WMWAZWJRSN67LWQ0PPJUT","","","null","","","","","","","",""
"838.5999999046326","","image-keyboard-response","248","218631","0.0-177.0","33FBRBDW6PLDQ8HU5ZAHD8XSL5HC8O","A11TREGDHSUSJW","3DFYDSXB2WMWAZWJRSN67LWQ0PPJUT","","img/set1/S1.jpg","83","1","structured_incentive","83","true","structured_incentive,structured_normal,random","2,3,1,2","",""
"null","","html-keyboard-response","249","218983","0.0-178.0","33FBRBDW6PLDQ8HU5ZAHD8XSL5HC8O","A11TREGDHSUSJW","3DFYDSXB2WMWAZWJRSN67LWQ0PPJUT","","<img src=""img/set1/S1.jpg"" width=""540"" height = ""360"" style=""border:16px solid orange"">","null","","","","","","","",""
"null","","html-keyboard-response","250","218985","0.0-179.0","33FBRBDW6PLDQ8HU5ZAHD8XSL5HC8O","A11TREGDHSUSJW","3DFYDSXB2WMWAZWJRSN67LWQ0PPJUT","","","null","","","","","","","",""
"549","","image-keyboard-response","251","219535","0.0-180.0","33FBRBDW6PLDQ8HU5ZAHD8XSL5HC8O","A11TREGDHSUSJW","3DFYDSXB2WMWAZWJRSN67LWQ0PPJUT","","img/set1/S4.jpg","74","4","structured_incentive","74","true","structured_incentive,structured_normal,random","2,3,1,2","",""
"null","","html-keyboard-response","252","219886","0.0-181.0","33FBRBDW6PLDQ8HU5ZAHD8XSL5HC8O","A11TREGDHSUSJW","3DFYDSXB2WMWAZWJRSN67LWQ0PPJUT","","<img src=""img/set1/S4.jpg"" width=""540"" height = ""360"" style=""border:16px solid Violet"">","null","","","","","","","",""
"null","","html-keyboard-response","253","219889","0.0-182.0","33FBRBDW6PLDQ8HU5ZAHD8XSL5HC8O","A11TREGDHSUSJW","3DFYDSXB2WMWAZWJRSN67LWQ0PPJUT","","","null","","","","","","","",""
"636.7000000476837","","image-keyboard-response","254","220526","0.0-183.0","33FBRBDW6PLDQ8HU5ZAHD8XSL5HC8O","A11TREGDHSUSJW","3DFYDSXB2WMWAZWJRSN67LWQ0PPJUT","","img/set1/S1.jpg","83","1","structured_incentive","83","true","structured_incentive,structured_normal,random","2,3,1,2","",""
"null","","html-keyboard-response","255","220878","0.0-184.0","33FBRBDW6PLDQ8HU5ZAHD8XSL5HC8O","A11TREGDHSUSJW","3DFYDSXB2WMWAZWJRSN67LWQ0PPJUT","","<img src=""img/set1/S1.jpg"" width=""540"" height = ""360"" style=""border:16px solid orange"">","null","","","","","","","",""
"null","","html-keyboard-response","256","220880","0.0-185.0","33FBRBDW6PLDQ8HU5ZAHD8XSL5HC8O","A11TREGDHSUSJW","3DFYDSXB2WMWAZWJRSN67LWQ0PPJUT","","","null","","","","","","","",""
"550.2000000476837","","image-keyboard-response","257","221431","0.0-186.0","33FBRBDW6PLDQ8HU5ZAHD8XSL5HC8O","A11TREGDHSUSJW","3DFYDSXB2WMWAZWJRSN67LWQ0PPJUT","","img/set1/S4.jpg","83","4","structured_incentive","74","false","structured_incentive,structured_normal,random","2,3,1,2","",""
"null","","html-keyboard-response","258","221782","0.0-187.0","33FBRBDW6PLDQ8HU5ZAHD8XSL5HC8O","A11TREGDHSUSJW","3DFYDSXB2WMWAZWJRSN67LWQ0PPJUT","","<img src=""img/set1/S4.jpg"" width=""540"" height = ""360"">","null","","","","","","","",""
"null","","html-keyboard-response","259","221784","0.0-188.0","33FBRBDW6PLDQ8HU5ZAHD8XSL5HC8O","A11TREGDHSUSJW","3DFYDSXB2WMWAZWJRSN67LWQ0PPJUT","","","null","","","","","","","",""
"581.2000000476837","","image-keyboard-response","260","222366","0.0-189.0","33FBRBDW6PLDQ8HU5ZAHD8XSL5HC8O","A11TREGDHSUSJW","3DFYDSXB2WMWAZWJRSN67LWQ0PPJUT","","img/set1/S1.jpg","83","1","structured_incentive","83","true","structured_incentive,structured_normal,random","2,3,1,2","",""
"null","","html-keyboard-response","261","222717","0.0-190.0","33FBRBDW6PLDQ8HU5ZAHD8XSL5HC8O","A11TREGDHSUSJW","3DFYDSXB2WMWAZWJRSN67LWQ0PPJUT","","<img src=""img/set1/S1.jpg"" width=""540"" height = ""360"" style=""border:16px solid orange"">","null","","","","","","","",""
"null","","html-keyboard-response","262","222719","0.0-191.0","33FBRBDW6PLDQ8HU5ZAHD8XSL5HC8O","A11TREGDHSUSJW","3DFYDSXB2WMWAZWJRSN67LWQ0PPJUT","","","null","","","","","","","",""
"510.59999990463257","","image-keyboard-response","263","223230","0.0-192.0","33FBRBDW6PLDQ8HU5ZAHD8XSL5HC8O","A11TREGDHSUSJW","3DFYDSXB2WMWAZWJRSN67LWQ0PPJUT","","img/set1/S4.jpg","74","4","structured_incentive","74","true","structured_incentive,structured_normal,random","2,3,1,2","",""
"null","","html-keyboard-response","264","223582","0.0-193.0","33FBRBDW6PLDQ8HU5ZAHD8XSL5HC8O","A11TREGDHSUSJW","3DFYDSXB2WMWAZWJRSN67LWQ0PPJUT","","<img src=""img/set1/S4.jpg"" width=""540"" height = ""360"" style=""border:16px solid Violet"">","null","","","","","","","",""
"null","","html-keyboard-response","265","223585","0.0-194.0","33FBRBDW6PLDQ8HU5ZAHD8XSL5HC8O","A11TREGDHSUSJW","3DFYDSXB2WMWAZWJRSN67LWQ0PPJUT","","","null","","","","","","","",""
"452","","image-keyboard-response","266","224038","0.0-195.0","33FBRBDW6PLDQ8HU5ZAHD8XSL5HC8O","A11TREGDHSUSJW","3DFYDSXB2WMWAZWJRSN67LWQ0PPJUT","","img/set1/S4.jpg","74","4","structured_incentive","74","true","structured_incentive,structured_normal,random","2,3,1,2","",""
"null","","html-keyboard-response","267","224390","0.0-196.0","33FBRBDW6PLDQ8HU5ZAHD8XSL5HC8O","A11TREGDHSUSJW","3DFYDSXB2WMWAZWJRSN67LWQ0PPJUT","","<img src=""img/set1/S4.jpg"" width=""540"" height = ""360"" style=""border:16px solid Violet"">","null","","","","","","","",""
"null","","html-keyboard-response","268","224393","0.0-197.0","33FBRBDW6PLDQ8HU5ZAHD8XSL5HC8O","A11TREGDHSUSJW","3DFYDSXB2WMWAZWJRSN67LWQ0PPJUT","","","null","","","","","","","",""
"1540.7999999523163","","image-keyboard-response","269","225934","0.0-198.0","33FBRBDW6PLDQ8HU5ZAHD8XSL5HC8O","A11TREGDHSUSJW","3DFYDSXB2WMWAZWJRSN67LWQ0PPJUT","","img/set1/S2.jpg","68","2","structured_incentive","68","true","structured_incentive,structured_normal,random","2,3,1,2","",""
"null","","html-keyboard-response","270","226286","0.0-199.0","33FBRBDW6PLDQ8HU5ZAHD8XSL5HC8O","A11TREGDHSUSJW","3DFYDSXB2WMWAZWJRSN67LWQ0PPJUT","","<img src=""img/set1/S2.jpg"" width=""540"" height = ""360"" style=""border:16px solid orange"">","null","","","","","","","",""
"null","","html-keyboard-response","271","226288","0.0-200.0","33FBRBDW6PLDQ8HU5ZAHD8XSL5HC8O","A11TREGDHSUSJW","3DFYDSXB2WMWAZWJRSN67LWQ0PPJUT","","","null","","","","","","","",""
"613.5","","image-keyboard-response","272","226902","0.0-201.0","33FBRBDW6PLDQ8HU5ZAHD8XSL5HC8O","A11TREGDHSUSJW","3DFYDSXB2WMWAZWJRSN67LWQ0PPJUT","","img/set1/S4.jpg","74","4","structured_incentive","74","true","structured_incentive,structured_normal,random","2,3,1,2","",""
"null","","html-keyboard-response","273","227254","0.0-202.0","33FBRBDW6PLDQ8HU5ZAHD8XSL5HC8O","A11TREGDHSUSJW","3DFYDSXB2WMWAZWJRSN67LWQ0PPJUT","","<img src=""img/set1/S4.jpg"" width=""540"" height = ""360"" style=""border:16px solid Violet"">","null","","","","","","","",""
"null","","html-keyboard-response","274","227256","0.0-203.0","33FBRBDW6PLDQ8HU5ZAHD8XSL5HC8O","A11TREGDHSUSJW","3DFYDSXB2WMWAZWJRSN67LWQ0PPJUT","","","null","","","","","","","",""
"1446.7999999523163","","image-keyboard-response","275","228703","0.0-204.0","33FBRBDW6PLDQ8HU5ZAHD8XSL5HC8O","A11TREGDHSUSJW","3DFYDSXB2WMWAZWJRSN67LWQ0PPJUT","","img/set1/S4.jpg","74","4","structured_incentive","74","true","structured_incentive,structured_normal,random","2,3,1,2","",""
"null","","html-keyboard-response","276","229054","0.0-205.0","33FBRBDW6PLDQ8HU5ZAHD8XSL5HC8O","A11TREGDHSUSJW","3DFYDSXB2WMWAZWJRSN67LWQ0PPJUT","","<img src=""img/set1/S4.jpg"" width=""540"" height = ""360"" style=""border:16px solid Violet"">","null","","","","","","","",""
"null","","html-keyboard-response","277","229056","0.0-206.0","33FBRBDW6PLDQ8HU5ZAHD8XSL5HC8O","A11TREGDHSUSJW","3DFYDSXB2WMWAZWJRSN67LWQ0PPJUT","","","null","","","","","","","",""
"517.2000000476837","","image-keyboard-response","278","229574","0.0-207.0","33FBRBDW6PLDQ8HU5ZAHD8XSL5HC8O","A11TREGDHSUSJW","3DFYDSXB2WMWAZWJRSN67LWQ0PPJUT","","img/set1/S2.jpg","68","2","structured_incentive","68","true","structured_incentive,structured_normal,random","2,3,1,2","",""
"null","","html-keyboard-response","279","229925","0.0-208.0","33FBRBDW6PLDQ8HU5ZAHD8XSL5HC8O","A11TREGDHSUSJW","3DFYDSXB2WMWAZWJRSN67LWQ0PPJUT","","<img src=""img/set1/S2.jpg"" width=""540"" height = ""360"" style=""border:16px solid orange"">","null","","","","","","","",""
"null","","html-keyboard-response","280","229928","0.0-209.0","33FBRBDW6PLDQ8HU5ZAHD8XSL5HC8O","A11TREGDHSUSJW","3DFYDSXB2WMWAZWJRSN67LWQ0PPJUT","","","null","","","","","","","",""
"998.1000001430511","","image-keyboard-response","281","230927","0.0-210.0","33FBRBDW6PLDQ8HU5ZAHD8XSL5HC8O","A11TREGDHSUSJW","3DFYDSXB2WMWAZWJRSN67LWQ0PPJUT","","img/set1/S3.jpg","68","3","structured_incentive","72","false","structured_incentive,structured_normal,random","2,3,1,2","",""
"null","","html-keyboard-response","282","231278","0.0-211.0","33FBRBDW6PLDQ8HU5ZAHD8XSL5HC8O","A11TREGDHSUSJW","3DFYDSXB2WMWAZWJRSN67LWQ0PPJUT","","<img src=""img/set1/S3.jpg"" width=""540"" height = ""360"">","null","","","","","","","",""
"null","","html-keyboard-response","283","231280","0.0-212.0","33FBRBDW6PLDQ8HU5ZAHD8XSL5HC8O","A11TREGDHSUSJW","3DFYDSXB2WMWAZWJRSN67LWQ0PPJUT","","","null","","","","","","","",""
"612.9000000953674","","image-keyboard-response","284","231894","0.0-213.0","33FBRBDW6PLDQ8HU5ZAHD8XSL5HC8O","A11TREGDHSUSJW","3DFYDSXB2WMWAZWJRSN67LWQ0PPJUT","","img/set1/S4.jpg","74","4","structured_incentive","74","true","structured_incentive,structured_normal,random","2,3,1,2","",""
"null","","html-keyboard-response","285","232245","0.0-214.0","33FBRBDW6PLDQ8HU5ZAHD8XSL5HC8O","A11TREGDHSUSJW","3DFYDSXB2WMWAZWJRSN67LWQ0PPJUT","","<img src=""img/set1/S4.jpg"" width=""540"" height = ""360"" style=""border:16px solid Violet"">","null","","","","","","","",""
"null","","html-keyboard-response","286","232247","0.0-215.0","33FBRBDW6PLDQ8HU5ZAHD8XSL5HC8O","A11TREGDHSUSJW","3DFYDSXB2WMWAZWJRSN67LWQ0PPJUT","","","null","","","","","","","",""
"1030.2000000476837","","image-keyboard-response","287","233278","0.0-216.0","33FBRBDW6PLDQ8HU5ZAHD8XSL5HC8O","A11TREGDHSUSJW","3DFYDSXB2WMWAZWJRSN67LWQ0PPJUT","","img/set1/S2.jpg","83","2","structured_incentive","68","false","structured_incentive,structured_normal,random","2,3,1,2","",""
"null","","html-keyboard-response","288","233630","0.0-217.0","33FBRBDW6PLDQ8HU5ZAHD8XSL5HC8O","A11TREGDHSUSJW","3DFYDSXB2WMWAZWJRSN67LWQ0PPJUT","","<img src=""img/set1/S2.jpg"" width=""540"" height = ""360"">","null","","","","","","","",""
"null","","html-keyboard-response","289","233633","0.0-218.0","33FBRBDW6PLDQ8HU5ZAHD8XSL5HC8O","A11TREGDHSUSJW","3DFYDSXB2WMWAZWJRSN67LWQ0PPJUT","","","null","","","","","","","",""
"669.3999998569489","","image-keyboard-response","290","234303","0.0-219.0","33FBRBDW6PLDQ8HU5ZAHD8XSL5HC8O","A11TREGDHSUSJW","3DFYDSXB2WMWAZWJRSN67LWQ0PPJUT","","img/set1/S3.jpg","68","3","structured_incentive","72","false","structured_incentive,structured_normal,random","2,3,1,2","",""
"null","","html-keyboard-response","291","234654","0.0-220.0","33FBRBDW6PLDQ8HU5ZAHD8XSL5HC8O","A11TREGDHSUSJW","3DFYDSXB2WMWAZWJRSN67LWQ0PPJUT","","<img src=""img/set1/S3.jpg"" width=""540"" height = ""360"">","null","","","","","","","",""
"null","","html-keyboard-response","292","234656","0.0-221.0","33FBRBDW6PLDQ8HU5ZAHD8XSL5HC8O","A11TREGDHSUSJW","3DFYDSXB2WMWAZWJRSN67LWQ0PPJUT","","","null","","","","","","","",""
"741.2999999523163","","image-keyboard-response","293","235398","0.0-222.0","33FBRBDW6PLDQ8HU5ZAHD8XSL5HC8O","A11TREGDHSUSJW","3DFYDSXB2WMWAZWJRSN67LWQ0PPJUT","","img/set1/S1.jpg","83","1","structured_incentive","83","true","structured_incentive,structured_normal,random","2,3,1,2","",""
"null","","html-keyboard-response","294","235749","0.0-223.0","33FBRBDW6PLDQ8HU5ZAHD8XSL5HC8O","A11TREGDHSUSJW","3DFYDSXB2WMWAZWJRSN67LWQ0PPJUT","","<img src=""img/set1/S1.jpg"" width=""540"" height = ""360"" style=""border:16px solid orange"">","null","","","","","","","",""
"null","","html-keyboard-response","295","235752","0.0-224.0","33FBRBDW6PLDQ8HU5ZAHD8XSL5HC8O","A11TREGDHSUSJW","3DFYDSXB2WMWAZWJRSN67LWQ0PPJUT","","","null","","","","","","","",""
"773","","image-keyboard-response","296","236526","0.0-225.0","33FBRBDW6PLDQ8HU5ZAHD8XSL5HC8O","A11TREGDHSUSJW","3DFYDSXB2WMWAZWJRSN67LWQ0PPJUT","","img/set1/S2.jpg","74","2","structured_incentive","68","false","structured_incentive,structured_normal,random","2,3,1,2","",""
"null","","html-keyboard-response","297","236878","0.0-226.0","33FBRBDW6PLDQ8HU5ZAHD8XSL5HC8O","A11TREGDHSUSJW","3DFYDSXB2WMWAZWJRSN67LWQ0PPJUT","","<img src=""img/set1/S2.jpg"" width=""540"" height = ""360"">","null","","","","","","","",""
"null","","html-keyboard-response","298","236880","0.0-227.0","33FBRBDW6PLDQ8HU5ZAHD8XSL5HC8O","A11TREGDHSUSJW","3DFYDSXB2WMWAZWJRSN67LWQ0PPJUT","","","null","","","","","","","",""
"1157.6000001430511","","image-keyboard-response","299","238038","0.0-228.0","33FBRBDW6PLDQ8HU5ZAHD8XSL5HC8O","A11TREGDHSUSJW","3DFYDSXB2WMWAZWJRSN67LWQ0PPJUT","","img/set1/S3.jpg","68","3","structured_incentive","72","false","structured_incentive,structured_normal,random","2,3,1,2","",""
"null","","html-keyboard-response","300","238390","0.0-229.0","33FBRBDW6PLDQ8HU5ZAHD8XSL5HC8O","A11TREGDHSUSJW","3DFYDSXB2WMWAZWJRSN67LWQ0PPJUT","","<img src=""img/set1/S3.jpg"" width=""540"" height = ""360"">","null","","","","","","","",""
"null","","html-keyboard-response","301","238392","0.0-230.0","33FBRBDW6PLDQ8HU5ZAHD8XSL5HC8O","A11TREGDHSUSJW","3DFYDSXB2WMWAZWJRSN67LWQ0PPJUT","","","null","","","","","","","",""
"901.3999998569489","","image-keyboard-response","302","239294","0.0-231.0","33FBRBDW6PLDQ8HU5ZAHD8XSL5HC8O","A11TREGDHSUSJW","3DFYDSXB2WMWAZWJRSN67LWQ0PPJUT","","img/set1/S2.jpg","68","2","structured_incentive","68","true","structured_incentive,structured_normal,random","2,3,1,2","",""
"null","","html-keyboard-response","303","239645","0.0-232.0","33FBRBDW6PLDQ8HU5ZAHD8XSL5HC8O","A11TREGDHSUSJW","3DFYDSXB2WMWAZWJRSN67LWQ0PPJUT","","<img src=""img/set1/S2.jpg"" width=""540"" height = ""360"" style=""border:16px solid orange"">","null","","","","","","","",""
"null","","html-keyboard-response","304","239647","0.0-233.0","33FBRBDW6PLDQ8HU5ZAHD8XSL5HC8O","A11TREGDHSUSJW","3DFYDSXB2WMWAZWJRSN67LWQ0PPJUT","","","null","","","","","","","",""
"2126.100000143051","","image-keyboard-response","305","241774","0.0-234.0","33FBRBDW6PLDQ8HU5ZAHD8XSL5HC8O","A11TREGDHSUSJW","3DFYDSXB2WMWAZWJRSN67LWQ0PPJUT","","img/set1/S3.jpg","74","3","structured_incentive","72","false","structured_incentive,structured_normal,random","2,3,1,2","",""
"null","","html-keyboard-response","306","242127","0.0-235.0","33FBRBDW6PLDQ8HU5ZAHD8XSL5HC8O","A11TREGDHSUSJW","3DFYDSXB2WMWAZWJRSN67LWQ0PPJUT","","<img src=""img/set1/S3.jpg"" width=""540"" height = ""360"">","null","","","","","","","",""
"null","","html-keyboard-response","307","242129","0.0-236.0","33FBRBDW6PLDQ8HU5ZAHD8XSL5HC8O","A11TREGDHSUSJW","3DFYDSXB2WMWAZWJRSN67LWQ0PPJUT","","","null","","","","","","","",""
"613","","image-keyboard-response","308","242742","0.0-237.0","33FBRBDW6PLDQ8HU5ZAHD8XSL5HC8O","A11TREGDHSUSJW","3DFYDSXB2WMWAZWJRSN67LWQ0PPJUT","","img/set1/S4.jpg","74","4","structured_incentive","74","true","structured_incentive,structured_normal,random","2,3,1,2","",""
"null","","html-keyboard-response","309","243094","0.0-238.0","33FBRBDW6PLDQ8HU5ZAHD8XSL5HC8O","A11TREGDHSUSJW","3DFYDSXB2WMWAZWJRSN67LWQ0PPJUT","","<img src=""img/set1/S4.jpg"" width=""540"" height = ""360"" style=""border:16px solid Violet"">","null","","","","","","","",""
"null","","html-keyboard-response","310","243097","0.0-239.0","33FBRBDW6PLDQ8HU5ZAHD8XSL5HC8O","A11TREGDHSUSJW","3DFYDSXB2WMWAZWJRSN67LWQ0PPJUT","","","null","","","","","","","",""
"573.7999999523163","","image-keyboard-response","311","243671","0.0-240.0","33FBRBDW6PLDQ8HU5ZAHD8XSL5HC8O","A11TREGDHSUSJW","3DFYDSXB2WMWAZWJRSN67LWQ0PPJUT","","img/set1/S4.jpg","74","4","structured_incentive","74","true","structured_incentive,structured_normal,random","2,3,1,2","",""
"null","","html-keyboard-response","312","244023","0.0-241.0","33FBRBDW6PLDQ8HU5ZAHD8XSL5HC8O","A11TREGDHSUSJW","3DFYDSXB2WMWAZWJRSN67LWQ0PPJUT","","<img src=""img/set1/S4.jpg"" width=""540"" height = ""360"" style=""border:16px solid Violet"">","null","","","","","","","",""
"null","","html-keyboard-response","313","244027","0.0-242.0","33FBRBDW6PLDQ8HU5ZAHD8XSL5HC8O","A11TREGDHSUSJW","3DFYDSXB2WMWAZWJRSN67LWQ0PPJUT","","","null","","","","","","","",""
"546.3999998569489","","image-keyboard-response","314","244574","0.0-243.0","33FBRBDW6PLDQ8HU5ZAHD8XSL5HC8O","A11TREGDHSUSJW","3DFYDSXB2WMWAZWJRSN67LWQ0PPJUT","","img/set1/S2.jpg","83","2","structured_incentive","68","false","structured_incentive,structured_normal,random","2,3,1,2","",""
"null","","html-keyboard-response","315","244926","0.0-244.0","33FBRBDW6PLDQ8HU5ZAHD8XSL5HC8O","A11TREGDHSUSJW","3DFYDSXB2WMWAZWJRSN67LWQ0PPJUT","","<img src=""img/set1/S2.jpg"" width=""540"" height = ""360"">","null","","","","","","","",""
"null","","html-keyboard-response","316","244928","0.0-245.0","33FBRBDW6PLDQ8HU5ZAHD8XSL5HC8O","A11TREGDHSUSJW","3DFYDSXB2WMWAZWJRSN67LWQ0PPJUT","","","null","","","","","","","",""
"837.4000000953674","","image-keyboard-response","317","245766","0.0-246.0","33FBRBDW6PLDQ8HU5ZAHD8XSL5HC8O","A11TREGDHSUSJW","3DFYDSXB2WMWAZWJRSN67LWQ0PPJUT","","img/set1/S3.jpg","83","3","structured_incentive","72","false","structured_incentive,structured_normal,random","2,3,1,2","",""
"null","","html-keyboard-response","318","246117","0.0-247.0","33FBRBDW6PLDQ8HU5ZAHD8XSL5HC8O","A11TREGDHSUSJW","3DFYDSXB2WMWAZWJRSN67LWQ0PPJUT","","<img src=""img/set1/S3.jpg"" width=""540"" height = ""360"">","null","","","","","","","",""
"null","","html-keyboard-response","319","246120","0.0-248.0","33FBRBDW6PLDQ8HU5ZAHD8XSL5HC8O","A11TREGDHSUSJW","3DFYDSXB2WMWAZWJRSN67LWQ0PPJUT","","","null","","","","","","","",""
"837.2000000476837","","image-keyboard-response","320","246958","0.0-249.0","33FBRBDW6PLDQ8HU5ZAHD8XSL5HC8O","A11TREGDHSUSJW","3DFYDSXB2WMWAZWJRSN67LWQ0PPJUT","","img/set1/S1.jpg","83","1","structured_incentive","83","true","structured_incentive,structured_normal,random","2,3,1,2","",""
"null","","html-keyboard-response","321","247310","0.0-250.0","33FBRBDW6PLDQ8HU5ZAHD8XSL5HC8O","A11TREGDHSUSJW","3DFYDSXB2WMWAZWJRSN67LWQ0PPJUT","","<img src=""img/set1/S1.jpg"" width=""540"" height = ""360"" style=""border:16px solid orange"">","null","","","","","","","",""
"null","","html-keyboard-response","322","247313","0.0-251.0","33FBRBDW6PLDQ8HU5ZAHD8XSL5HC8O","A11TREGDHSUSJW","3DFYDSXB2WMWAZWJRSN67LWQ0PPJUT","","","null","","","","","","","",""
"964.6000001430511","","image-keyboard-response","323","248278","0.0-252.0","33FBRBDW6PLDQ8HU5ZAHD8XSL5HC8O","A11TREGDHSUSJW","3DFYDSXB2WMWAZWJRSN67LWQ0PPJUT","","img/set1/S2.jpg","68","2","structured_incentive","68","true","structured_incentive,structured_normal,random","2,3,1,2","",""
"null","","html-keyboard-response","324","248630","0.0-253.0","33FBRBDW6PLDQ8HU5ZAHD8XSL5HC8O","A11TREGDHSUSJW","3DFYDSXB2WMWAZWJRSN67LWQ0PPJUT","","<img src=""img/set1/S2.jpg"" width=""540"" height = ""360"" style=""border:16px solid orange"">","null","","","","","","","",""
"null","","html-keyboard-response","325","248632","0.0-254.0","33FBRBDW6PLDQ8HU5ZAHD8XSL5HC8O","A11TREGDHSUSJW","3DFYDSXB2WMWAZWJRSN67LWQ0PPJUT","","","null","","","","","","","",""
"2126.0999999046326","","image-keyboard-response","326","250758","0.0-255.0","33FBRBDW6PLDQ8HU5ZAHD8XSL5HC8O","A11TREGDHSUSJW","3DFYDSXB2WMWAZWJRSN67LWQ0PPJUT","","img/set1/S3.jpg","74","3","structured_incentive","72","false","structured_incentive,structured_normal,random","2,3,1,2","",""
"null","","html-keyboard-response","327","251110","0.0-256.0","33FBRBDW6PLDQ8HU5ZAHD8XSL5HC8O","A11TREGDHSUSJW","3DFYDSXB2WMWAZWJRSN67LWQ0PPJUT","","<img src=""img/set1/S3.jpg"" width=""540"" height = ""360"">","null","","","","","","","",""
"null","","html-keyboard-response","328","251112","0.0-257.0","33FBRBDW6PLDQ8HU5ZAHD8XSL5HC8O","A11TREGDHSUSJW","3DFYDSXB2WMWAZWJRSN67LWQ0PPJUT","","","null","","","","","","","",""
"605.5","","image-keyboard-response","329","251718","0.0-258.0","33FBRBDW6PLDQ8HU5ZAHD8XSL5HC8O","A11TREGDHSUSJW","3DFYDSXB2WMWAZWJRSN67LWQ0PPJUT","","img/set1/S3.jpg","83","3","structured_incentive","72","false","structured_incentive,structured_normal,random","2,3,1,2","",""
"null","","html-keyboard-response","330","252070","0.0-259.0","33FBRBDW6PLDQ8HU5ZAHD8XSL5HC8O","A11TREGDHSUSJW","3DFYDSXB2WMWAZWJRSN67LWQ0PPJUT","","<img src=""img/set1/S3.jpg"" width=""540"" height = ""360"">","null","","","","","","","",""
"null","","html-keyboard-response","331","252073","0.0-260.0","33FBRBDW6PLDQ8HU5ZAHD8XSL5HC8O","A11TREGDHSUSJW","3DFYDSXB2WMWAZWJRSN67LWQ0PPJUT","","","null","","","","","","","",""
"581.1000001430511","","image-keyboard-response","332","252655","0.0-261.0","33FBRBDW6PLDQ8HU5ZAHD8XSL5HC8O","A11TREGDHSUSJW","3DFYDSXB2WMWAZWJRSN67LWQ0PPJUT","","img/set1/S4.jpg","74","4","structured_incentive","74","true","structured_incentive,structured_normal,random","2,3,1,2","",""
"null","","html-keyboard-response","333","253006","0.0-262.0","33FBRBDW6PLDQ8HU5ZAHD8XSL5HC8O","A11TREGDHSUSJW","3DFYDSXB2WMWAZWJRSN67LWQ0PPJUT","","<img src=""img/set1/S4.jpg"" width=""540"" height = ""360"" style=""border:16px solid Violet"">","null","","","","","","","",""
"null","","html-keyboard-response","334","253008","0.0-263.0","33FBRBDW6PLDQ8HU5ZAHD8XSL5HC8O","A11TREGDHSUSJW","3DFYDSXB2WMWAZWJRSN67LWQ0PPJUT","","","null","","","","","","","",""
"774.2999999523163","","image-keyboard-response","335","253783","0.0-264.0","33FBRBDW6PLDQ8HU5ZAHD8XSL5HC8O","A11TREGDHSUSJW","3DFYDSXB2WMWAZWJRSN67LWQ0PPJUT","","img/set1/S1.jpg","83","1","structured_incentive","83","true","structured_incentive,structured_normal,random","2,3,1,2","",""
"null","","html-keyboard-response","336","254135","0.0-265.0","33FBRBDW6PLDQ8HU5ZAHD8XSL5HC8O","A11TREGDHSUSJW","3DFYDSXB2WMWAZWJRSN67LWQ0PPJUT","","<img src=""img/set1/S1.jpg"" width=""540"" height = ""360"" style=""border:16px solid orange"">","null","","","","","","","",""
"null","","html-keyboard-response","337","254136","0.0-266.0","33FBRBDW6PLDQ8HU5ZAHD8XSL5HC8O","A11TREGDHSUSJW","3DFYDSXB2WMWAZWJRSN67LWQ0PPJUT","","","null","","","","","","","",""
"1061.1000001430511","","image-keyboard-response","338","255198","0.0-267.0","33FBRBDW6PLDQ8HU5ZAHD8XSL5HC8O","A11TREGDHSUSJW","3DFYDSXB2WMWAZWJRSN67LWQ0PPJUT","","img/set1/S4.jpg","74","4","structured_incentive","74","true","structured_incentive,structured_normal,random","2,3,1,2","",""
"null","","html-keyboard-response","339","255549","0.0-268.0","33FBRBDW6PLDQ8HU5ZAHD8XSL5HC8O","A11TREGDHSUSJW","3DFYDSXB2WMWAZWJRSN67LWQ0PPJUT","","<img src=""img/set1/S4.jpg"" width=""540"" height = ""360"" style=""border:16px solid Violet"">","null","","","","","","","",""
"null","","html-keyboard-response","340","255552","0.0-269.0","33FBRBDW6PLDQ8HU5ZAHD8XSL5HC8O","A11TREGDHSUSJW","3DFYDSXB2WMWAZWJRSN67LWQ0PPJUT","","","null","","","","","","","",""
"1317.5999999046326","","image-keyboard-response","341","256870","0.0-270.0","33FBRBDW6PLDQ8HU5ZAHD8XSL5HC8O","A11TREGDHSUSJW","3DFYDSXB2WMWAZWJRSN67LWQ0PPJUT","","img/set1/S2.jpg","83","2","structured_incentive","68","false","structured_incentive,structured_normal,random","2,3,1,2","",""
"null","","html-keyboard-response","342","257222","0.0-271.0","33FBRBDW6PLDQ8HU5ZAHD8XSL5HC8O","A11TREGDHSUSJW","3DFYDSXB2WMWAZWJRSN67LWQ0PPJUT","","<img src=""img/set1/S2.jpg"" width=""540"" height = ""360"">","null","","","","","","","",""
"null","","html-keyboard-response","343","257224","0.0-272.0","33FBRBDW6PLDQ8HU5ZAHD8XSL5HC8O","A11TREGDHSUSJW","3DFYDSXB2WMWAZWJRSN67LWQ0PPJUT","","","null","","","","","","","",""
"61.200000047683716","","image-keyboard-response","344","257286","0.0-273.0","33FBRBDW6PLDQ8HU5ZAHD8XSL5HC8O","A11TREGDHSUSJW","3DFYDSXB2WMWAZWJRSN67LWQ0PPJUT","","img/set1/S3.jpg","68","3","structured_incentive","72","false","structured_incentive,structured_normal,random","2,3,1,2","",""
"null","","html-keyboard-response","345","257638","0.0-274.0","33FBRBDW6PLDQ8HU5ZAHD8XSL5HC8O","A11TREGDHSUSJW","3DFYDSXB2WMWAZWJRSN67LWQ0PPJUT","","<img src=""img/set1/S3.jpg"" width=""540"" height = ""360"">","null","","","","","","","",""
"null","","html-keyboard-response","346","257640","0.0-275.0","33FBRBDW6PLDQ8HU5ZAHD8XSL5HC8O","A11TREGDHSUSJW","3DFYDSXB2WMWAZWJRSN67LWQ0PPJUT","","","null","","","","","","","",""
"677.5","","image-keyboard-response","347","258318","0.0-276.0","33FBRBDW6PLDQ8HU5ZAHD8XSL5HC8O","A11TREGDHSUSJW","3DFYDSXB2WMWAZWJRSN67LWQ0PPJUT","","img/set1/S4.jpg","74","4","structured_incentive","74","true","structured_incentive,structured_normal,random","2,3,1,2","",""
"null","","html-keyboard-response","348","258670","0.0-277.0","33FBRBDW6PLDQ8HU5ZAHD8XSL5HC8O","A11TREGDHSUSJW","3DFYDSXB2WMWAZWJRSN67LWQ0PPJUT","","<img src=""img/set1/S4.jpg"" width=""540"" height = ""360"" style=""border:16px solid Violet"">","null","","","","","","","",""
"null","","html-keyboard-response","349","258672","0.0-278.0","33FBRBDW6PLDQ8HU5ZAHD8XSL5HC8O","A11TREGDHSUSJW","3DFYDSXB2WMWAZWJRSN67LWQ0PPJUT","","","null","","","","","","","",""
"805.7000000476837","","image-keyboard-response","350","259478","0.0-279.0","33FBRBDW6PLDQ8HU5ZAHD8XSL5HC8O","A11TREGDHSUSJW","3DFYDSXB2WMWAZWJRSN67LWQ0PPJUT","","img/set1/S3.jpg","68","3","structured_incentive","72","false","structured_incentive,structured_normal,random","2,3,1,2","",""
"null","","html-keyboard-response","351","259829","0.0-280.0","33FBRBDW6PLDQ8HU5ZAHD8XSL5HC8O","A11TREGDHSUSJW","3DFYDSXB2WMWAZWJRSN67LWQ0PPJUT","","<img src=""img/set1/S3.jpg"" width=""540"" height = ""360"">","null","","","","","","","",""
"null","","html-keyboard-response","352","259831","0.0-281.0","33FBRBDW6PLDQ8HU5ZAHD8XSL5HC8O","A11TREGDHSUSJW","3DFYDSXB2WMWAZWJRSN67LWQ0PPJUT","","","null","","","","","","","",""
"582.2000000476837","","image-keyboard-response","353","260414","0.0-282.0","33FBRBDW6PLDQ8HU5ZAHD8XSL5HC8O","A11TREGDHSUSJW","3DFYDSXB2WMWAZWJRSN67LWQ0PPJUT","","img/set1/S4.jpg","74","4","structured_incentive","74","true","structured_incentive,structured_normal,random","2,3,1,2","",""
"null","","html-keyboard-response","354","260765","0.0-283.0","33FBRBDW6PLDQ8HU5ZAHD8XSL5HC8O","A11TREGDHSUSJW","3DFYDSXB2WMWAZWJRSN67LWQ0PPJUT","","<img src=""img/set1/S4.jpg"" width=""540"" height = ""360"" style=""border:16px solid Violet"">","null","","","","","","","",""
"null","","html-keyboard-response","355","260769","0.0-284.0","33FBRBDW6PLDQ8HU5ZAHD8XSL5HC8O","A11TREGDHSUSJW","3DFYDSXB2WMWAZWJRSN67LWQ0PPJUT","","","null","","","","","","","",""
"765.6000001430511","","image-keyboard-response","356","261535","0.0-285.0","33FBRBDW6PLDQ8HU5ZAHD8XSL5HC8O","A11TREGDHSUSJW","3DFYDSXB2WMWAZWJRSN67LWQ0PPJUT","","img/set1/S2.jpg","68","2","structured_incentive","68","true","structured_incentive,structured_normal,random","2,3,1,2","",""
"null","","html-keyboard-response","357","261896","0.0-286.0","33FBRBDW6PLDQ8HU5ZAHD8XSL5HC8O","A11TREGDHSUSJW","3DFYDSXB2WMWAZWJRSN67LWQ0PPJUT","","<img src=""img/set1/S2.jpg"" width=""540"" height = ""360"" style=""border:16px solid orange"">","null","","","","","","","",""
"null","","html-keyboard-response","358","261898","0.0-287.0","33FBRBDW6PLDQ8HU5ZAHD8XSL5HC8O","A11TREGDHSUSJW","3DFYDSXB2WMWAZWJRSN67LWQ0PPJUT","","","null","","","","","","","",""
"955.7999999523163","","image-keyboard-response","359","262854","0.0-288.0","33FBRBDW6PLDQ8HU5ZAHD8XSL5HC8O","A11TREGDHSUSJW","3DFYDSXB2WMWAZWJRSN67LWQ0PPJUT","","img/set1/S3.jpg","83","3","structured_incentive","72","false","structured_incentive,structured_normal,random","2,3,1,2","",""
"null","","html-keyboard-response","360","263206","0.0-289.0","33FBRBDW6PLDQ8HU5ZAHD8XSL5HC8O","A11TREGDHSUSJW","3DFYDSXB2WMWAZWJRSN67LWQ0PPJUT","","<img src=""img/set1/S3.jpg"" width=""540"" height = ""360"">","null","","","","","","","",""
"null","","html-keyboard-response","361","263209","0.0-290.0","33FBRBDW6PLDQ8HU5ZAHD8XSL5HC8O","A11TREGDHSUSJW","3DFYDSXB2WMWAZWJRSN67LWQ0PPJUT","","","null","","","","","","","",""
"1516.2000000476837","","image-keyboard-response","362","264726","0.0-291.0","33FBRBDW6PLDQ8HU5ZAHD8XSL5HC8O","A11TREGDHSUSJW","3DFYDSXB2WMWAZWJRSN67LWQ0PPJUT","","img/set1/S1.jpg","68","1","structured_incentive","83","false","structured_incentive,structured_normal,random","2,3,1,2","",""
"null","","html-keyboard-response","363","265078","0.0-292.0","33FBRBDW6PLDQ8HU5ZAHD8XSL5HC8O","A11TREGDHSUSJW","3DFYDSXB2WMWAZWJRSN67LWQ0PPJUT","","<img src=""img/set1/S1.jpg"" width=""540"" height = ""360"">","null","","","","","","","",""
"null","","html-keyboard-response","364","265080","0.0-293.0","33FBRBDW6PLDQ8HU5ZAHD8XSL5HC8O","A11TREGDHSUSJW","3DFYDSXB2WMWAZWJRSN67LWQ0PPJUT","","","null","","","","","","","",""
"157.5","","image-keyboard-response","365","265238","0.0-294.0","33FBRBDW6PLDQ8HU5ZAHD8XSL5HC8O","A11TREGDHSUSJW","3DFYDSXB2WMWAZWJRSN67LWQ0PPJUT","","img/set1/S2.jpg","83","2","structured_incentive","68","false","structured_incentive,structured_normal,random","2,3,1,2","",""
"null","","html-keyboard-response","366","265590","0.0-295.0","33FBRBDW6PLDQ8HU5ZAHD8XSL5HC8O","A11TREGDHSUSJW","3DFYDSXB2WMWAZWJRSN67LWQ0PPJUT","","<img src=""img/set1/S2.jpg"" width=""540"" height = ""360"">","null","","","","","","","",""
"null","","html-keyboard-response","367","265593","0.0-296.0","33FBRBDW6PLDQ8HU5ZAHD8XSL5HC8O","A11TREGDHSUSJW","3DFYDSXB2WMWAZWJRSN67LWQ0PPJUT","","","null","","","","","","","",""
"1349.6999998092651","","image-keyboard-response","368","266943","0.0-297.0","33FBRBDW6PLDQ8HU5ZAHD8XSL5HC8O","A11TREGDHSUSJW","3DFYDSXB2WMWAZWJRSN67LWQ0PPJUT","","img/set1/S3.jpg","83","3","structured_incentive","72","false","structured_incentive,structured_normal,random","2,3,1,2","",""
"null","","html-keyboard-response","369","267294","0.0-298.0","33FBRBDW6PLDQ8HU5ZAHD8XSL5HC8O","A11TREGDHSUSJW","3DFYDSXB2WMWAZWJRSN67LWQ0PPJUT","","<img src=""img/set1/S3.jpg"" width=""540"" height = ""360"">","null","","","","","","","",""
"null","","html-keyboard-response","370","267296","0.0-299.0","33FBRBDW6PLDQ8HU5ZAHD8XSL5HC8O","A11TREGDHSUSJW","3DFYDSXB2WMWAZWJRSN67LWQ0PPJUT","","","null","","","","","","","",""
"709.5","","image-keyboard-response","371","268006","0.0-300.0","33FBRBDW6PLDQ8HU5ZAHD8XSL5HC8O","A11TREGDHSUSJW","3DFYDSXB2WMWAZWJRSN67LWQ0PPJUT","","img/set1/S1.jpg","83","1","structured_incentive","83","true","structured_incentive,structured_normal,random","2,3,1,2","",""
"null","","html-keyboard-response","372","268357","0.0-301.0","33FBRBDW6PLDQ8HU5ZAHD8XSL5HC8O","A11TREGDHSUSJW","3DFYDSXB2WMWAZWJRSN67LWQ0PPJUT","","<img src=""img/set1/S1.jpg"" width=""540"" height = ""360"" style=""border:16px solid orange"">","null","","","","","","","",""
"null","","html-keyboard-response","373","268359","0.0-302.0","33FBRBDW6PLDQ8HU5ZAHD8XSL5HC8O","A11TREGDHSUSJW","3DFYDSXB2WMWAZWJRSN67LWQ0PPJUT","","","null","","","","","","","",""
"583.2000000476837","","image-keyboard-response","374","268943","0.0-303.0","33FBRBDW6PLDQ8HU5ZAHD8XSL5HC8O","A11TREGDHSUSJW","3DFYDSXB2WMWAZWJRSN67LWQ0PPJUT","","img/set1/S4.jpg","74","4","structured_incentive","74","true","structured_incentive,structured_normal,random","2,3,1,2","",""
"null","","html-keyboard-response","375","269295","0.0-304.0","33FBRBDW6PLDQ8HU5ZAHD8XSL5HC8O","A11TREGDHSUSJW","3DFYDSXB2WMWAZWJRSN67LWQ0PPJUT","","<img src=""img/set1/S4.jpg"" width=""540"" height = ""360"" style=""border:16px solid Violet"">","null","","","","","","","",""
"null","","html-keyboard-response","376","269297","0.0-305.0","33FBRBDW6PLDQ8HU5ZAHD8XSL5HC8O","A11TREGDHSUSJW","3DFYDSXB2WMWAZWJRSN67LWQ0PPJUT","","","null","","","","","","","",""
"1764.1000001430511","","image-keyboard-response","377","271062","0.0-306.0","33FBRBDW6PLDQ8HU5ZAHD8XSL5HC8O","A11TREGDHSUSJW","3DFYDSXB2WMWAZWJRSN67LWQ0PPJUT","","img/set1/S2.jpg","68","2","structured_incentive","68","true","structured_incentive,structured_normal,random","2,3,1,2","",""
"null","","html-keyboard-response","378","271414","0.0-307.0","33FBRBDW6PLDQ8HU5ZAHD8XSL5HC8O","A11TREGDHSUSJW","3DFYDSXB2WMWAZWJRSN67LWQ0PPJUT","","<img src=""img/set1/S2.jpg"" width=""540"" height = ""360"" style=""border:16px solid orange"">","null","","","","","","","",""
"null","","html-keyboard-response","379","271416","0.0-308.0","33FBRBDW6PLDQ8HU5ZAHD8XSL5HC8O","A11TREGDHSUSJW","3DFYDSXB2WMWAZWJRSN67LWQ0PPJUT","","","null","","","","","","","",""
"2413.4000000953674","","image-keyboard-response","380","273830","0.0-309.0","33FBRBDW6PLDQ8HU5ZAHD8XSL5HC8O","A11TREGDHSUSJW","3DFYDSXB2WMWAZWJRSN67LWQ0PPJUT","","img/set1/S3.jpg","74","3","structured_incentive","72","false","structured_incentive,structured_normal,random","2,3,1,2","",""
"null","","html-keyboard-response","381","274181","0.0-310.0","33FBRBDW6PLDQ8HU5ZAHD8XSL5HC8O","A11TREGDHSUSJW","3DFYDSXB2WMWAZWJRSN67LWQ0PPJUT","","<img src=""img/set1/S3.jpg"" width=""540"" height = ""360"">","null","","","","","","","",""
"null","","html-keyboard-response","382","274183","0.0-311.0","33FBRBDW6PLDQ8HU5ZAHD8XSL5HC8O","A11TREGDHSUSJW","3DFYDSXB2WMWAZWJRSN67LWQ0PPJUT","","","null","","","","","","","",""
"614.5999999046326","","image-keyboard-response","383","274798","0.0-312.0","33FBRBDW6PLDQ8HU5ZAHD8XSL5HC8O","A11TREGDHSUSJW","3DFYDSXB2WMWAZWJRSN67LWQ0PPJUT","","img/set1/S4.jpg","74","4","structured_incentive","74","true","structured_incentive,structured_normal,random","2,3,1,2","",""
"null","","html-keyboard-response","384","275150","0.0-313.0","33FBRBDW6PLDQ8HU5ZAHD8XSL5HC8O","A11TREGDHSUSJW","3DFYDSXB2WMWAZWJRSN67LWQ0PPJUT","","<img src=""img/set1/S4.jpg"" width=""540"" height = ""360"" style=""border:16px solid Violet"">","null","","","","","","","",""
"null","","html-keyboard-response","385","275152","0.0-314.0","33FBRBDW6PLDQ8HU5ZAHD8XSL5HC8O","A11TREGDHSUSJW","3DFYDSXB2WMWAZWJRSN67LWQ0PPJUT","","","null","","","","","","","",""
"669.7000000476837","","image-keyboard-response","386","275822","0.0-315.0","33FBRBDW6PLDQ8HU5ZAHD8XSL5HC8O","A11TREGDHSUSJW","3DFYDSXB2WMWAZWJRSN67LWQ0PPJUT","","img/set1/S2.jpg","68","2","structured_incentive","68","true","structured_incentive,structured_normal,random","2,3,1,2","",""
"null","","html-keyboard-response","387","276173","0.0-316.0","33FBRBDW6PLDQ8HU5ZAHD8XSL5HC8O","A11TREGDHSUSJW","3DFYDSXB2WMWAZWJRSN67LWQ0PPJUT","","<img src=""img/set1/S2.jpg"" width=""540"" height = ""360"" style=""border:16px solid orange"">","null","","","","","","","",""
"null","","html-keyboard-response","388","276175","0.0-317.0","33FBRBDW6PLDQ8HU5ZAHD8XSL5HC8O","A11TREGDHSUSJW","3DFYDSXB2WMWAZWJRSN67LWQ0PPJUT","","","null","","","","","","","",""
"775","","image-keyboard-response","389","276951","0.0-318.0","33FBRBDW6PLDQ8HU5ZAHD8XSL5HC8O","A11TREGDHSUSJW","3DFYDSXB2WMWAZWJRSN67LWQ0PPJUT","","img/set1/S3.jpg","68","3","structured_incentive","72","false","structured_incentive,structured_normal,random","2,3,1,2","",""
"null","","html-keyboard-response","390","277302","0.0-319.0","33FBRBDW6PLDQ8HU5ZAHD8XSL5HC8O","A11TREGDHSUSJW","3DFYDSXB2WMWAZWJRSN67LWQ0PPJUT","","<img src=""img/set1/S3.jpg"" width=""540"" height = ""360"">","null","","","","","","","",""
"null","","html-keyboard-response","391","277304","0.0-320.0","33FBRBDW6PLDQ8HU5ZAHD8XSL5HC8O","A11TREGDHSUSJW","3DFYDSXB2WMWAZWJRSN67LWQ0PPJUT","","","null","","","","","","","",""
"678.2000000476837","","image-keyboard-response","392","277983","0.0-321.0","33FBRBDW6PLDQ8HU5ZAHD8XSL5HC8O","A11TREGDHSUSJW","3DFYDSXB2WMWAZWJRSN67LWQ0PPJUT","","img/set1/S4.jpg","74","4","structured_incentive","74","true","structured_incentive,structured_normal,random","2,3,1,2","",""
"null","","html-keyboard-response","393","278334","0.0-322.0","33FBRBDW6PLDQ8HU5ZAHD8XSL5HC8O","A11TREGDHSUSJW","3DFYDSXB2WMWAZWJRSN67LWQ0PPJUT","","<img src=""img/set1/S4.jpg"" width=""540"" height = ""360"" style=""border:16px solid Violet"">","null","","","","","","","",""
"null","","html-keyboard-response","394","278336","0.0-323.0","33FBRBDW6PLDQ8HU5ZAHD8XSL5HC8O","A11TREGDHSUSJW","3DFYDSXB2WMWAZWJRSN67LWQ0PPJUT","","","null","","","","","","","",""
"645.3999998569489","","image-keyboard-response","395","278982","0.0-324.0","33FBRBDW6PLDQ8HU5ZAHD8XSL5HC8O","A11TREGDHSUSJW","3DFYDSXB2WMWAZWJRSN67LWQ0PPJUT","","img/set1/S1.jpg","83","1","structured_incentive","83","true","structured_incentive,structured_normal,random","2,3,1,2","",""
"null","","html-keyboard-response","396","279333","0.0-325.0","33FBRBDW6PLDQ8HU5ZAHD8XSL5HC8O","A11TREGDHSUSJW","3DFYDSXB2WMWAZWJRSN67LWQ0PPJUT","","<img src=""img/set1/S1.jpg"" width=""540"" height = ""360"" style=""border:16px solid orange"">","null","","","","","","","",""
"null","","html-keyboard-response","397","279336","0.0-326.0","33FBRBDW6PLDQ8HU5ZAHD8XSL5HC8O","A11TREGDHSUSJW","3DFYDSXB2WMWAZWJRSN67LWQ0PPJUT","","","null","","","","","","","",""
"933.0999999046326","","image-keyboard-response","398","280270","0.0-327.0","33FBRBDW6PLDQ8HU5ZAHD8XSL5HC8O","A11TREGDHSUSJW","3DFYDSXB2WMWAZWJRSN67LWQ0PPJUT","","img/set1/S2.jpg","68","2","structured_incentive","68","true","structured_incentive,structured_normal,random","2,3,1,2","",""
"null","","html-keyboard-response","399","280621","0.0-328.0","33FBRBDW6PLDQ8HU5ZAHD8XSL5HC8O","A11TREGDHSUSJW","3DFYDSXB2WMWAZWJRSN67LWQ0PPJUT","","<img src=""img/set1/S2.jpg"" width=""540"" height = ""360"" style=""border:16px solid orange"">","null","","","","","","","",""
"null","","html-keyboard-response","400","280624","0.0-329.0","33FBRBDW6PLDQ8HU5ZAHD8XSL5HC8O","A11TREGDHSUSJW","3DFYDSXB2WMWAZWJRSN67LWQ0PPJUT","","","null","","","","","","","",""
"637.8999998569489","","image-keyboard-response","401","281263","0.0-330.0","33FBRBDW6PLDQ8HU5ZAHD8XSL5HC8O","A11TREGDHSUSJW","3DFYDSXB2WMWAZWJRSN67LWQ0PPJUT","","img/set1/S4.jpg","74","4","structured_incentive","74","true","structured_incentive,structured_normal,random","2,3,1,2","",""
"null","","html-keyboard-response","402","281614","0.0-331.0","33FBRBDW6PLDQ8HU5ZAHD8XSL5HC8O","A11TREGDHSUSJW","3DFYDSXB2WMWAZWJRSN67LWQ0PPJUT","","<img src=""img/set1/S4.jpg"" width=""540"" height = ""360"" style=""border:16px solid Violet"">","null","","","","","","","",""
"null","","html-keyboard-response","403","281616","0.0-332.0","33FBRBDW6PLDQ8HU5ZAHD8XSL5HC8O","A11TREGDHSUSJW","3DFYDSXB2WMWAZWJRSN67LWQ0PPJUT","","","null","","","","","","","",""
"486.5","","image-keyboard-response","404","282103","0.0-333.0","33FBRBDW6PLDQ8HU5ZAHD8XSL5HC8O","A11TREGDHSUSJW","3DFYDSXB2WMWAZWJRSN67LWQ0PPJUT","","img/set1/S4.jpg","74","4","structured_incentive","74","true","structured_incentive,structured_normal,random","2,3,1,2","",""
"null","","html-keyboard-response","405","282455","0.0-334.0","33FBRBDW6PLDQ8HU5ZAHD8XSL5HC8O","A11TREGDHSUSJW","3DFYDSXB2WMWAZWJRSN67LWQ0PPJUT","","<img src=""img/set1/S4.jpg"" width=""540"" height = ""360"" style=""border:16px solid Violet"">","null","","","","","","","",""
"null","","html-keyboard-response","406","282457","0.0-335.0","33FBRBDW6PLDQ8HU5ZAHD8XSL5HC8O","A11TREGDHSUSJW","3DFYDSXB2WMWAZWJRSN67LWQ0PPJUT","","","null","","","","","","","",""
"836.7000000476837","","image-keyboard-response","407","283294","0.0-336.0","33FBRBDW6PLDQ8HU5ZAHD8XSL5HC8O","A11TREGDHSUSJW","3DFYDSXB2WMWAZWJRSN67LWQ0PPJUT","","img/set1/S3.jpg","83","3","structured_incentive","72","false","structured_incentive,structured_normal,random","2,3,1,2","",""
"null","","html-keyboard-response","408","283645","0.0-337.0","33FBRBDW6PLDQ8HU5ZAHD8XSL5HC8O","A11TREGDHSUSJW","3DFYDSXB2WMWAZWJRSN67LWQ0PPJUT","","<img src=""img/set1/S3.jpg"" width=""540"" height = ""360"">","null","","","","","","","",""
"null","","html-keyboard-response","409","283647","0.0-338.0","33FBRBDW6PLDQ8HU5ZAHD8XSL5HC8O","A11TREGDHSUSJW","3DFYDSXB2WMWAZWJRSN67LWQ0PPJUT","","","null","","","","","","","",""
"670.2999999523163","","image-keyboard-response","410","284318","0.0-339.0","33FBRBDW6PLDQ8HU5ZAHD8XSL5HC8O","A11TREGDHSUSJW","3DFYDSXB2WMWAZWJRSN67LWQ0PPJUT","","img/set1/S2.jpg","68","2","structured_incentive","68","true","structured_incentive,structured_normal,random","2,3,1,2","",""
"null","","html-keyboard-response","411","284669","0.0-340.0","33FBRBDW6PLDQ8HU5ZAHD8XSL5HC8O","A11TREGDHSUSJW","3DFYDSXB2WMWAZWJRSN67LWQ0PPJUT","","<img src=""img/set1/S2.jpg"" width=""540"" height = ""360"" style=""border:16px solid orange"">","null","","","","","","","",""
"null","","html-keyboard-response","412","284671","0.0-341.0","33FBRBDW6PLDQ8HU5ZAHD8XSL5HC8O","A11TREGDHSUSJW","3DFYDSXB2WMWAZWJRSN67LWQ0PPJUT","","","null","","","","","","","",""
"1998","","image-keyboard-response","413","286670","0.0-342.0","33FBRBDW6PLDQ8HU5ZAHD8XSL5HC8O","A11TREGDHSUSJW","3DFYDSXB2WMWAZWJRSN67LWQ0PPJUT","","img/set1/S3.jpg","74","3","structured_incentive","72","false","structured_incentive,structured_normal,random","2,3,1,2","",""
"null","","html-keyboard-response","414","287022","0.0-343.0","33FBRBDW6PLDQ8HU5ZAHD8XSL5HC8O","A11TREGDHSUSJW","3DFYDSXB2WMWAZWJRSN67LWQ0PPJUT","","<img src=""img/set1/S3.jpg"" width=""540"" height = ""360"">","null","","","","","","","",""
