"rt","url","trial_type","trial_index","time_elapsed","internal_node_id","assignmentID","mturkID","hitID","view_history","stimulus","key_press","state","test_part","correct_response","correct","order_block","order_chunk","bonus","responses"
"4640","consent.html","external-html","0","4826","0.0-0.0","3RSDURM96B872CSQEUE629LXZVEYEW","A11YS0T8MV3Q7C","39N6W9XWRD9306QNTNZSDTAN4LJGYK","","","","","","","","","","",""
"172543","","instructions","1","177374","0.0-1.0","3RSDURM96B872CSQEUE629LXZVEYEW","A11YS0T8MV3Q7C","39N6W9XWRD9306QNTNZSDTAN4LJGYK","[{""page_index"":0,""viewing_time"":3259},{""page_index"":1,""viewing_time"":23985},{""page_index"":2,""viewing_time"":81193},{""page_index"":3,""viewing_time"":7374},{""page_index"":4,""viewing_time"":5750},{""page_index"":5,""viewing_time"":11368},{""page_index"":6,""viewing_time"":9686},{""page_index"":7,""viewing_time"":29928}]","","","","","","","","","",""
"1125","","image-keyboard-response","2","178504","0.0-2.0-0.0","3RSDURM96B872CSQEUE629LXZVEYEW","A11YS0T8MV3Q7C","39N6W9XWRD9306QNTNZSDTAN4LJGYK","","img/practice/S1.jpg","83","1","practice","83","true","","","",""
"null","","html-keyboard-response","3","178811","0.0-2.0-1.0","3RSDURM96B872CSQEUE629LXZVEYEW","A11YS0T8MV3Q7C","39N6W9XWRD9306QNTNZSDTAN4LJGYK","","<img src=""img/practice/S1.jpg"" width=""540"" height = ""360"" style=""border:16px solid orange"">","null","","","","","","","",""
"null","","html-keyboard-response","4","178815","0.0-2.0-2.0","3RSDURM96B872CSQEUE629LXZVEYEW","A11YS0T8MV3Q7C","39N6W9XWRD9306QNTNZSDTAN4LJGYK","","","null","","","","","","","",""
"1219","","image-keyboard-response","5","180039","0.0-2.0-0.1","3RSDURM96B872CSQEUE629LXZVEYEW","A11YS0T8MV3Q7C","39N6W9XWRD9306QNTNZSDTAN4LJGYK","","img/practice/S3.jpg","83","3","practice","72","false","","","",""
"null","","html-keyboard-response","6","180340","0.0-2.0-1.1","3RSDURM96B872CSQEUE629LXZVEYEW","A11YS0T8MV3Q7C","39N6W9XWRD9306QNTNZSDTAN4LJGYK","","<img src=""img/practice/S3.jpg"" width=""540"" height = ""360"">","null","","","","","","","",""
"null","","html-keyboard-response","7","180343","0.0-2.0-2.1","3RSDURM96B872CSQEUE629LXZVEYEW","A11YS0T8MV3Q7C","39N6W9XWRD9306QNTNZSDTAN4LJGYK","","","null","","","","","","","",""
"1116","","image-keyboard-response","8","181462","0.0-2.0-0.2","3RSDURM96B872CSQEUE629LXZVEYEW","A11YS0T8MV3Q7C","39N6W9XWRD9306QNTNZSDTAN4LJGYK","","img/practice/S4.jpg","68","4","practice","74","false","","","",""
"null","","html-keyboard-response","9","181771","0.0-2.0-1.2","3RSDURM96B872CSQEUE629LXZVEYEW","A11YS0T8MV3Q7C","39N6W9XWRD9306QNTNZSDTAN4LJGYK","","<img src=""img/practice/S4.jpg"" width=""540"" height = ""360"">","null","","","","","","","",""
"null","","html-keyboard-response","10","181773","0.0-2.0-2.2","3RSDURM96B872CSQEUE629LXZVEYEW","A11YS0T8MV3Q7C","39N6W9XWRD9306QNTNZSDTAN4LJGYK","","","null","","","","","","","",""
"968","","image-keyboard-response","11","182743","0.0-2.0-0.3","3RSDURM96B872CSQEUE629LXZVEYEW","A11YS0T8MV3Q7C","39N6W9XWRD9306QNTNZSDTAN4LJGYK","","img/practice/S2.jpg","72","2","practice","68","false","","","",""
"null","","html-keyboard-response","12","183051","0.0-2.0-1.3","3RSDURM96B872CSQEUE629LXZVEYEW","A11YS0T8MV3Q7C","39N6W9XWRD9306QNTNZSDTAN4LJGYK","","<img src=""img/practice/S2.jpg"" width=""540"" height = ""360"">","null","","","","","","","",""
"null","","html-keyboard-response","13","183053","0.0-2.0-2.3","3RSDURM96B872CSQEUE629LXZVEYEW","A11YS0T8MV3Q7C","39N6W9XWRD9306QNTNZSDTAN4LJGYK","","","null","","","","","","","",""
"887","","image-keyboard-response","14","183943","0.0-2.0-0.4","3RSDURM96B872CSQEUE629LXZVEYEW","A11YS0T8MV3Q7C","39N6W9XWRD9306QNTNZSDTAN4LJGYK","","img/practice/S3.jpg","83","3","practice","72","false","","","",""
"null","","html-keyboard-response","15","184252","0.0-2.0-1.4","3RSDURM96B872CSQEUE629LXZVEYEW","A11YS0T8MV3Q7C","39N6W9XWRD9306QNTNZSDTAN4LJGYK","","<img src=""img/practice/S3.jpg"" width=""540"" height = ""360"">","null","","","","","","","",""
"null","","html-keyboard-response","16","184253","0.0-2.0-2.4","3RSDURM96B872CSQEUE629LXZVEYEW","A11YS0T8MV3Q7C","39N6W9XWRD9306QNTNZSDTAN4LJGYK","","","null","","","","","","","",""
"759","","image-keyboard-response","17","185014","0.0-2.0-0.5","3RSDURM96B872CSQEUE629LXZVEYEW","A11YS0T8MV3Q7C","39N6W9XWRD9306QNTNZSDTAN4LJGYK","","img/practice/S2.jpg","74","2","practice","68","false","","","",""
"null","","html-keyboard-response","18","185322","0.0-2.0-1.5","3RSDURM96B872CSQEUE629LXZVEYEW","A11YS0T8MV3Q7C","39N6W9XWRD9306QNTNZSDTAN4LJGYK","","<img src=""img/practice/S2.jpg"" width=""540"" height = ""360"">","null","","","","","","","",""
"null","","html-keyboard-response","19","185324","0.0-2.0-2.5","3RSDURM96B872CSQEUE629LXZVEYEW","A11YS0T8MV3Q7C","39N6W9XWRD9306QNTNZSDTAN4LJGYK","","","null","","","","","","","",""
"713","","image-keyboard-response","20","186038","0.0-2.0-0.6","3RSDURM96B872CSQEUE629LXZVEYEW","A11YS0T8MV3Q7C","39N6W9XWRD9306QNTNZSDTAN4LJGYK","","img/practice/S1.jpg","68","1","practice","83","false","","","",""
"null","","html-keyboard-response","21","186341","0.0-2.0-1.6","3RSDURM96B872CSQEUE629LXZVEYEW","A11YS0T8MV3Q7C","39N6W9XWRD9306QNTNZSDTAN4LJGYK","","<img src=""img/practice/S1.jpg"" width=""540"" height = ""360"">","null","","","","","","","",""
"null","","html-keyboard-response","22","186343","0.0-2.0-2.6","3RSDURM96B872CSQEUE629LXZVEYEW","A11YS0T8MV3Q7C","39N6W9XWRD9306QNTNZSDTAN4LJGYK","","","null","","","","","","","",""
"734","","image-keyboard-response","23","187078","0.0-2.0-0.7","3RSDURM96B872CSQEUE629LXZVEYEW","A11YS0T8MV3Q7C","39N6W9XWRD9306QNTNZSDTAN4LJGYK","","img/practice/S4.jpg","72","4","practice","74","false","","","",""
"null","","html-keyboard-response","24","187382","0.0-2.0-1.7","3RSDURM96B872CSQEUE629LXZVEYEW","A11YS0T8MV3Q7C","39N6W9XWRD9306QNTNZSDTAN4LJGYK","","<img src=""img/practice/S4.jpg"" width=""540"" height = ""360"">","null","","","","","","","",""
"null","","html-keyboard-response","25","187384","0.0-2.0-2.7","3RSDURM96B872CSQEUE629LXZVEYEW","A11YS0T8MV3Q7C","39N6W9XWRD9306QNTNZSDTAN4LJGYK","","","null","","","","","","","",""
"628","","image-keyboard-response","26","188015","0.0-2.0-0.8","3RSDURM96B872CSQEUE629LXZVEYEW","A11YS0T8MV3Q7C","39N6W9XWRD9306QNTNZSDTAN4LJGYK","","img/practice/S3.jpg","74","3","practice","72","false","","","",""
"null","","html-keyboard-response","27","188321","0.0-2.0-1.8","3RSDURM96B872CSQEUE629LXZVEYEW","A11YS0T8MV3Q7C","39N6W9XWRD9306QNTNZSDTAN4LJGYK","","<img src=""img/practice/S3.jpg"" width=""540"" height = ""360"">","null","","","","","","","",""
"null","","html-keyboard-response","28","188323","0.0-2.0-2.8","3RSDURM96B872CSQEUE629LXZVEYEW","A11YS0T8MV3Q7C","39N6W9XWRD9306QNTNZSDTAN4LJGYK","","","null","","","","","","","",""
"665","","image-keyboard-response","29","188990","0.0-2.0-0.9","3RSDURM96B872CSQEUE629LXZVEYEW","A11YS0T8MV3Q7C","39N6W9XWRD9306QNTNZSDTAN4LJGYK","","img/practice/S1.jpg","68","1","practice","83","false","","","",""
"null","","html-keyboard-response","30","189291","0.0-2.0-1.9","3RSDURM96B872CSQEUE629LXZVEYEW","A11YS0T8MV3Q7C","39N6W9XWRD9306QNTNZSDTAN4LJGYK","","<img src=""img/practice/S1.jpg"" width=""540"" height = ""360"">","null","","","","","","","",""
"null","","html-keyboard-response","31","189293","0.0-2.0-2.9","3RSDURM96B872CSQEUE629LXZVEYEW","A11YS0T8MV3Q7C","39N6W9XWRD9306QNTNZSDTAN4LJGYK","","","null","","","","","","","",""
"621","","image-keyboard-response","32","189918","0.0-2.0-0.10","3RSDURM96B872CSQEUE629LXZVEYEW","A11YS0T8MV3Q7C","39N6W9XWRD9306QNTNZSDTAN4LJGYK","","img/practice/S4.jpg","74","4","practice","74","true","","","",""
"null","","html-keyboard-response","33","190221","0.0-2.0-1.10","3RSDURM96B872CSQEUE629LXZVEYEW","A11YS0T8MV3Q7C","39N6W9XWRD9306QNTNZSDTAN4LJGYK","","<img src=""img/practice/S4.jpg"" width=""540"" height = ""360"" style=""border:16px solid orange"">","null","","","","","","","",""
"null","","html-keyboard-response","34","190224","0.0-2.0-2.10","3RSDURM96B872CSQEUE629LXZVEYEW","A11YS0T8MV3Q7C","39N6W9XWRD9306QNTNZSDTAN4LJGYK","","","null","","","","","","","",""
"757","","image-keyboard-response","35","190982","0.0-2.0-0.11","3RSDURM96B872CSQEUE629LXZVEYEW","A11YS0T8MV3Q7C","39N6W9XWRD9306QNTNZSDTAN4LJGYK","","img/practice/S2.jpg","68","2","practice","68","true","","","",""
"null","","html-keyboard-response","36","191292","0.0-2.0-1.11","3RSDURM96B872CSQEUE629LXZVEYEW","A11YS0T8MV3Q7C","39N6W9XWRD9306QNTNZSDTAN4LJGYK","","<img src=""img/practice/S2.jpg"" width=""540"" height = ""360"" style=""border:16px solid orange"">","null","","","","","","","",""
"null","","html-keyboard-response","37","191294","0.0-2.0-2.11","3RSDURM96B872CSQEUE629LXZVEYEW","A11YS0T8MV3Q7C","39N6W9XWRD9306QNTNZSDTAN4LJGYK","","","null","","","","","","","",""
"663","","image-keyboard-response","38","191958","0.0-2.0-0.12","3RSDURM96B872CSQEUE629LXZVEYEW","A11YS0T8MV3Q7C","39N6W9XWRD9306QNTNZSDTAN4LJGYK","","img/practice/S1.jpg","83","1","practice","83","true","","","",""
"null","","html-keyboard-response","39","192261","0.0-2.0-1.12","3RSDURM96B872CSQEUE629LXZVEYEW","A11YS0T8MV3Q7C","39N6W9XWRD9306QNTNZSDTAN4LJGYK","","<img src=""img/practice/S1.jpg"" width=""540"" height = ""360"" style=""border:16px solid orange"">","null","","","","","","","",""
"null","","html-keyboard-response","40","192264","0.0-2.0-2.12","3RSDURM96B872CSQEUE629LXZVEYEW","A11YS0T8MV3Q7C","39N6W9XWRD9306QNTNZSDTAN4LJGYK","","","null","","","","","","","",""
"676","","image-keyboard-response","41","192943","0.0-2.0-0.13","3RSDURM96B872CSQEUE629LXZVEYEW","A11YS0T8MV3Q7C","39N6W9XWRD9306QNTNZSDTAN4LJGYK","","img/practice/S4.jpg","72","4","practice","74","false","","","",""
"null","","html-keyboard-response","42","193252","0.0-2.0-1.13","3RSDURM96B872CSQEUE629LXZVEYEW","A11YS0T8MV3Q7C","39N6W9XWRD9306QNTNZSDTAN4LJGYK","","<img src=""img/practice/S4.jpg"" width=""540"" height = ""360"">","null","","","","","","","",""
"null","","html-keyboard-response","43","193254","0.0-2.0-2.13","3RSDURM96B872CSQEUE629LXZVEYEW","A11YS0T8MV3Q7C","39N6W9XWRD9306QNTNZSDTAN4LJGYK","","","null","","","","","","","",""
"662","","image-keyboard-response","44","193918","0.0-2.0-0.14","3RSDURM96B872CSQEUE629LXZVEYEW","A11YS0T8MV3Q7C","39N6W9XWRD9306QNTNZSDTAN4LJGYK","","img/practice/S3.jpg","74","3","practice","72","false","","","",""
"null","","html-keyboard-response","45","194222","0.0-2.0-1.14","3RSDURM96B872CSQEUE629LXZVEYEW","A11YS0T8MV3Q7C","39N6W9XWRD9306QNTNZSDTAN4LJGYK","","<img src=""img/practice/S3.jpg"" width=""540"" height = ""360"">","null","","","","","","","",""
"null","","html-keyboard-response","46","194224","0.0-2.0-2.14","3RSDURM96B872CSQEUE629LXZVEYEW","A11YS0T8MV3Q7C","39N6W9XWRD9306QNTNZSDTAN4LJGYK","","","null","","","","","","","",""
"765","","image-keyboard-response","47","194990","0.0-2.0-0.15","3RSDURM96B872CSQEUE629LXZVEYEW","A11YS0T8MV3Q7C","39N6W9XWRD9306QNTNZSDTAN4LJGYK","","img/practice/S2.jpg","68","2","practice","68","true","","","",""
"null","","html-keyboard-response","48","195292","0.0-2.0-1.15","3RSDURM96B872CSQEUE629LXZVEYEW","A11YS0T8MV3Q7C","39N6W9XWRD9306QNTNZSDTAN4LJGYK","","<img src=""img/practice/S2.jpg"" width=""540"" height = ""360"" style=""border:16px solid orange"">","null","","","","","","","",""
"null","","html-keyboard-response","49","195293","0.0-2.0-2.15","3RSDURM96B872CSQEUE629LXZVEYEW","A11YS0T8MV3Q7C","39N6W9XWRD9306QNTNZSDTAN4LJGYK","","","null","","","","","","","",""
"774","","image-keyboard-response","50","196070","0.0-2.0-0.16","3RSDURM96B872CSQEUE629LXZVEYEW","A11YS0T8MV3Q7C","39N6W9XWRD9306QNTNZSDTAN4LJGYK","","img/practice/S3.jpg","72","3","practice","72","true","","","",""
"null","","html-keyboard-response","51","196372","0.0-2.0-1.16","3RSDURM96B872CSQEUE629LXZVEYEW","A11YS0T8MV3Q7C","39N6W9XWRD9306QNTNZSDTAN4LJGYK","","<img src=""img/practice/S3.jpg"" width=""540"" height = ""360"" style=""border:16px solid orange"">","null","","","","","","","",""
"null","","html-keyboard-response","52","196374","0.0-2.0-2.16","3RSDURM96B872CSQEUE629LXZVEYEW","A11YS0T8MV3Q7C","39N6W9XWRD9306QNTNZSDTAN4LJGYK","","","null","","","","","","","",""
"670","","image-keyboard-response","53","197046","0.0-2.0-0.17","3RSDURM96B872CSQEUE629LXZVEYEW","A11YS0T8MV3Q7C","39N6W9XWRD9306QNTNZSDTAN4LJGYK","","img/practice/S4.jpg","74","4","practice","74","true","","","",""
"null","","html-keyboard-response","54","197352","0.0-2.0-1.17","3RSDURM96B872CSQEUE629LXZVEYEW","A11YS0T8MV3Q7C","39N6W9XWRD9306QNTNZSDTAN4LJGYK","","<img src=""img/practice/S4.jpg"" width=""540"" height = ""360"" style=""border:16px solid orange"">","null","","","","","","","",""
"null","","html-keyboard-response","55","197354","0.0-2.0-2.17","3RSDURM96B872CSQEUE629LXZVEYEW","A11YS0T8MV3Q7C","39N6W9XWRD9306QNTNZSDTAN4LJGYK","","","null","","","","","","","",""
"562","","image-keyboard-response","56","197918","0.0-2.0-0.18","3RSDURM96B872CSQEUE629LXZVEYEW","A11YS0T8MV3Q7C","39N6W9XWRD9306QNTNZSDTAN4LJGYK","","img/practice/S1.jpg","83","1","practice","83","true","","","",""
"null","","html-keyboard-response","57","198222","0.0-2.0-1.18","3RSDURM96B872CSQEUE629LXZVEYEW","A11YS0T8MV3Q7C","39N6W9XWRD9306QNTNZSDTAN4LJGYK","","<img src=""img/practice/S1.jpg"" width=""540"" height = ""360"" style=""border:16px solid orange"">","null","","","","","","","",""
"null","","html-keyboard-response","58","198224","0.0-2.0-2.18","3RSDURM96B872CSQEUE629LXZVEYEW","A11YS0T8MV3Q7C","39N6W9XWRD9306QNTNZSDTAN4LJGYK","","","null","","","","","","","",""
"677","","image-keyboard-response","59","198902","0.0-2.0-0.19","3RSDURM96B872CSQEUE629LXZVEYEW","A11YS0T8MV3Q7C","39N6W9XWRD9306QNTNZSDTAN4LJGYK","","img/practice/S2.jpg","72","2","practice","68","false","","","",""
"null","","html-keyboard-response","60","199211","0.0-2.0-1.19","3RSDURM96B872CSQEUE629LXZVEYEW","A11YS0T8MV3Q7C","39N6W9XWRD9306QNTNZSDTAN4LJGYK","","<img src=""img/practice/S2.jpg"" width=""540"" height = ""360"">","null","","","","","","","",""
"null","","html-keyboard-response","61","199213","0.0-2.0-2.19","3RSDURM96B872CSQEUE629LXZVEYEW","A11YS0T8MV3Q7C","39N6W9XWRD9306QNTNZSDTAN4LJGYK","","","null","","","","","","","",""
"567","","image-keyboard-response","62","199782","0.0-2.0-0.20","3RSDURM96B872CSQEUE629LXZVEYEW","A11YS0T8MV3Q7C","39N6W9XWRD9306QNTNZSDTAN4LJGYK","","img/practice/S2.jpg","68","2","practice","68","true","","","",""
"null","","html-keyboard-response","63","200084","0.0-2.0-1.20","3RSDURM96B872CSQEUE629LXZVEYEW","A11YS0T8MV3Q7C","39N6W9XWRD9306QNTNZSDTAN4LJGYK","","<img src=""img/practice/S2.jpg"" width=""540"" height = ""360"" style=""border:16px solid orange"">","null","","","","","","","",""
"null","","html-keyboard-response","64","200086","0.0-2.0-2.20","3RSDURM96B872CSQEUE629LXZVEYEW","A11YS0T8MV3Q7C","39N6W9XWRD9306QNTNZSDTAN4LJGYK","","","null","","","","","","","",""
"653","","image-keyboard-response","65","200742","0.0-2.0-0.21","3RSDURM96B872CSQEUE629LXZVEYEW","A11YS0T8MV3Q7C","39N6W9XWRD9306QNTNZSDTAN4LJGYK","","img/practice/S4.jpg","74","4","practice","74","true","","","",""
"null","","html-keyboard-response","66","201044","0.0-2.0-1.21","3RSDURM96B872CSQEUE629LXZVEYEW","A11YS0T8MV3Q7C","39N6W9XWRD9306QNTNZSDTAN4LJGYK","","<img src=""img/practice/S4.jpg"" width=""540"" height = ""360"" style=""border:16px solid orange"">","null","","","","","","","",""
"null","","html-keyboard-response","67","201045","0.0-2.0-2.21","3RSDURM96B872CSQEUE629LXZVEYEW","A11YS0T8MV3Q7C","39N6W9XWRD9306QNTNZSDTAN4LJGYK","","","null","","","","","","","",""
"616","","image-keyboard-response","68","201664","0.0-2.0-0.22","3RSDURM96B872CSQEUE629LXZVEYEW","A11YS0T8MV3Q7C","39N6W9XWRD9306QNTNZSDTAN4LJGYK","","img/practice/S3.jpg","72","3","practice","72","true","","","",""
"null","","html-keyboard-response","69","201966","0.0-2.0-1.22","3RSDURM96B872CSQEUE629LXZVEYEW","A11YS0T8MV3Q7C","39N6W9XWRD9306QNTNZSDTAN4LJGYK","","<img src=""img/practice/S3.jpg"" width=""540"" height = ""360"" style=""border:16px solid orange"">","null","","","","","","","",""
"null","","html-keyboard-response","70","201969","0.0-2.0-2.22","3RSDURM96B872CSQEUE629LXZVEYEW","A11YS0T8MV3Q7C","39N6W9XWRD9306QNTNZSDTAN4LJGYK","","","null","","","","","","","",""
"549","","image-keyboard-response","71","202518","0.0-2.0-0.23","3RSDURM96B872CSQEUE629LXZVEYEW","A11YS0T8MV3Q7C","39N6W9XWRD9306QNTNZSDTAN4LJGYK","","img/practice/S1.jpg","83","1","practice","83","true","","","",""
"null","","html-keyboard-response","72","202826","0.0-2.0-1.23","3RSDURM96B872CSQEUE629LXZVEYEW","A11YS0T8MV3Q7C","39N6W9XWRD9306QNTNZSDTAN4LJGYK","","<img src=""img/practice/S1.jpg"" width=""540"" height = ""360"" style=""border:16px solid orange"">","null","","","","","","","",""
"null","","html-keyboard-response","73","202829","0.0-2.0-2.23","3RSDURM96B872CSQEUE629LXZVEYEW","A11YS0T8MV3Q7C","39N6W9XWRD9306QNTNZSDTAN4LJGYK","","","null","","","","","","","",""
"3170","","instructions","74","206001","0.0-3.0","3RSDURM96B872CSQEUE629LXZVEYEW","A11YS0T8MV3Q7C","39N6W9XWRD9306QNTNZSDTAN4LJGYK","[{""page_index"":0,""viewing_time"":3170}]","","","","","","","","","",""
"17866","","instructions","75","223868","0.0-4.0","3RSDURM96B872CSQEUE629LXZVEYEW","A11YS0T8MV3Q7C","39N6W9XWRD9306QNTNZSDTAN4LJGYK","[{""page_index"":0,""viewing_time"":17866}]","","","","","","","","","",""
"8936","","instructions","76","232807","0.0-5.0","3RSDURM96B872CSQEUE629LXZVEYEW","A11YS0T8MV3Q7C","39N6W9XWRD9306QNTNZSDTAN4LJGYK","[{""page_index"":0,""viewing_time"":5529},{""page_index"":1,""viewing_time"":3407}]","","","","","","","","","",""
"862","","image-keyboard-response","77","233670","0.0-6.0","3RSDURM96B872CSQEUE629LXZVEYEW","A11YS0T8MV3Q7C","39N6W9XWRD9306QNTNZSDTAN4LJGYK","","img/set1/S4.jpg","74","4","structured_incentive","74","true","structured_incentive,structured_normal,random","1,2,2,3","",""
"null","","html-keyboard-response","78","234026","0.0-7.0","3RSDURM96B872CSQEUE629LXZVEYEW","A11YS0T8MV3Q7C","39N6W9XWRD9306QNTNZSDTAN4LJGYK","","<img src=""img/set1/S4.jpg"" width=""540"" height = ""360"" style=""border:16px solid orange"">","null","","","","","","","",""
"null","","html-keyboard-response","79","234029","0.0-8.0","3RSDURM96B872CSQEUE629LXZVEYEW","A11YS0T8MV3Q7C","39N6W9XWRD9306QNTNZSDTAN4LJGYK","","","null","","","","","","","",""
"625","","image-keyboard-response","80","234654","0.0-9.0","3RSDURM96B872CSQEUE629LXZVEYEW","A11YS0T8MV3Q7C","39N6W9XWRD9306QNTNZSDTAN4LJGYK","","img/set1/S1.jpg","68","1","structured_incentive","83","false","structured_incentive,structured_normal,random","1,2,2,3","",""
"null","","html-keyboard-response","81","235007","0.0-10.0","3RSDURM96B872CSQEUE629LXZVEYEW","A11YS0T8MV3Q7C","39N6W9XWRD9306QNTNZSDTAN4LJGYK","","<img src=""img/set1/S1.jpg"" width=""540"" height = ""360"">","null","","","","","","","",""
"null","","html-keyboard-response","82","235009","0.0-11.0","3RSDURM96B872CSQEUE629LXZVEYEW","A11YS0T8MV3Q7C","39N6W9XWRD9306QNTNZSDTAN4LJGYK","","","null","","","","","","","",""
"1549","","image-keyboard-response","83","236558","0.0-12.0","3RSDURM96B872CSQEUE629LXZVEYEW","A11YS0T8MV3Q7C","39N6W9XWRD9306QNTNZSDTAN4LJGYK","","img/set1/S3.jpg","74","3","structured_incentive","72","false","structured_incentive,structured_normal,random","1,2,2,3","",""
"null","","html-keyboard-response","84","236917","0.0-13.0","3RSDURM96B872CSQEUE629LXZVEYEW","A11YS0T8MV3Q7C","39N6W9XWRD9306QNTNZSDTAN4LJGYK","","<img src=""img/set1/S3.jpg"" width=""540"" height = ""360"">","null","","","","","","","",""
"null","","html-keyboard-response","85","236919","0.0-14.0","3RSDURM96B872CSQEUE629LXZVEYEW","A11YS0T8MV3Q7C","39N6W9XWRD9306QNTNZSDTAN4LJGYK","","","null","","","","","","","",""
"510","","image-keyboard-response","86","237430","0.0-15.0","3RSDURM96B872CSQEUE629LXZVEYEW","A11YS0T8MV3Q7C","39N6W9XWRD9306QNTNZSDTAN4LJGYK","","img/set1/S3.jpg","74","3","structured_incentive","72","false","structured_incentive,structured_normal,random","1,2,2,3","",""
"null","","html-keyboard-response","87","237787","0.0-16.0","3RSDURM96B872CSQEUE629LXZVEYEW","A11YS0T8MV3Q7C","39N6W9XWRD9306QNTNZSDTAN4LJGYK","","<img src=""img/set1/S3.jpg"" width=""540"" height = ""360"">","null","","","","","","","",""
"null","","html-keyboard-response","88","237789","0.0-17.0","3RSDURM96B872CSQEUE629LXZVEYEW","A11YS0T8MV3Q7C","39N6W9XWRD9306QNTNZSDTAN4LJGYK","","","null","","","","","","","",""
"63","","image-keyboard-response","89","237854","0.0-18.0","3RSDURM96B872CSQEUE629LXZVEYEW","A11YS0T8MV3Q7C","39N6W9XWRD9306QNTNZSDTAN4LJGYK","","img/set1/S4.jpg","83","4","structured_incentive","74","false","structured_incentive,structured_normal,random","1,2,2,3","",""
"null","","html-keyboard-response","90","238207","0.0-19.0","3RSDURM96B872CSQEUE629LXZVEYEW","A11YS0T8MV3Q7C","39N6W9XWRD9306QNTNZSDTAN4LJGYK","","<img src=""img/set1/S4.jpg"" width=""540"" height = ""360"">","null","","","","","","","",""
"null","","html-keyboard-response","91","238208","0.0-20.0","3RSDURM96B872CSQEUE629LXZVEYEW","A11YS0T8MV3Q7C","39N6W9XWRD9306QNTNZSDTAN4LJGYK","","","null","","","","","","","",""
"868","","image-keyboard-response","92","239078","0.0-21.0","3RSDURM96B872CSQEUE629LXZVEYEW","A11YS0T8MV3Q7C","39N6W9XWRD9306QNTNZSDTAN4LJGYK","","img/set1/S2.jpg","68","2","structured_incentive","68","true","structured_incentive,structured_normal,random","1,2,2,3","",""
"null","","html-keyboard-response","93","239437","0.0-22.0","3RSDURM96B872CSQEUE629LXZVEYEW","A11YS0T8MV3Q7C","39N6W9XWRD9306QNTNZSDTAN4LJGYK","","<img src=""img/set1/S2.jpg"" width=""540"" height = ""360"" style=""border:16px solid orange"">","null","","","","","","","",""
"null","","html-keyboard-response","94","239439","0.0-23.0","3RSDURM96B872CSQEUE629LXZVEYEW","A11YS0T8MV3Q7C","39N6W9XWRD9306QNTNZSDTAN4LJGYK","","","null","","","","","","","",""
"null","","image-keyboard-response","95","241947","0.0-24.0","3RSDURM96B872CSQEUE629LXZVEYEW","A11YS0T8MV3Q7C","39N6W9XWRD9306QNTNZSDTAN4LJGYK","","img/set1/S1.jpg","null","1","structured_incentive","83","false","structured_incentive,structured_normal,random","1,2,2,3","",""
"null","","html-keyboard-response","96","242307","0.0-25.0","3RSDURM96B872CSQEUE629LXZVEYEW","A11YS0T8MV3Q7C","39N6W9XWRD9306QNTNZSDTAN4LJGYK","","<img src=""img/set1/S1.jpg"" width=""540"" height = ""360"">","null","","","","","","","",""
"null","","html-keyboard-response","97","242317","0.0-26.0","3RSDURM96B872CSQEUE629LXZVEYEW","A11YS0T8MV3Q7C","39N6W9XWRD9306QNTNZSDTAN4LJGYK","","","null","","","","","","","",""
"664","","image-keyboard-response","98","242982","0.0-27.0","3RSDURM96B872CSQEUE629LXZVEYEW","A11YS0T8MV3Q7C","39N6W9XWRD9306QNTNZSDTAN4LJGYK","","img/set1/S2.jpg","74","2","structured_incentive","68","false","structured_incentive,structured_normal,random","1,2,2,3","",""
"null","","html-keyboard-response","99","243337","0.0-28.0","3RSDURM96B872CSQEUE629LXZVEYEW","A11YS0T8MV3Q7C","39N6W9XWRD9306QNTNZSDTAN4LJGYK","","<img src=""img/set1/S2.jpg"" width=""540"" height = ""360"">","null","","","","","","","",""
"null","","html-keyboard-response","100","243339","0.0-29.0","3RSDURM96B872CSQEUE629LXZVEYEW","A11YS0T8MV3Q7C","39N6W9XWRD9306QNTNZSDTAN4LJGYK","","","null","","","","","","","",""
"786","","image-keyboard-response","101","244126","0.0-30.0","3RSDURM96B872CSQEUE629LXZVEYEW","A11YS0T8MV3Q7C","39N6W9XWRD9306QNTNZSDTAN4LJGYK","","img/set1/S1.jpg","68","1","structured_incentive","83","false","structured_incentive,structured_normal,random","1,2,2,3","",""
"null","","html-keyboard-response","102","244487","0.0-31.0","3RSDURM96B872CSQEUE629LXZVEYEW","A11YS0T8MV3Q7C","39N6W9XWRD9306QNTNZSDTAN4LJGYK","","<img src=""img/set1/S1.jpg"" width=""540"" height = ""360"">","null","","","","","","","",""
"null","","html-keyboard-response","103","244489","0.0-32.0","3RSDURM96B872CSQEUE629LXZVEYEW","A11YS0T8MV3Q7C","39N6W9XWRD9306QNTNZSDTAN4LJGYK","","","null","","","","","","","",""
"949","","image-keyboard-response","104","245438","0.0-33.0","3RSDURM96B872CSQEUE629LXZVEYEW","A11YS0T8MV3Q7C","39N6W9XWRD9306QNTNZSDTAN4LJGYK","","img/set1/S3.jpg","74","3","structured_incentive","72","false","structured_incentive,structured_normal,random","1,2,2,3","",""
"null","","html-keyboard-response","105","245797","0.0-34.0","3RSDURM96B872CSQEUE629LXZVEYEW","A11YS0T8MV3Q7C","39N6W9XWRD9306QNTNZSDTAN4LJGYK","","<img src=""img/set1/S3.jpg"" width=""540"" height = ""360"">","null","","","","","","","",""
"null","","html-keyboard-response","106","245798","0.0-35.0","3RSDURM96B872CSQEUE629LXZVEYEW","A11YS0T8MV3Q7C","39N6W9XWRD9306QNTNZSDTAN4LJGYK","","","null","","","","","","","",""
"877","","image-keyboard-response","107","246678","0.0-36.0","3RSDURM96B872CSQEUE629LXZVEYEW","A11YS0T8MV3Q7C","39N6W9XWRD9306QNTNZSDTAN4LJGYK","","img/set1/S4.jpg","83","4","structured_incentive","74","false","structured_incentive,structured_normal,random","1,2,2,3","",""
"null","","html-keyboard-response","108","247037","0.0-37.0","3RSDURM96B872CSQEUE629LXZVEYEW","A11YS0T8MV3Q7C","39N6W9XWRD9306QNTNZSDTAN4LJGYK","","<img src=""img/set1/S4.jpg"" width=""540"" height = ""360"">","null","","","","","","","",""
"null","","html-keyboard-response","109","247039","0.0-38.0","3RSDURM96B872CSQEUE629LXZVEYEW","A11YS0T8MV3Q7C","39N6W9XWRD9306QNTNZSDTAN4LJGYK","","","null","","","","","","","",""
"548","","image-keyboard-response","110","247590","0.0-39.0","3RSDURM96B872CSQEUE629LXZVEYEW","A11YS0T8MV3Q7C","39N6W9XWRD9306QNTNZSDTAN4LJGYK","","img/set1/S4.jpg","68","4","structured_incentive","74","false","structured_incentive,structured_normal,random","1,2,2,3","",""
"null","","html-keyboard-response","111","247946","0.0-40.0","3RSDURM96B872CSQEUE629LXZVEYEW","A11YS0T8MV3Q7C","39N6W9XWRD9306QNTNZSDTAN4LJGYK","","<img src=""img/set1/S4.jpg"" width=""540"" height = ""360"">","null","","","","","","","",""
"null","","html-keyboard-response","112","247949","0.0-41.0","3RSDURM96B872CSQEUE629LXZVEYEW","A11YS0T8MV3Q7C","39N6W9XWRD9306QNTNZSDTAN4LJGYK","","","null","","","","","","","",""
"1080","","image-keyboard-response","113","249030","0.0-42.0","3RSDURM96B872CSQEUE629LXZVEYEW","A11YS0T8MV3Q7C","39N6W9XWRD9306QNTNZSDTAN4LJGYK","","img/set1/S1.jpg","83","1","structured_incentive","83","true","structured_incentive,structured_normal,random","1,2,2,3","",""
"null","","html-keyboard-response","114","249387","0.0-43.0","3RSDURM96B872CSQEUE629LXZVEYEW","A11YS0T8MV3Q7C","39N6W9XWRD9306QNTNZSDTAN4LJGYK","","<img src=""img/set1/S1.jpg"" width=""540"" height = ""360"" style=""border:16px solid orange"">","null","","","","","","","",""
"null","","html-keyboard-response","115","249389","0.0-44.0","3RSDURM96B872CSQEUE629LXZVEYEW","A11YS0T8MV3Q7C","39N6W9XWRD9306QNTNZSDTAN4LJGYK","","","null","","","","","","","",""
"1112","","image-keyboard-response","116","250502","0.0-45.0","3RSDURM96B872CSQEUE629LXZVEYEW","A11YS0T8MV3Q7C","39N6W9XWRD9306QNTNZSDTAN4LJGYK","","img/set1/S2.jpg","68","2","structured_incentive","68","true","structured_incentive,structured_normal,random","1,2,2,3","",""
"null","","html-keyboard-response","117","250858","0.0-46.0","3RSDURM96B872CSQEUE629LXZVEYEW","A11YS0T8MV3Q7C","39N6W9XWRD9306QNTNZSDTAN4LJGYK","","<img src=""img/set1/S2.jpg"" width=""540"" height = ""360"" style=""border:16px solid orange"">","null","","","","","","","",""
"null","","html-keyboard-response","118","250860","0.0-47.0","3RSDURM96B872CSQEUE629LXZVEYEW","A11YS0T8MV3Q7C","39N6W9XWRD9306QNTNZSDTAN4LJGYK","","","null","","","","","","","",""
"1767","","image-keyboard-response","119","252630","0.0-48.0","3RSDURM96B872CSQEUE629LXZVEYEW","A11YS0T8MV3Q7C","39N6W9XWRD9306QNTNZSDTAN4LJGYK","","img/set1/S4.jpg","74","4","structured_incentive","74","true","structured_incentive,structured_normal,random","1,2,2,3","",""
"null","","html-keyboard-response","120","252988","0.0-49.0","3RSDURM96B872CSQEUE629LXZVEYEW","A11YS0T8MV3Q7C","39N6W9XWRD9306QNTNZSDTAN4LJGYK","","<img src=""img/set1/S4.jpg"" width=""540"" height = ""360"" style=""border:16px solid orange"">","null","","","","","","","",""
"null","","html-keyboard-response","121","252990","0.0-50.0","3RSDURM96B872CSQEUE629LXZVEYEW","A11YS0T8MV3Q7C","39N6W9XWRD9306QNTNZSDTAN4LJGYK","","","null","","","","","","","",""
"1111","","image-keyboard-response","122","254102","0.0-51.0","3RSDURM96B872CSQEUE629LXZVEYEW","A11YS0T8MV3Q7C","39N6W9XWRD9306QNTNZSDTAN4LJGYK","","img/set1/S3.jpg","68","3","structured_incentive","72","false","structured_incentive,structured_normal,random","1,2,2,3","",""
"null","","html-keyboard-response","123","254458","0.0-52.0","3RSDURM96B872CSQEUE629LXZVEYEW","A11YS0T8MV3Q7C","39N6W9XWRD9306QNTNZSDTAN4LJGYK","","<img src=""img/set1/S3.jpg"" width=""540"" height = ""360"">","null","","","","","","","",""
"null","","html-keyboard-response","124","254460","0.0-53.0","3RSDURM96B872CSQEUE629LXZVEYEW","A11YS0T8MV3Q7C","39N6W9XWRD9306QNTNZSDTAN4LJGYK","","","null","","","","","","","",""
"920","","image-keyboard-response","125","255382","0.0-54.0","3RSDURM96B872CSQEUE629LXZVEYEW","A11YS0T8MV3Q7C","39N6W9XWRD9306QNTNZSDTAN4LJGYK","","img/set1/S2.jpg","68","2","structured_incentive","68","true","structured_incentive,structured_normal,random","1,2,2,3","",""
"null","","html-keyboard-response","126","255738","0.0-55.0","3RSDURM96B872CSQEUE629LXZVEYEW","A11YS0T8MV3Q7C","39N6W9XWRD9306QNTNZSDTAN4LJGYK","","<img src=""img/set1/S2.jpg"" width=""540"" height = ""360"" style=""border:16px solid orange"">","null","","","","","","","",""
"null","","html-keyboard-response","127","255740","0.0-56.0","3RSDURM96B872CSQEUE629LXZVEYEW","A11YS0T8MV3Q7C","39N6W9XWRD9306QNTNZSDTAN4LJGYK","","","null","","","","","","","",""
"841","","image-keyboard-response","128","256581","0.0-57.0","3RSDURM96B872CSQEUE629LXZVEYEW","A11YS0T8MV3Q7C","39N6W9XWRD9306QNTNZSDTAN4LJGYK","","img/set1/S1.jpg","83","1","structured_incentive","83","true","structured_incentive,structured_normal,random","1,2,2,3","",""
"null","","html-keyboard-response","129","256938","0.0-58.0","3RSDURM96B872CSQEUE629LXZVEYEW","A11YS0T8MV3Q7C","39N6W9XWRD9306QNTNZSDTAN4LJGYK","","<img src=""img/set1/S1.jpg"" width=""540"" height = ""360"" style=""border:16px solid orange"">","null","","","","","","","",""
"null","","html-keyboard-response","130","256940","0.0-59.0","3RSDURM96B872CSQEUE629LXZVEYEW","A11YS0T8MV3Q7C","39N6W9XWRD9306QNTNZSDTAN4LJGYK","","","null","","","","","","","",""
"857","","image-keyboard-response","131","257798","0.0-60.0","3RSDURM96B872CSQEUE629LXZVEYEW","A11YS0T8MV3Q7C","39N6W9XWRD9306QNTNZSDTAN4LJGYK","","img/set1/S2.jpg","68","2","structured_incentive","68","true","structured_incentive,structured_normal,random","1,2,2,3","",""
"null","","html-keyboard-response","132","258158","0.0-61.0","3RSDURM96B872CSQEUE629LXZVEYEW","A11YS0T8MV3Q7C","39N6W9XWRD9306QNTNZSDTAN4LJGYK","","<img src=""img/set1/S2.jpg"" width=""540"" height = ""360"" style=""border:16px solid orange"">","null","","","","","","","",""
"null","","html-keyboard-response","133","258160","0.0-62.0","3RSDURM96B872CSQEUE629LXZVEYEW","A11YS0T8MV3Q7C","39N6W9XWRD9306QNTNZSDTAN4LJGYK","","","null","","","","","","","",""
"613","","image-keyboard-response","134","258774","0.0-63.0","3RSDURM96B872CSQEUE629LXZVEYEW","A11YS0T8MV3Q7C","39N6W9XWRD9306QNTNZSDTAN4LJGYK","","img/set1/S1.jpg","83","1","structured_incentive","83","true","structured_incentive,structured_normal,random","1,2,2,3","",""
"null","","html-keyboard-response","135","259129","0.0-64.0","3RSDURM96B872CSQEUE629LXZVEYEW","A11YS0T8MV3Q7C","39N6W9XWRD9306QNTNZSDTAN4LJGYK","","<img src=""img/set1/S1.jpg"" width=""540"" height = ""360"" style=""border:16px solid orange"">","null","","","","","","","",""
"null","","html-keyboard-response","136","259130","0.0-65.0","3RSDURM96B872CSQEUE629LXZVEYEW","A11YS0T8MV3Q7C","39N6W9XWRD9306QNTNZSDTAN4LJGYK","","","null","","","","","","","",""
"675","","image-keyboard-response","137","259806","0.0-66.0","3RSDURM96B872CSQEUE629LXZVEYEW","A11YS0T8MV3Q7C","39N6W9XWRD9306QNTNZSDTAN4LJGYK","","img/set1/S2.jpg","68","2","structured_incentive","68","true","structured_incentive,structured_normal,random","1,2,2,3","",""
"null","","html-keyboard-response","138","260158","0.0-67.0","3RSDURM96B872CSQEUE629LXZVEYEW","A11YS0T8MV3Q7C","39N6W9XWRD9306QNTNZSDTAN4LJGYK","","<img src=""img/set1/S2.jpg"" width=""540"" height = ""360"" style=""border:16px solid orange"">","null","","","","","","","",""
"null","","html-keyboard-response","139","260160","0.0-68.0","3RSDURM96B872CSQEUE629LXZVEYEW","A11YS0T8MV3Q7C","39N6W9XWRD9306QNTNZSDTAN4LJGYK","","","null","","","","","","","",""
"844","","image-keyboard-response","140","261006","0.0-69.0","3RSDURM96B872CSQEUE629LXZVEYEW","A11YS0T8MV3Q7C","39N6W9XWRD9306QNTNZSDTAN4LJGYK","","img/set1/S4.jpg","74","4","structured_incentive","74","true","structured_incentive,structured_normal,random","1,2,2,3","",""
"null","","html-keyboard-response","141","261358","0.0-70.0","3RSDURM96B872CSQEUE629LXZVEYEW","A11YS0T8MV3Q7C","39N6W9XWRD9306QNTNZSDTAN4LJGYK","","<img src=""img/set1/S4.jpg"" width=""540"" height = ""360"" style=""border:16px solid orange"">","null","","","","","","","",""
"null","","html-keyboard-response","142","261360","0.0-71.0","3RSDURM96B872CSQEUE629LXZVEYEW","A11YS0T8MV3Q7C","39N6W9XWRD9306QNTNZSDTAN4LJGYK","","","null","","","","","","","",""
"661","","image-keyboard-response","143","262022","0.0-72.0","3RSDURM96B872CSQEUE629LXZVEYEW","A11YS0T8MV3Q7C","39N6W9XWRD9306QNTNZSDTAN4LJGYK","","img/set1/S2.jpg","68","2","structured_incentive","68","true","structured_incentive,structured_normal,random","1,2,2,3","",""
"null","","html-keyboard-response","144","262378","0.0-73.0","3RSDURM96B872CSQEUE629LXZVEYEW","A11YS0T8MV3Q7C","39N6W9XWRD9306QNTNZSDTAN4LJGYK","","<img src=""img/set1/S2.jpg"" width=""540"" height = ""360"" style=""border:16px solid orange"">","null","","","","","","","",""
"null","","html-keyboard-response","145","262380","0.0-74.0","3RSDURM96B872CSQEUE629LXZVEYEW","A11YS0T8MV3Q7C","39N6W9XWRD9306QNTNZSDTAN4LJGYK","","","null","","","","","","","",""
"704","","image-keyboard-response","146","263086","0.0-75.0","3RSDURM96B872CSQEUE629LXZVEYEW","A11YS0T8MV3Q7C","39N6W9XWRD9306QNTNZSDTAN4LJGYK","","img/set1/S4.jpg","74","4","structured_incentive","74","true","structured_incentive,structured_normal,random","1,2,2,3","",""
"null","","html-keyboard-response","147","263438","0.0-76.0","3RSDURM96B872CSQEUE629LXZVEYEW","A11YS0T8MV3Q7C","39N6W9XWRD9306QNTNZSDTAN4LJGYK","","<img src=""img/set1/S4.jpg"" width=""540"" height = ""360"" style=""border:16px solid orange"">","null","","","","","","","",""
"null","","html-keyboard-response","148","263440","0.0-77.0","3RSDURM96B872CSQEUE629LXZVEYEW","A11YS0T8MV3Q7C","39N6W9XWRD9306QNTNZSDTAN4LJGYK","","","null","","","","","","","",""
"668","","image-keyboard-response","149","264110","0.0-78.0","3RSDURM96B872CSQEUE629LXZVEYEW","A11YS0T8MV3Q7C","39N6W9XWRD9306QNTNZSDTAN4LJGYK","","img/set1/S1.jpg","83","1","structured_incentive","83","true","structured_incentive,structured_normal,random","1,2,2,3","",""
"null","","html-keyboard-response","150","264468","0.0-79.0","3RSDURM96B872CSQEUE629LXZVEYEW","A11YS0T8MV3Q7C","39N6W9XWRD9306QNTNZSDTAN4LJGYK","","<img src=""img/set1/S1.jpg"" width=""540"" height = ""360"" style=""border:16px solid orange"">","null","","","","","","","",""
"null","","html-keyboard-response","151","264470","0.0-80.0","3RSDURM96B872CSQEUE629LXZVEYEW","A11YS0T8MV3Q7C","39N6W9XWRD9306QNTNZSDTAN4LJGYK","","","null","","","","","","","",""
"767","","image-keyboard-response","152","265238","0.0-81.0","3RSDURM96B872CSQEUE629LXZVEYEW","A11YS0T8MV3Q7C","39N6W9XWRD9306QNTNZSDTAN4LJGYK","","img/set1/S3.jpg","74","3","structured_incentive","72","false","structured_incentive,structured_normal,random","1,2,2,3","",""
"null","","html-keyboard-response","153","265598","0.0-82.0","3RSDURM96B872CSQEUE629LXZVEYEW","A11YS0T8MV3Q7C","39N6W9XWRD9306QNTNZSDTAN4LJGYK","","<img src=""img/set1/S3.jpg"" width=""540"" height = ""360"">","null","","","","","","","",""
"null","","html-keyboard-response","154","265601","0.0-83.0","3RSDURM96B872CSQEUE629LXZVEYEW","A11YS0T8MV3Q7C","39N6W9XWRD9306QNTNZSDTAN4LJGYK","","","null","","","","","","","",""
"2045","","image-keyboard-response","155","267647","0.0-84.0","3RSDURM96B872CSQEUE629LXZVEYEW","A11YS0T8MV3Q7C","39N6W9XWRD9306QNTNZSDTAN4LJGYK","","img/set1/S3.jpg","68","3","structured_incentive","72","false","structured_incentive,structured_normal,random","1,2,2,3","",""
"null","","html-keyboard-response","156","268008","0.0-85.0","3RSDURM96B872CSQEUE629LXZVEYEW","A11YS0T8MV3Q7C","39N6W9XWRD9306QNTNZSDTAN4LJGYK","","<img src=""img/set1/S3.jpg"" width=""540"" height = ""360"">","null","","","","","","","",""
"null","","html-keyboard-response","157","268011","0.0-86.0","3RSDURM96B872CSQEUE629LXZVEYEW","A11YS0T8MV3Q7C","39N6W9XWRD9306QNTNZSDTAN4LJGYK","","","null","","","","","","","",""
"849","","image-keyboard-response","158","268862","0.0-87.0","3RSDURM96B872CSQEUE629LXZVEYEW","A11YS0T8MV3Q7C","39N6W9XWRD9306QNTNZSDTAN4LJGYK","","img/set1/S4.jpg","74","4","structured_incentive","74","true","structured_incentive,structured_normal,random","1,2,2,3","",""
"null","","html-keyboard-response","159","269218","0.0-88.0","3RSDURM96B872CSQEUE629LXZVEYEW","A11YS0T8MV3Q7C","39N6W9XWRD9306QNTNZSDTAN4LJGYK","","<img src=""img/set1/S4.jpg"" width=""540"" height = ""360"" style=""border:16px solid orange"">","null","","","","","","","",""
"null","","html-keyboard-response","160","269219","0.0-89.0","3RSDURM96B872CSQEUE629LXZVEYEW","A11YS0T8MV3Q7C","39N6W9XWRD9306QNTNZSDTAN4LJGYK","","","null","","","","","","","",""
"913","","image-keyboard-response","161","270134","0.0-90.0","3RSDURM96B872CSQEUE629LXZVEYEW","A11YS0T8MV3Q7C","39N6W9XWRD9306QNTNZSDTAN4LJGYK","","img/set1/S3.jpg","83","3","structured_incentive","72","false","structured_incentive,structured_normal,random","1,2,2,3","",""
"null","","html-keyboard-response","162","270489","0.0-91.0","3RSDURM96B872CSQEUE629LXZVEYEW","A11YS0T8MV3Q7C","39N6W9XWRD9306QNTNZSDTAN4LJGYK","","<img src=""img/set1/S3.jpg"" width=""540"" height = ""360"">","null","","","","","","","",""
"null","","html-keyboard-response","163","270490","0.0-92.0","3RSDURM96B872CSQEUE629LXZVEYEW","A11YS0T8MV3Q7C","39N6W9XWRD9306QNTNZSDTAN4LJGYK","","","null","","","","","","","",""
"2306","","image-keyboard-response","164","272798","0.0-93.0","3RSDURM96B872CSQEUE629LXZVEYEW","A11YS0T8MV3Q7C","39N6W9XWRD9306QNTNZSDTAN4LJGYK","","img/set1/S3.jpg","68","3","structured_incentive","72","false","structured_incentive,structured_normal,random","1,2,2,3","",""
"null","","html-keyboard-response","165","273159","0.0-94.0","3RSDURM96B872CSQEUE629LXZVEYEW","A11YS0T8MV3Q7C","39N6W9XWRD9306QNTNZSDTAN4LJGYK","","<img src=""img/set1/S3.jpg"" width=""540"" height = ""360"">","null","","","","","","","",""
"null","","html-keyboard-response","166","273161","0.0-95.0","3RSDURM96B872CSQEUE629LXZVEYEW","A11YS0T8MV3Q7C","39N6W9XWRD9306QNTNZSDTAN4LJGYK","","","null","","","","","","","",""
"828","","image-keyboard-response","167","273990","0.0-96.0","3RSDURM96B872CSQEUE629LXZVEYEW","A11YS0T8MV3Q7C","39N6W9XWRD9306QNTNZSDTAN4LJGYK","","img/set1/S2.jpg","68","2","structured_incentive","68","true","structured_incentive,structured_normal,random","1,2,2,3","",""
"null","","html-keyboard-response","168","274349","0.0-97.0","3RSDURM96B872CSQEUE629LXZVEYEW","A11YS0T8MV3Q7C","39N6W9XWRD9306QNTNZSDTAN4LJGYK","","<img src=""img/set1/S2.jpg"" width=""540"" height = ""360"" style=""border:16px solid orange"">","null","","","","","","","",""
"null","","html-keyboard-response","169","274351","0.0-98.0","3RSDURM96B872CSQEUE629LXZVEYEW","A11YS0T8MV3Q7C","39N6W9XWRD9306QNTNZSDTAN4LJGYK","","","null","","","","","","","",""
"828","","image-keyboard-response","170","275182","0.0-99.0","3RSDURM96B872CSQEUE629LXZVEYEW","A11YS0T8MV3Q7C","39N6W9XWRD9306QNTNZSDTAN4LJGYK","","img/set1/S3.jpg","74","3","structured_incentive","72","false","structured_incentive,structured_normal,random","1,2,2,3","",""
"null","","html-keyboard-response","171","275540","0.0-100.0","3RSDURM96B872CSQEUE629LXZVEYEW","A11YS0T8MV3Q7C","39N6W9XWRD9306QNTNZSDTAN4LJGYK","","<img src=""img/set1/S3.jpg"" width=""540"" height = ""360"">","null","","","","","","","",""
"null","","html-keyboard-response","172","275542","0.0-101.0","3RSDURM96B872CSQEUE629LXZVEYEW","A11YS0T8MV3Q7C","39N6W9XWRD9306QNTNZSDTAN4LJGYK","","","null","","","","","","","",""
"1214","","image-keyboard-response","173","276758","0.0-102.0","3RSDURM96B872CSQEUE629LXZVEYEW","A11YS0T8MV3Q7C","39N6W9XWRD9306QNTNZSDTAN4LJGYK","","img/set1/S4.jpg","68","4","structured_incentive","74","false","structured_incentive,structured_normal,random","1,2,2,3","",""
"null","","html-keyboard-response","174","277110","0.0-103.0","3RSDURM96B872CSQEUE629LXZVEYEW","A11YS0T8MV3Q7C","39N6W9XWRD9306QNTNZSDTAN4LJGYK","","<img src=""img/set1/S4.jpg"" width=""540"" height = ""360"">","null","","","","","","","",""
"null","","html-keyboard-response","175","277112","0.0-104.0","3RSDURM96B872CSQEUE629LXZVEYEW","A11YS0T8MV3Q7C","39N6W9XWRD9306QNTNZSDTAN4LJGYK","","","null","","","","","","","",""
"758","","image-keyboard-response","176","277870","0.0-105.0","3RSDURM96B872CSQEUE629LXZVEYEW","A11YS0T8MV3Q7C","39N6W9XWRD9306QNTNZSDTAN4LJGYK","","img/set1/S4.jpg","74","4","structured_incentive","74","true","structured_incentive,structured_normal,random","1,2,2,3","",""
"null","","html-keyboard-response","177","278230","0.0-106.0","3RSDURM96B872CSQEUE629LXZVEYEW","A11YS0T8MV3Q7C","39N6W9XWRD9306QNTNZSDTAN4LJGYK","","<img src=""img/set1/S4.jpg"" width=""540"" height = ""360"" style=""border:16px solid orange"">","null","","","","","","","",""
"null","","html-keyboard-response","178","278231","0.0-107.0","3RSDURM96B872CSQEUE629LXZVEYEW","A11YS0T8MV3Q7C","39N6W9XWRD9306QNTNZSDTAN4LJGYK","","","null","","","","","","","",""
"1165","","image-keyboard-response","179","279398","0.0-108.0","3RSDURM96B872CSQEUE629LXZVEYEW","A11YS0T8MV3Q7C","39N6W9XWRD9306QNTNZSDTAN4LJGYK","","img/set1/S3.jpg","83","3","structured_incentive","72","false","structured_incentive,structured_normal,random","1,2,2,3","",""
"null","","html-keyboard-response","180","279750","0.0-109.0","3RSDURM96B872CSQEUE629LXZVEYEW","A11YS0T8MV3Q7C","39N6W9XWRD9306QNTNZSDTAN4LJGYK","","<img src=""img/set1/S3.jpg"" width=""540"" height = ""360"">","null","","","","","","","",""
"null","","html-keyboard-response","181","279751","0.0-110.0","3RSDURM96B872CSQEUE629LXZVEYEW","A11YS0T8MV3Q7C","39N6W9XWRD9306QNTNZSDTAN4LJGYK","","","null","","","","","","","",""
"813","","image-keyboard-response","182","280566","0.0-111.0","3RSDURM96B872CSQEUE629LXZVEYEW","A11YS0T8MV3Q7C","39N6W9XWRD9306QNTNZSDTAN4LJGYK","","img/set1/S4.jpg","74","4","structured_incentive","74","true","structured_incentive,structured_normal,random","1,2,2,3","",""
"null","","html-keyboard-response","183","280919","0.0-112.0","3RSDURM96B872CSQEUE629LXZVEYEW","A11YS0T8MV3Q7C","39N6W9XWRD9306QNTNZSDTAN4LJGYK","","<img src=""img/set1/S4.jpg"" width=""540"" height = ""360"" style=""border:16px solid orange"">","null","","","","","","","",""
"null","","html-keyboard-response","184","280921","0.0-113.0","3RSDURM96B872CSQEUE629LXZVEYEW","A11YS0T8MV3Q7C","39N6W9XWRD9306QNTNZSDTAN4LJGYK","","","null","","","","","","","",""
"498","","image-keyboard-response","185","281421","0.0-114.0","3RSDURM96B872CSQEUE629LXZVEYEW","A11YS0T8MV3Q7C","39N6W9XWRD9306QNTNZSDTAN4LJGYK","","img/set1/S4.jpg","74","4","structured_incentive","74","true","structured_incentive,structured_normal,random","1,2,2,3","",""
"null","","html-keyboard-response","186","281780","0.0-115.0","3RSDURM96B872CSQEUE629LXZVEYEW","A11YS0T8MV3Q7C","39N6W9XWRD9306QNTNZSDTAN4LJGYK","","<img src=""img/set1/S4.jpg"" width=""540"" height = ""360"" style=""border:16px solid orange"">","null","","","","","","","",""
"null","","html-keyboard-response","187","281782","0.0-116.0","3RSDURM96B872CSQEUE629LXZVEYEW","A11YS0T8MV3Q7C","39N6W9XWRD9306QNTNZSDTAN4LJGYK","","","null","","","","","","","",""
"758","","image-keyboard-response","188","282542","0.0-117.0","3RSDURM96B872CSQEUE629LXZVEYEW","A11YS0T8MV3Q7C","39N6W9XWRD9306QNTNZSDTAN4LJGYK","","img/set1/S2.jpg","68","2","structured_incentive","68","true","structured_incentive,structured_normal,random","1,2,2,3","",""
"null","","html-keyboard-response","189","282899","0.0-118.0","3RSDURM96B872CSQEUE629LXZVEYEW","A11YS0T8MV3Q7C","39N6W9XWRD9306QNTNZSDTAN4LJGYK","","<img src=""img/set1/S2.jpg"" width=""540"" height = ""360"" style=""border:16px solid orange"">","null","","","","","","","",""
"null","","html-keyboard-response","190","282902","0.0-119.0","3RSDURM96B872CSQEUE629LXZVEYEW","A11YS0T8MV3Q7C","39N6W9XWRD9306QNTNZSDTAN4LJGYK","","","null","","","","","","","",""
"607","","image-keyboard-response","191","283510","0.0-120.0","3RSDURM96B872CSQEUE629LXZVEYEW","A11YS0T8MV3Q7C","39N6W9XWRD9306QNTNZSDTAN4LJGYK","","img/set1/S4.jpg","74","4","structured_incentive","74","true","structured_incentive,structured_normal,random","1,2,2,3","",""
"null","","html-keyboard-response","192","283869","0.0-121.0","3RSDURM96B872CSQEUE629LXZVEYEW","A11YS0T8MV3Q7C","39N6W9XWRD9306QNTNZSDTAN4LJGYK","","<img src=""img/set1/S4.jpg"" width=""540"" height = ""360"" style=""border:16px solid orange"">","null","","","","","","","",""
"null","","html-keyboard-response","193","283872","0.0-122.0","3RSDURM96B872CSQEUE629LXZVEYEW","A11YS0T8MV3Q7C","39N6W9XWRD9306QNTNZSDTAN4LJGYK","","","null","","","","","","","",""
"508","","image-keyboard-response","194","284382","0.0-123.0","3RSDURM96B872CSQEUE629LXZVEYEW","A11YS0T8MV3Q7C","39N6W9XWRD9306QNTNZSDTAN4LJGYK","","img/set1/S4.jpg","74","4","structured_incentive","74","true","structured_incentive,structured_normal,random","1,2,2,3","",""
"null","","html-keyboard-response","195","284739","0.0-124.0","3RSDURM96B872CSQEUE629LXZVEYEW","A11YS0T8MV3Q7C","39N6W9XWRD9306QNTNZSDTAN4LJGYK","","<img src=""img/set1/S4.jpg"" width=""540"" height = ""360"" style=""border:16px solid orange"">","null","","","","","","","",""
"null","","html-keyboard-response","196","284742","0.0-125.0","3RSDURM96B872CSQEUE629LXZVEYEW","A11YS0T8MV3Q7C","39N6W9XWRD9306QNTNZSDTAN4LJGYK","","","null","","","","","","","",""
"502","","image-keyboard-response","197","285246","0.0-126.0","3RSDURM96B872CSQEUE629LXZVEYEW","A11YS0T8MV3Q7C","39N6W9XWRD9306QNTNZSDTAN4LJGYK","","img/set1/S4.jpg","74","4","structured_incentive","74","true","structured_incentive,structured_normal,random","1,2,2,3","",""
"null","","html-keyboard-response","198","285600","0.0-127.0","3RSDURM96B872CSQEUE629LXZVEYEW","A11YS0T8MV3Q7C","39N6W9XWRD9306QNTNZSDTAN4LJGYK","","<img src=""img/set1/S4.jpg"" width=""540"" height = ""360"" style=""border:16px solid orange"">","null","","","","","","","",""
"null","","html-keyboard-response","199","285602","0.0-128.0","3RSDURM96B872CSQEUE629LXZVEYEW","A11YS0T8MV3Q7C","39N6W9XWRD9306QNTNZSDTAN4LJGYK","","","null","","","","","","","",""
"682","","image-keyboard-response","200","286286","0.0-129.0","3RSDURM96B872CSQEUE629LXZVEYEW","A11YS0T8MV3Q7C","39N6W9XWRD9306QNTNZSDTAN4LJGYK","","img/set1/S1.jpg","83","1","structured_incentive","83","true","structured_incentive,structured_normal,random","1,2,2,3","",""
"null","","html-keyboard-response","201","286640","0.0-130.0","3RSDURM96B872CSQEUE629LXZVEYEW","A11YS0T8MV3Q7C","39N6W9XWRD9306QNTNZSDTAN4LJGYK","","<img src=""img/set1/S1.jpg"" width=""540"" height = ""360"" style=""border:16px solid orange"">","null","","","","","","","",""
"null","","html-keyboard-response","202","286642","0.0-131.0","3RSDURM96B872CSQEUE629LXZVEYEW","A11YS0T8MV3Q7C","39N6W9XWRD9306QNTNZSDTAN4LJGYK","","","null","","","","","","","",""
"2075","","image-keyboard-response","203","288718","0.0-132.0","3RSDURM96B872CSQEUE629LXZVEYEW","A11YS0T8MV3Q7C","39N6W9XWRD9306QNTNZSDTAN4LJGYK","","img/set1/S2.jpg","68","2","structured_incentive","68","true","structured_incentive,structured_normal,random","1,2,2,3","",""
"null","","html-keyboard-response","204","289070","0.0-133.0","3RSDURM96B872CSQEUE629LXZVEYEW","A11YS0T8MV3Q7C","39N6W9XWRD9306QNTNZSDTAN4LJGYK","","<img src=""img/set1/S2.jpg"" width=""540"" height = ""360"" style=""border:16px solid orange"">","null","","","","","","","",""
"null","","html-keyboard-response","205","289072","0.0-134.0","3RSDURM96B872CSQEUE629LXZVEYEW","A11YS0T8MV3Q7C","39N6W9XWRD9306QNTNZSDTAN4LJGYK","","","null","","","","","","","",""
"1045","","image-keyboard-response","206","290118","0.0-135.0","3RSDURM96B872CSQEUE629LXZVEYEW","A11YS0T8MV3Q7C","39N6W9XWRD9306QNTNZSDTAN4LJGYK","","img/set1/S3.jpg","68","3","structured_incentive","72","false","structured_incentive,structured_normal,random","1,2,2,3","",""
"null","","html-keyboard-response","207","290470","0.0-136.0","3RSDURM96B872CSQEUE629LXZVEYEW","A11YS0T8MV3Q7C","39N6W9XWRD9306QNTNZSDTAN4LJGYK","","<img src=""img/set1/S3.jpg"" width=""540"" height = ""360"">","null","","","","","","","",""
"null","","html-keyboard-response","208","290471","0.0-137.0","3RSDURM96B872CSQEUE629LXZVEYEW","A11YS0T8MV3Q7C","39N6W9XWRD9306QNTNZSDTAN4LJGYK","","","null","","","","","","","",""
"508","","image-keyboard-response","209","290982","0.0-138.0","3RSDURM96B872CSQEUE629LXZVEYEW","A11YS0T8MV3Q7C","39N6W9XWRD9306QNTNZSDTAN4LJGYK","","img/set1/S3.jpg","83","3","structured_incentive","72","false","structured_incentive,structured_normal,random","1,2,2,3","",""
"null","","html-keyboard-response","210","291339","0.0-139.0","3RSDURM96B872CSQEUE629LXZVEYEW","A11YS0T8MV3Q7C","39N6W9XWRD9306QNTNZSDTAN4LJGYK","","<img src=""img/set1/S3.jpg"" width=""540"" height = ""360"">","null","","","","","","","",""
"null","","html-keyboard-response","211","291343","0.0-140.0","3RSDURM96B872CSQEUE629LXZVEYEW","A11YS0T8MV3Q7C","39N6W9XWRD9306QNTNZSDTAN4LJGYK","","","null","","","","","","","",""
"775","","image-keyboard-response","212","292118","0.0-141.0","3RSDURM96B872CSQEUE629LXZVEYEW","A11YS0T8MV3Q7C","39N6W9XWRD9306QNTNZSDTAN4LJGYK","","img/set1/S1.jpg","83","1","structured_incentive","83","true","structured_incentive,structured_normal,random","1,2,2,3","",""
"null","","html-keyboard-response","213","292471","0.0-142.0","3RSDURM96B872CSQEUE629LXZVEYEW","A11YS0T8MV3Q7C","39N6W9XWRD9306QNTNZSDTAN4LJGYK","","<img src=""img/set1/S1.jpg"" width=""540"" height = ""360"" style=""border:16px solid orange"">","null","","","","","","","",""
"null","","html-keyboard-response","214","292473","0.0-143.0","3RSDURM96B872CSQEUE629LXZVEYEW","A11YS0T8MV3Q7C","39N6W9XWRD9306QNTNZSDTAN4LJGYK","","","null","","","","","","","",""
"1989","","image-keyboard-response","215","294462","0.0-144.0","3RSDURM96B872CSQEUE629LXZVEYEW","A11YS0T8MV3Q7C","39N6W9XWRD9306QNTNZSDTAN4LJGYK","","img/set1/S3.jpg","74","3","structured_incentive","72","false","structured_incentive,structured_normal,random","1,2,2,3","",""
"null","","html-keyboard-response","216","294821","0.0-145.0","3RSDURM96B872CSQEUE629LXZVEYEW","A11YS0T8MV3Q7C","39N6W9XWRD9306QNTNZSDTAN4LJGYK","","<img src=""img/set1/S3.jpg"" width=""540"" height = ""360"">","null","","","","","","","",""
"null","","html-keyboard-response","217","294823","0.0-146.0","3RSDURM96B872CSQEUE629LXZVEYEW","A11YS0T8MV3Q7C","39N6W9XWRD9306QNTNZSDTAN4LJGYK","","","null","","","","","","","",""
"742","","image-keyboard-response","218","295567","0.0-147.0","3RSDURM96B872CSQEUE629LXZVEYEW","A11YS0T8MV3Q7C","39N6W9XWRD9306QNTNZSDTAN4LJGYK","","img/set1/S3.jpg","68","3","structured_incentive","72","false","structured_incentive,structured_normal,random","1,2,2,3","",""
"null","","html-keyboard-response","219","295921","0.0-148.0","3RSDURM96B872CSQEUE629LXZVEYEW","A11YS0T8MV3Q7C","39N6W9XWRD9306QNTNZSDTAN4LJGYK","","<img src=""img/set1/S3.jpg"" width=""540"" height = ""360"">","null","","","","","","","",""
"null","","html-keyboard-response","220","295922","0.0-149.0","3RSDURM96B872CSQEUE629LXZVEYEW","A11YS0T8MV3Q7C","39N6W9XWRD9306QNTNZSDTAN4LJGYK","","","null","","","","","","","",""
"962","","image-keyboard-response","221","296886","0.0-150.0","3RSDURM96B872CSQEUE629LXZVEYEW","A11YS0T8MV3Q7C","39N6W9XWRD9306QNTNZSDTAN4LJGYK","","img/set1/S4.jpg","74","4","structured_incentive","74","true","structured_incentive,structured_normal,random","1,2,2,3","",""
"null","","html-keyboard-response","222","297241","0.0-151.0","3RSDURM96B872CSQEUE629LXZVEYEW","A11YS0T8MV3Q7C","39N6W9XWRD9306QNTNZSDTAN4LJGYK","","<img src=""img/set1/S4.jpg"" width=""540"" height = ""360"" style=""border:16px solid orange"">","null","","","","","","","",""
"null","","html-keyboard-response","223","297243","0.0-152.0","3RSDURM96B872CSQEUE629LXZVEYEW","A11YS0T8MV3Q7C","39N6W9XWRD9306QNTNZSDTAN4LJGYK","","","null","","","","","","","",""
"602","","image-keyboard-response","224","297846","0.0-153.0","3RSDURM96B872CSQEUE629LXZVEYEW","A11YS0T8MV3Q7C","39N6W9XWRD9306QNTNZSDTAN4LJGYK","","img/set1/S1.jpg","83","1","structured_incentive","83","true","structured_incentive,structured_normal,random","1,2,2,3","",""
"null","","html-keyboard-response","225","298201","0.0-154.0","3RSDURM96B872CSQEUE629LXZVEYEW","A11YS0T8MV3Q7C","39N6W9XWRD9306QNTNZSDTAN4LJGYK","","<img src=""img/set1/S1.jpg"" width=""540"" height = ""360"" style=""border:16px solid orange"">","null","","","","","","","",""
"null","","html-keyboard-response","226","298203","0.0-155.0","3RSDURM96B872CSQEUE629LXZVEYEW","A11YS0T8MV3Q7C","39N6W9XWRD9306QNTNZSDTAN4LJGYK","","","null","","","","","","","",""
"698","","image-keyboard-response","227","298902","0.0-156.0","3RSDURM96B872CSQEUE629LXZVEYEW","A11YS0T8MV3Q7C","39N6W9XWRD9306QNTNZSDTAN4LJGYK","","img/set1/S2.jpg","68","2","structured_incentive","68","true","structured_incentive,structured_normal,random","1,2,2,3","",""
"null","","html-keyboard-response","228","299261","0.0-157.0","3RSDURM96B872CSQEUE629LXZVEYEW","A11YS0T8MV3Q7C","39N6W9XWRD9306QNTNZSDTAN4LJGYK","","<img src=""img/set1/S2.jpg"" width=""540"" height = ""360"" style=""border:16px solid orange"">","null","","","","","","","",""
"null","","html-keyboard-response","229","299263","0.0-158.0","3RSDURM96B872CSQEUE629LXZVEYEW","A11YS0T8MV3Q7C","39N6W9XWRD9306QNTNZSDTAN4LJGYK","","","null","","","","","","","",""
"942","","image-keyboard-response","230","300206","0.0-159.0","3RSDURM96B872CSQEUE629LXZVEYEW","A11YS0T8MV3Q7C","39N6W9XWRD9306QNTNZSDTAN4LJGYK","","img/set1/S4.jpg","74","4","structured_incentive","74","true","structured_incentive,structured_normal,random","1,2,2,3","",""
"null","","html-keyboard-response","231","300561","0.0-160.0","3RSDURM96B872CSQEUE629LXZVEYEW","A11YS0T8MV3Q7C","39N6W9XWRD9306QNTNZSDTAN4LJGYK","","<img src=""img/set1/S4.jpg"" width=""540"" height = ""360"" style=""border:16px solid orange"">","null","","","","","","","",""
"null","","html-keyboard-response","232","300563","0.0-161.0","3RSDURM96B872CSQEUE629LXZVEYEW","A11YS0T8MV3Q7C","39N6W9XWRD9306QNTNZSDTAN4LJGYK","","","null","","","","","","","",""
"946","","image-keyboard-response","233","301511","0.0-162.0","3RSDURM96B872CSQEUE629LXZVEYEW","A11YS0T8MV3Q7C","39N6W9XWRD9306QNTNZSDTAN4LJGYK","","img/set1/S3.jpg","68","3","structured_incentive","72","false","structured_incentive,structured_normal,random","1,2,2,3","",""
"null","","html-keyboard-response","234","301872","0.0-163.0","3RSDURM96B872CSQEUE629LXZVEYEW","A11YS0T8MV3Q7C","39N6W9XWRD9306QNTNZSDTAN4LJGYK","","<img src=""img/set1/S3.jpg"" width=""540"" height = ""360"">","null","","","","","","","",""
"null","","html-keyboard-response","235","301873","0.0-164.0","3RSDURM96B872CSQEUE629LXZVEYEW","A11YS0T8MV3Q7C","39N6W9XWRD9306QNTNZSDTAN4LJGYK","","","null","","","","","","","",""
"634","","image-keyboard-response","236","302510","0.0-165.0","3RSDURM96B872CSQEUE629LXZVEYEW","A11YS0T8MV3Q7C","39N6W9XWRD9306QNTNZSDTAN4LJGYK","","img/set1/S1.jpg","83","1","structured_incentive","83","true","structured_incentive,structured_normal,random","1,2,2,3","",""
"null","","html-keyboard-response","237","302862","0.0-166.0","3RSDURM96B872CSQEUE629LXZVEYEW","A11YS0T8MV3Q7C","39N6W9XWRD9306QNTNZSDTAN4LJGYK","","<img src=""img/set1/S1.jpg"" width=""540"" height = ""360"" style=""border:16px solid orange"">","null","","","","","","","",""
"null","","html-keyboard-response","238","302864","0.0-167.0","3RSDURM96B872CSQEUE629LXZVEYEW","A11YS0T8MV3Q7C","39N6W9XWRD9306QNTNZSDTAN4LJGYK","","","null","","","","","","","",""
"909","","image-keyboard-response","239","303774","0.0-168.0","3RSDURM96B872CSQEUE629LXZVEYEW","A11YS0T8MV3Q7C","39N6W9XWRD9306QNTNZSDTAN4LJGYK","","img/set1/S2.jpg","68","2","structured_incentive","68","true","structured_incentive,structured_normal,random","1,2,2,3","",""
"null","","html-keyboard-response","240","304132","0.0-169.0","3RSDURM96B872CSQEUE629LXZVEYEW","A11YS0T8MV3Q7C","39N6W9XWRD9306QNTNZSDTAN4LJGYK","","<img src=""img/set1/S2.jpg"" width=""540"" height = ""360"" style=""border:16px solid orange"">","null","","","","","","","",""
"null","","html-keyboard-response","241","304134","0.0-170.0","3RSDURM96B872CSQEUE629LXZVEYEW","A11YS0T8MV3Q7C","39N6W9XWRD9306QNTNZSDTAN4LJGYK","","","null","","","","","","","",""
"1007","","image-keyboard-response","242","305143","0.0-171.0","3RSDURM96B872CSQEUE629LXZVEYEW","A11YS0T8MV3Q7C","39N6W9XWRD9306QNTNZSDTAN4LJGYK","","img/set1/S3.jpg","83","3","structured_incentive","72","false","structured_incentive,structured_normal,random","1,2,2,3","",""
"null","","html-keyboard-response","243","305502","0.0-172.0","3RSDURM96B872CSQEUE629LXZVEYEW","A11YS0T8MV3Q7C","39N6W9XWRD9306QNTNZSDTAN4LJGYK","","<img src=""img/set1/S3.jpg"" width=""540"" height = ""360"">","null","","","","","","","",""
"null","","html-keyboard-response","244","305504","0.0-173.0","3RSDURM96B872CSQEUE629LXZVEYEW","A11YS0T8MV3Q7C","39N6W9XWRD9306QNTNZSDTAN4LJGYK","","","null","","","","","","","",""
"724","","image-keyboard-response","245","306230","0.0-174.0","3RSDURM96B872CSQEUE629LXZVEYEW","A11YS0T8MV3Q7C","39N6W9XWRD9306QNTNZSDTAN4LJGYK","","img/set1/S2.jpg","68","2","structured_incentive","68","true","structured_incentive,structured_normal,random","1,2,2,3","",""
"null","","html-keyboard-response","246","306581","0.0-175.0","3RSDURM96B872CSQEUE629LXZVEYEW","A11YS0T8MV3Q7C","39N6W9XWRD9306QNTNZSDTAN4LJGYK","","<img src=""img/set1/S2.jpg"" width=""540"" height = ""360"" style=""border:16px solid orange"">","null","","","","","","","",""
"null","","html-keyboard-response","247","306584","0.0-176.0","3RSDURM96B872CSQEUE629LXZVEYEW","A11YS0T8MV3Q7C","39N6W9XWRD9306QNTNZSDTAN4LJGYK","","","null","","","","","","","",""
"949","","image-keyboard-response","248","307534","0.0-177.0","3RSDURM96B872CSQEUE629LXZVEYEW","A11YS0T8MV3Q7C","39N6W9XWRD9306QNTNZSDTAN4LJGYK","","img/set1/S4.jpg","74","4","structured_incentive","74","true","structured_incentive,structured_normal,random","1,2,2,3","",""
"null","","html-keyboard-response","249","307892","0.0-178.0","3RSDURM96B872CSQEUE629LXZVEYEW","A11YS0T8MV3Q7C","39N6W9XWRD9306QNTNZSDTAN4LJGYK","","<img src=""img/set1/S4.jpg"" width=""540"" height = ""360"" style=""border:16px solid orange"">","null","","","","","","","",""
"null","","html-keyboard-response","250","307894","0.0-179.0","3RSDURM96B872CSQEUE629LXZVEYEW","A11YS0T8MV3Q7C","39N6W9XWRD9306QNTNZSDTAN4LJGYK","","","null","","","","","","","",""
"759","","image-keyboard-response","251","308654","0.0-180.0","3RSDURM96B872CSQEUE629LXZVEYEW","A11YS0T8MV3Q7C","39N6W9XWRD9306QNTNZSDTAN4LJGYK","","img/set1/S1.jpg","83","1","structured_incentive","83","true","structured_incentive,structured_normal,random","1,2,2,3","",""
"null","","html-keyboard-response","252","309012","0.0-181.0","3RSDURM96B872CSQEUE629LXZVEYEW","A11YS0T8MV3Q7C","39N6W9XWRD9306QNTNZSDTAN4LJGYK","","<img src=""img/set1/S1.jpg"" width=""540"" height = ""360"" style=""border:16px solid orange"">","null","","","","","","","",""
"null","","html-keyboard-response","253","309014","0.0-182.0","3RSDURM96B872CSQEUE629LXZVEYEW","A11YS0T8MV3Q7C","39N6W9XWRD9306QNTNZSDTAN4LJGYK","","","null","","","","","","","",""
"null","","image-keyboard-response","254","311522","0.0-183.0","3RSDURM96B872CSQEUE629LXZVEYEW","A11YS0T8MV3Q7C","39N6W9XWRD9306QNTNZSDTAN4LJGYK","","img/set1/S3.jpg","null","3","structured_incentive","72","false","structured_incentive,structured_normal,random","1,2,2,3","",""
"null","","html-keyboard-response","255","311882","0.0-184.0","3RSDURM96B872CSQEUE629LXZVEYEW","A11YS0T8MV3Q7C","39N6W9XWRD9306QNTNZSDTAN4LJGYK","","<img src=""img/set1/S3.jpg"" width=""540"" height = ""360"">","null","","","","","","","",""
"null","","html-keyboard-response","256","311892","0.0-185.0","3RSDURM96B872CSQEUE629LXZVEYEW","A11YS0T8MV3Q7C","39N6W9XWRD9306QNTNZSDTAN4LJGYK","","","null","","","","","","","",""
"720","","image-keyboard-response","257","312614","0.0-186.0","3RSDURM96B872CSQEUE629LXZVEYEW","A11YS0T8MV3Q7C","39N6W9XWRD9306QNTNZSDTAN4LJGYK","","img/set1/S1.jpg","83","1","structured_incentive","83","true","structured_incentive,structured_normal,random","1,2,2,3","",""
"null","","html-keyboard-response","258","312972","0.0-187.0","3RSDURM96B872CSQEUE629LXZVEYEW","A11YS0T8MV3Q7C","39N6W9XWRD9306QNTNZSDTAN4LJGYK","","<img src=""img/set1/S1.jpg"" width=""540"" height = ""360"" style=""border:16px solid orange"">","null","","","","","","","",""
"null","","html-keyboard-response","259","312974","0.0-188.0","3RSDURM96B872CSQEUE629LXZVEYEW","A11YS0T8MV3Q7C","39N6W9XWRD9306QNTNZSDTAN4LJGYK","","","null","","","","","","","",""
"1014","","image-keyboard-response","260","313990","0.0-189.0","3RSDURM96B872CSQEUE629LXZVEYEW","A11YS0T8MV3Q7C","39N6W9XWRD9306QNTNZSDTAN4LJGYK","","img/set1/S2.jpg","68","2","structured_incentive","68","true","structured_incentive,structured_normal,random","1,2,2,3","",""
"null","","html-keyboard-response","261","314342","0.0-190.0","3RSDURM96B872CSQEUE629LXZVEYEW","A11YS0T8MV3Q7C","39N6W9XWRD9306QNTNZSDTAN4LJGYK","","<img src=""img/set1/S2.jpg"" width=""540"" height = ""360"" style=""border:16px solid orange"">","null","","","","","","","",""
"null","","html-keyboard-response","262","314344","0.0-191.0","3RSDURM96B872CSQEUE629LXZVEYEW","A11YS0T8MV3Q7C","39N6W9XWRD9306QNTNZSDTAN4LJGYK","","","null","","","","","","","",""
"668","","image-keyboard-response","263","315014","0.0-192.0","3RSDURM96B872CSQEUE629LXZVEYEW","A11YS0T8MV3Q7C","39N6W9XWRD9306QNTNZSDTAN4LJGYK","","img/set1/S4.jpg","74","4","structured_incentive","74","true","structured_incentive,structured_normal,random","1,2,2,3","",""
"null","","html-keyboard-response","264","315372","0.0-193.0","3RSDURM96B872CSQEUE629LXZVEYEW","A11YS0T8MV3Q7C","39N6W9XWRD9306QNTNZSDTAN4LJGYK","","<img src=""img/set1/S4.jpg"" width=""540"" height = ""360"" style=""border:16px solid orange"">","null","","","","","","","",""
"null","","html-keyboard-response","265","315373","0.0-194.0","3RSDURM96B872CSQEUE629LXZVEYEW","A11YS0T8MV3Q7C","39N6W9XWRD9306QNTNZSDTAN4LJGYK","","","null","","","","","","","",""
"567","","image-keyboard-response","266","315942","0.0-195.0","3RSDURM96B872CSQEUE629LXZVEYEW","A11YS0T8MV3Q7C","39N6W9XWRD9306QNTNZSDTAN4LJGYK","","img/set1/S1.jpg","83","1","structured_incentive","83","true","structured_incentive,structured_normal,random","1,2,2,3","",""
"null","","html-keyboard-response","267","316302","0.0-196.0","3RSDURM96B872CSQEUE629LXZVEYEW","A11YS0T8MV3Q7C","39N6W9XWRD9306QNTNZSDTAN4LJGYK","","<img src=""img/set1/S1.jpg"" width=""540"" height = ""360"" style=""border:16px solid orange"">","null","","","","","","","",""
"null","","html-keyboard-response","268","316304","0.0-197.0","3RSDURM96B872CSQEUE629LXZVEYEW","A11YS0T8MV3Q7C","39N6W9XWRD9306QNTNZSDTAN4LJGYK","","","null","","","","","","","",""
"628","","image-keyboard-response","269","316934","0.0-198.0","3RSDURM96B872CSQEUE629LXZVEYEW","A11YS0T8MV3Q7C","39N6W9XWRD9306QNTNZSDTAN4LJGYK","","img/set1/S2.jpg","68","2","structured_incentive","68","true","structured_incentive,structured_normal,random","1,2,2,3","",""
"null","","html-keyboard-response","270","317292","0.0-199.0","3RSDURM96B872CSQEUE629LXZVEYEW","A11YS0T8MV3Q7C","39N6W9XWRD9306QNTNZSDTAN4LJGYK","","<img src=""img/set1/S2.jpg"" width=""540"" height = ""360"" style=""border:16px solid orange"">","null","","","","","","","",""
"null","","html-keyboard-response","271","317294","0.0-200.0","3RSDURM96B872CSQEUE629LXZVEYEW","A11YS0T8MV3Q7C","39N6W9XWRD9306QNTNZSDTAN4LJGYK","","","null","","","","","","","",""
"783","","image-keyboard-response","272","318078","0.0-201.0","3RSDURM96B872CSQEUE629LXZVEYEW","A11YS0T8MV3Q7C","39N6W9XWRD9306QNTNZSDTAN4LJGYK","","img/set1/S4.jpg","74","4","structured_incentive","74","true","structured_incentive,structured_normal,random","1,2,2,3","",""
"null","","html-keyboard-response","273","318432","0.0-202.0","3RSDURM96B872CSQEUE629LXZVEYEW","A11YS0T8MV3Q7C","39N6W9XWRD9306QNTNZSDTAN4LJGYK","","<img src=""img/set1/S4.jpg"" width=""540"" height = ""360"" style=""border:16px solid orange"">","null","","","","","","","",""
"null","","html-keyboard-response","274","318434","0.0-203.0","3RSDURM96B872CSQEUE629LXZVEYEW","A11YS0T8MV3Q7C","39N6W9XWRD9306QNTNZSDTAN4LJGYK","","","null","","","","","","","",""
"691","","image-keyboard-response","275","319126","0.0-204.0","3RSDURM96B872CSQEUE629LXZVEYEW","A11YS0T8MV3Q7C","39N6W9XWRD9306QNTNZSDTAN4LJGYK","","img/set1/S2.jpg","68","2","structured_incentive","68","true","structured_incentive,structured_normal,random","1,2,2,3","",""
"null","","html-keyboard-response","276","319482","0.0-205.0","3RSDURM96B872CSQEUE629LXZVEYEW","A11YS0T8MV3Q7C","39N6W9XWRD9306QNTNZSDTAN4LJGYK","","<img src=""img/set1/S2.jpg"" width=""540"" height = ""360"" style=""border:16px solid orange"">","null","","","","","","","",""
"null","","html-keyboard-response","277","319484","0.0-206.0","3RSDURM96B872CSQEUE629LXZVEYEW","A11YS0T8MV3Q7C","39N6W9XWRD9306QNTNZSDTAN4LJGYK","","","null","","","","","","","",""
"609","","image-keyboard-response","278","320093","0.0-207.0","3RSDURM96B872CSQEUE629LXZVEYEW","A11YS0T8MV3Q7C","39N6W9XWRD9306QNTNZSDTAN4LJGYK","","img/set1/S3.jpg","83","3","structured_incentive","72","false","structured_incentive,structured_normal,random","1,2,2,3","",""
"null","","html-keyboard-response","279","320452","0.0-208.0","3RSDURM96B872CSQEUE629LXZVEYEW","A11YS0T8MV3Q7C","39N6W9XWRD9306QNTNZSDTAN4LJGYK","","<img src=""img/set1/S3.jpg"" width=""540"" height = ""360"">","null","","","","","","","",""
"null","","html-keyboard-response","280","320454","0.0-209.0","3RSDURM96B872CSQEUE629LXZVEYEW","A11YS0T8MV3Q7C","39N6W9XWRD9306QNTNZSDTAN4LJGYK","","","null","","","","","","","",""
"1343","","image-keyboard-response","281","321798","0.0-210.0","3RSDURM96B872CSQEUE629LXZVEYEW","A11YS0T8MV3Q7C","39N6W9XWRD9306QNTNZSDTAN4LJGYK","","img/set1/S4.jpg","74","4","structured_incentive","74","true","structured_incentive,structured_normal,random","1,2,2,3","",""
"null","","html-keyboard-response","282","322153","0.0-211.0","3RSDURM96B872CSQEUE629LXZVEYEW","A11YS0T8MV3Q7C","39N6W9XWRD9306QNTNZSDTAN4LJGYK","","<img src=""img/set1/S4.jpg"" width=""540"" height = ""360"" style=""border:16px solid orange"">","null","","","","","","","",""
"null","","html-keyboard-response","283","322155","0.0-212.0","3RSDURM96B872CSQEUE629LXZVEYEW","A11YS0T8MV3Q7C","39N6W9XWRD9306QNTNZSDTAN4LJGYK","","","null","","","","","","","",""
"1097","","image-keyboard-response","284","323253","0.0-213.0","3RSDURM96B872CSQEUE629LXZVEYEW","A11YS0T8MV3Q7C","39N6W9XWRD9306QNTNZSDTAN4LJGYK","","img/set1/S3.jpg","68","3","structured_incentive","72","false","structured_incentive,structured_normal,random","1,2,2,3","",""
"null","","html-keyboard-response","285","323613","0.0-214.0","3RSDURM96B872CSQEUE629LXZVEYEW","A11YS0T8MV3Q7C","39N6W9XWRD9306QNTNZSDTAN4LJGYK","","<img src=""img/set1/S3.jpg"" width=""540"" height = ""360"">","null","","","","","","","",""
"null","","html-keyboard-response","286","323615","0.0-215.0","3RSDURM96B872CSQEUE629LXZVEYEW","A11YS0T8MV3Q7C","39N6W9XWRD9306QNTNZSDTAN4LJGYK","","","null","","","","","","","",""
"870","","image-keyboard-response","287","324486","0.0-216.0","3RSDURM96B872CSQEUE629LXZVEYEW","A11YS0T8MV3Q7C","39N6W9XWRD9306QNTNZSDTAN4LJGYK","","img/set1/S4.jpg","74","4","structured_incentive","74","true","structured_incentive,structured_normal,random","1,2,2,3","",""
"null","","html-keyboard-response","288","324843","0.0-217.0","3RSDURM96B872CSQEUE629LXZVEYEW","A11YS0T8MV3Q7C","39N6W9XWRD9306QNTNZSDTAN4LJGYK","","<img src=""img/set1/S4.jpg"" width=""540"" height = ""360"" style=""border:16px solid orange"">","null","","","","","","","",""
"null","","html-keyboard-response","289","324845","0.0-218.0","3RSDURM96B872CSQEUE629LXZVEYEW","A11YS0T8MV3Q7C","39N6W9XWRD9306QNTNZSDTAN4LJGYK","","","null","","","","","","","",""
"727","","image-keyboard-response","290","325574","0.0-219.0","3RSDURM96B872CSQEUE629LXZVEYEW","A11YS0T8MV3Q7C","39N6W9XWRD9306QNTNZSDTAN4LJGYK","","img/set1/S3.jpg","83","3","structured_incentive","72","false","structured_incentive,structured_normal,random","1,2,2,3","",""
"null","","html-keyboard-response","291","325933","0.0-220.0","3RSDURM96B872CSQEUE629LXZVEYEW","A11YS0T8MV3Q7C","39N6W9XWRD9306QNTNZSDTAN4LJGYK","","<img src=""img/set1/S3.jpg"" width=""540"" height = ""360"">","null","","","","","","","",""
"null","","html-keyboard-response","292","325935","0.0-221.0","3RSDURM96B872CSQEUE629LXZVEYEW","A11YS0T8MV3Q7C","39N6W9XWRD9306QNTNZSDTAN4LJGYK","","","null","","","","","","","",""
"1077","","image-keyboard-response","293","327014","0.0-222.0","3RSDURM96B872CSQEUE629LXZVEYEW","A11YS0T8MV3Q7C","39N6W9XWRD9306QNTNZSDTAN4LJGYK","","img/set1/S1.jpg","83","1","structured_incentive","83","true","structured_incentive,structured_normal,random","1,2,2,3","",""
"null","","html-keyboard-response","294","327373","0.0-223.0","3RSDURM96B872CSQEUE629LXZVEYEW","A11YS0T8MV3Q7C","39N6W9XWRD9306QNTNZSDTAN4LJGYK","","<img src=""img/set1/S1.jpg"" width=""540"" height = ""360"" style=""border:16px solid orange"">","null","","","","","","","",""
"null","","html-keyboard-response","295","327375","0.0-224.0","3RSDURM96B872CSQEUE629LXZVEYEW","A11YS0T8MV3Q7C","39N6W9XWRD9306QNTNZSDTAN4LJGYK","","","null","","","","","","","",""
"1133","","image-keyboard-response","296","328510","0.0-225.0","3RSDURM96B872CSQEUE629LXZVEYEW","A11YS0T8MV3Q7C","39N6W9XWRD9306QNTNZSDTAN4LJGYK","","img/set1/S3.jpg","83","3","structured_incentive","72","false","structured_incentive,structured_normal,random","1,2,2,3","",""
"null","","html-keyboard-response","297","328863","0.0-226.0","3RSDURM96B872CSQEUE629LXZVEYEW","A11YS0T8MV3Q7C","39N6W9XWRD9306QNTNZSDTAN4LJGYK","","<img src=""img/set1/S3.jpg"" width=""540"" height = ""360"">","null","","","","","","","",""
"null","","html-keyboard-response","298","328865","0.0-227.0","3RSDURM96B872CSQEUE629LXZVEYEW","A11YS0T8MV3Q7C","39N6W9XWRD9306QNTNZSDTAN4LJGYK","","","null","","","","","","","",""
"971","","image-keyboard-response","299","329838","0.0-228.0","3RSDURM96B872CSQEUE629LXZVEYEW","A11YS0T8MV3Q7C","39N6W9XWRD9306QNTNZSDTAN4LJGYK","","img/set1/S4.jpg","74","4","structured_incentive","74","true","structured_incentive,structured_normal,random","1,2,2,3","",""
"null","","html-keyboard-response","300","330193","0.0-229.0","3RSDURM96B872CSQEUE629LXZVEYEW","A11YS0T8MV3Q7C","39N6W9XWRD9306QNTNZSDTAN4LJGYK","","<img src=""img/set1/S4.jpg"" width=""540"" height = ""360"" style=""border:16px solid orange"">","null","","","","","","","",""
"null","","html-keyboard-response","301","330195","0.0-230.0","3RSDURM96B872CSQEUE629LXZVEYEW","A11YS0T8MV3Q7C","39N6W9XWRD9306QNTNZSDTAN4LJGYK","","","null","","","","","","","",""
"1186","","image-keyboard-response","302","331382","0.0-231.0","3RSDURM96B872CSQEUE629LXZVEYEW","A11YS0T8MV3Q7C","39N6W9XWRD9306QNTNZSDTAN4LJGYK","","img/set1/S3.jpg","68","3","structured_incentive","72","false","structured_incentive,structured_normal,random","1,2,2,3","",""
"null","","html-keyboard-response","303","331743","0.0-232.0","3RSDURM96B872CSQEUE629LXZVEYEW","A11YS0T8MV3Q7C","39N6W9XWRD9306QNTNZSDTAN4LJGYK","","<img src=""img/set1/S3.jpg"" width=""540"" height = ""360"">","null","","","","","","","",""
"null","","html-keyboard-response","304","331745","0.0-233.0","3RSDURM96B872CSQEUE629LXZVEYEW","A11YS0T8MV3Q7C","39N6W9XWRD9306QNTNZSDTAN4LJGYK","","","null","","","","","","","",""
"1636","","image-keyboard-response","305","333382","0.0-234.0","3RSDURM96B872CSQEUE629LXZVEYEW","A11YS0T8MV3Q7C","39N6W9XWRD9306QNTNZSDTAN4LJGYK","","img/set1/S3.jpg","83","3","structured_incentive","72","false","structured_incentive,structured_normal,random","1,2,2,3","",""
"null","","html-keyboard-response","306","333743","0.0-235.0","3RSDURM96B872CSQEUE629LXZVEYEW","A11YS0T8MV3Q7C","39N6W9XWRD9306QNTNZSDTAN4LJGYK","","<img src=""img/set1/S3.jpg"" width=""540"" height = ""360"">","null","","","","","","","",""
"null","","html-keyboard-response","307","333745","0.0-236.0","3RSDURM96B872CSQEUE629LXZVEYEW","A11YS0T8MV3Q7C","39N6W9XWRD9306QNTNZSDTAN4LJGYK","","","null","","","","","","","",""
"563","","image-keyboard-response","308","334310","0.0-237.0","3RSDURM96B872CSQEUE629LXZVEYEW","A11YS0T8MV3Q7C","39N6W9XWRD9306QNTNZSDTAN4LJGYK","","img/set1/S3.jpg","68","3","structured_incentive","72","false","structured_incentive,structured_normal,random","1,2,2,3","",""
"null","","html-keyboard-response","309","334663","0.0-238.0","3RSDURM96B872CSQEUE629LXZVEYEW","A11YS0T8MV3Q7C","39N6W9XWRD9306QNTNZSDTAN4LJGYK","","<img src=""img/set1/S3.jpg"" width=""540"" height = ""360"">","null","","","","","","","",""
"null","","html-keyboard-response","310","334665","0.0-239.0","3RSDURM96B872CSQEUE629LXZVEYEW","A11YS0T8MV3Q7C","39N6W9XWRD9306QNTNZSDTAN4LJGYK","","","null","","","","","","","",""
"931","","image-keyboard-response","311","335598","0.0-240.0","3RSDURM96B872CSQEUE629LXZVEYEW","A11YS0T8MV3Q7C","39N6W9XWRD9306QNTNZSDTAN4LJGYK","","img/set1/S1.jpg","83","1","structured_incentive","83","true","structured_incentive,structured_normal,random","1,2,2,3","",""
"null","","html-keyboard-response","312","335953","0.0-241.0","3RSDURM96B872CSQEUE629LXZVEYEW","A11YS0T8MV3Q7C","39N6W9XWRD9306QNTNZSDTAN4LJGYK","","<img src=""img/set1/S1.jpg"" width=""540"" height = ""360"" style=""border:16px solid orange"">","null","","","","","","","",""
"null","","html-keyboard-response","313","335955","0.0-242.0","3RSDURM96B872CSQEUE629LXZVEYEW","A11YS0T8MV3Q7C","39N6W9XWRD9306QNTNZSDTAN4LJGYK","","","null","","","","","","","",""
"794","","image-keyboard-response","314","336750","0.0-243.0","3RSDURM96B872CSQEUE629LXZVEYEW","A11YS0T8MV3Q7C","39N6W9XWRD9306QNTNZSDTAN4LJGYK","","img/set1/S2.jpg","68","2","structured_incentive","68","true","structured_incentive,structured_normal,random","1,2,2,3","",""
"null","","html-keyboard-response","315","337103","0.0-244.0","3RSDURM96B872CSQEUE629LXZVEYEW","A11YS0T8MV3Q7C","39N6W9XWRD9306QNTNZSDTAN4LJGYK","","<img src=""img/set1/S2.jpg"" width=""540"" height = ""360"" style=""border:16px solid orange"">","null","","","","","","","",""
"null","","html-keyboard-response","316","337105","0.0-245.0","3RSDURM96B872CSQEUE629LXZVEYEW","A11YS0T8MV3Q7C","39N6W9XWRD9306QNTNZSDTAN4LJGYK","","","null","","","","","","","",""
"764","","image-keyboard-response","317","337870","0.0-246.0","3RSDURM96B872CSQEUE629LXZVEYEW","A11YS0T8MV3Q7C","39N6W9XWRD9306QNTNZSDTAN4LJGYK","","img/set1/S1.jpg","83","1","structured_incentive","83","true","structured_incentive,structured_normal,random","1,2,2,3","",""
"null","","html-keyboard-response","318","338223","0.0-247.0","3RSDURM96B872CSQEUE629LXZVEYEW","A11YS0T8MV3Q7C","39N6W9XWRD9306QNTNZSDTAN4LJGYK","","<img src=""img/set1/S1.jpg"" width=""540"" height = ""360"" style=""border:16px solid orange"">","null","","","","","","","",""
"null","","html-keyboard-response","319","338225","0.0-248.0","3RSDURM96B872CSQEUE629LXZVEYEW","A11YS0T8MV3Q7C","39N6W9XWRD9306QNTNZSDTAN4LJGYK","","","null","","","","","","","",""
"676","","image-keyboard-response","320","338902","0.0-249.0","3RSDURM96B872CSQEUE629LXZVEYEW","A11YS0T8MV3Q7C","39N6W9XWRD9306QNTNZSDTAN4LJGYK","","img/set1/S3.jpg","74","3","structured_incentive","72","false","structured_incentive,structured_normal,random","1,2,2,3","",""
"null","","html-keyboard-response","321","339263","0.0-250.0","3RSDURM96B872CSQEUE629LXZVEYEW","A11YS0T8MV3Q7C","39N6W9XWRD9306QNTNZSDTAN4LJGYK","","<img src=""img/set1/S3.jpg"" width=""540"" height = ""360"">","null","","","","","","","",""
"null","","html-keyboard-response","322","339265","0.0-251.0","3RSDURM96B872CSQEUE629LXZVEYEW","A11YS0T8MV3Q7C","39N6W9XWRD9306QNTNZSDTAN4LJGYK","","","null","","","","","","","",""
"819","","image-keyboard-response","323","340086","0.0-252.0","3RSDURM96B872CSQEUE629LXZVEYEW","A11YS0T8MV3Q7C","39N6W9XWRD9306QNTNZSDTAN4LJGYK","","img/set1/S1.jpg","68","1","structured_incentive","83","false","structured_incentive,structured_normal,random","1,2,2,3","",""
"null","","html-keyboard-response","324","340443","0.0-253.0","3RSDURM96B872CSQEUE629LXZVEYEW","A11YS0T8MV3Q7C","39N6W9XWRD9306QNTNZSDTAN4LJGYK","","<img src=""img/set1/S1.jpg"" width=""540"" height = ""360"">","null","","","","","","","",""
"null","","html-keyboard-response","325","340445","0.0-254.0","3RSDURM96B872CSQEUE629LXZVEYEW","A11YS0T8MV3Q7C","39N6W9XWRD9306QNTNZSDTAN4LJGYK","","","null","","","","","","","",""
"936","","image-keyboard-response","326","341382","0.0-255.0","3RSDURM96B872CSQEUE629LXZVEYEW","A11YS0T8MV3Q7C","39N6W9XWRD9306QNTNZSDTAN4LJGYK","","img/set1/S2.jpg","68","2","structured_incentive","68","true","structured_incentive,structured_normal,random","1,2,2,3","",""
"null","","html-keyboard-response","327","341734","0.0-256.0","3RSDURM96B872CSQEUE629LXZVEYEW","A11YS0T8MV3Q7C","39N6W9XWRD9306QNTNZSDTAN4LJGYK","","<img src=""img/set1/S2.jpg"" width=""540"" height = ""360"" style=""border:16px solid orange"">","null","","","","","","","",""
"null","","html-keyboard-response","328","341736","0.0-257.0","3RSDURM96B872CSQEUE629LXZVEYEW","A11YS0T8MV3Q7C","39N6W9XWRD9306QNTNZSDTAN4LJGYK","","","null","","","","","","","",""
"925","","image-keyboard-response","329","342662","0.0-258.0","3RSDURM96B872CSQEUE629LXZVEYEW","A11YS0T8MV3Q7C","39N6W9XWRD9306QNTNZSDTAN4LJGYK","","img/set1/S4.jpg","74","4","structured_incentive","74","true","structured_incentive,structured_normal,random","1,2,2,3","",""
"null","","html-keyboard-response","330","343014","0.0-259.0","3RSDURM96B872CSQEUE629LXZVEYEW","A11YS0T8MV3Q7C","39N6W9XWRD9306QNTNZSDTAN4LJGYK","","<img src=""img/set1/S4.jpg"" width=""540"" height = ""360"" style=""border:16px solid orange"">","null","","","","","","","",""
"null","","html-keyboard-response","331","343015","0.0-260.0","3RSDURM96B872CSQEUE629LXZVEYEW","A11YS0T8MV3Q7C","39N6W9XWRD9306QNTNZSDTAN4LJGYK","","","null","","","","","","","",""
"484","","image-keyboard-response","332","343502","0.0-261.0","3RSDURM96B872CSQEUE629LXZVEYEW","A11YS0T8MV3Q7C","39N6W9XWRD9306QNTNZSDTAN4LJGYK","","img/set1/S4.jpg","74","4","structured_incentive","74","true","structured_incentive,structured_normal,random","1,2,2,3","",""
"null","","html-keyboard-response","333","343854","0.0-262.0","3RSDURM96B872CSQEUE629LXZVEYEW","A11YS0T8MV3Q7C","39N6W9XWRD9306QNTNZSDTAN4LJGYK","","<img src=""img/set1/S4.jpg"" width=""540"" height = ""360"" style=""border:16px solid orange"">","null","","","","","","","",""
"null","","html-keyboard-response","334","343856","0.0-263.0","3RSDURM96B872CSQEUE629LXZVEYEW","A11YS0T8MV3Q7C","39N6W9XWRD9306QNTNZSDTAN4LJGYK","","","null","","","","","","","",""
"453","","image-keyboard-response","335","344310","0.0-264.0","3RSDURM96B872CSQEUE629LXZVEYEW","A11YS0T8MV3Q7C","39N6W9XWRD9306QNTNZSDTAN4LJGYK","","img/set1/S4.jpg","74","4","structured_incentive","74","true","structured_incentive,structured_normal,random","1,2,2,3","",""
"null","","html-keyboard-response","336","344664","0.0-265.0","3RSDURM96B872CSQEUE629LXZVEYEW","A11YS0T8MV3Q7C","39N6W9XWRD9306QNTNZSDTAN4LJGYK","","<img src=""img/set1/S4.jpg"" width=""540"" height = ""360"" style=""border:16px solid orange"">","null","","","","","","","",""
"null","","html-keyboard-response","337","344666","0.0-266.0","3RSDURM96B872CSQEUE629LXZVEYEW","A11YS0T8MV3Q7C","39N6W9XWRD9306QNTNZSDTAN4LJGYK","","","null","","","","","","","",""
"379","","image-keyboard-response","338","345046","0.0-267.0","3RSDURM96B872CSQEUE629LXZVEYEW","A11YS0T8MV3Q7C","39N6W9XWRD9306QNTNZSDTAN4LJGYK","","img/set1/S4.jpg","74","4","structured_incentive","74","true","structured_incentive,structured_normal,random","1,2,2,3","",""
"null","","html-keyboard-response","339","345404","0.0-268.0","3RSDURM96B872CSQEUE629LXZVEYEW","A11YS0T8MV3Q7C","39N6W9XWRD9306QNTNZSDTAN4LJGYK","","<img src=""img/set1/S4.jpg"" width=""540"" height = ""360"" style=""border:16px solid orange"">","null","","","","","","","",""
"null","","html-keyboard-response","340","345406","0.0-269.0","3RSDURM96B872CSQEUE629LXZVEYEW","A11YS0T8MV3Q7C","39N6W9XWRD9306QNTNZSDTAN4LJGYK","","","null","","","","","","","",""
"519","","image-keyboard-response","341","345926","0.0-270.0","3RSDURM96B872CSQEUE629LXZVEYEW","A11YS0T8MV3Q7C","39N6W9XWRD9306QNTNZSDTAN4LJGYK","","img/set1/S1.jpg","83","1","structured_incentive","83","true","structured_incentive,structured_normal,random","1,2,2,3","",""
"null","","html-keyboard-response","342","346283","0.0-271.0","3RSDURM96B872CSQEUE629LXZVEYEW","A11YS0T8MV3Q7C","39N6W9XWRD9306QNTNZSDTAN4LJGYK","","<img src=""img/set1/S1.jpg"" width=""540"" height = ""360"" style=""border:16px solid orange"">","null","","","","","","","",""
"null","","html-keyboard-response","343","346286","0.0-272.0","3RSDURM96B872CSQEUE629LXZVEYEW","A11YS0T8MV3Q7C","39N6W9XWRD9306QNTNZSDTAN4LJGYK","","","null","","","","","","","",""
"671","","image-keyboard-response","344","346958","0.0-273.0","3RSDURM96B872CSQEUE629LXZVEYEW","A11YS0T8MV3Q7C","39N6W9XWRD9306QNTNZSDTAN4LJGYK","","img/set1/S2.jpg","68","2","structured_incentive","68","true","structured_incentive,structured_normal,random","1,2,2,3","",""
"null","","html-keyboard-response","345","347316","0.0-274.0","3RSDURM96B872CSQEUE629LXZVEYEW","A11YS0T8MV3Q7C","39N6W9XWRD9306QNTNZSDTAN4LJGYK","","<img src=""img/set1/S2.jpg"" width=""540"" height = ""360"" style=""border:16px solid orange"">","null","","","","","","","",""
"null","","html-keyboard-response","346","347318","0.0-275.0","3RSDURM96B872CSQEUE629LXZVEYEW","A11YS0T8MV3Q7C","39N6W9XWRD9306QNTNZSDTAN4LJGYK","","","null","","","","","","","",""
"655","","image-keyboard-response","347","347974","0.0-276.0","3RSDURM96B872CSQEUE629LXZVEYEW","A11YS0T8MV3Q7C","39N6W9XWRD9306QNTNZSDTAN4LJGYK","","img/set1/S4.jpg","74","4","structured_incentive","74","true","structured_incentive,structured_normal,random","1,2,2,3","",""
"null","","html-keyboard-response","348","348326","0.0-277.0","3RSDURM96B872CSQEUE629LXZVEYEW","A11YS0T8MV3Q7C","39N6W9XWRD9306QNTNZSDTAN4LJGYK","","<img src=""img/set1/S4.jpg"" width=""540"" height = ""360"" style=""border:16px solid orange"">","null","","","","","","","",""
"null","","html-keyboard-response","349","348328","0.0-278.0","3RSDURM96B872CSQEUE629LXZVEYEW","A11YS0T8MV3Q7C","39N6W9XWRD9306QNTNZSDTAN4LJGYK","","","null","","","","","","","",""
"373","","image-keyboard-response","350","348701","0.0-279.0","3RSDURM96B872CSQEUE629LXZVEYEW","A11YS0T8MV3Q7C","39N6W9XWRD9306QNTNZSDTAN4LJGYK","","img/set1/S4.jpg","74","4","structured_incentive","74","true","structured_incentive,structured_normal,random","1,2,2,3","",""
"null","","html-keyboard-response","351","349056","0.0-280.0","3RSDURM96B872CSQEUE629LXZVEYEW","A11YS0T8MV3Q7C","39N6W9XWRD9306QNTNZSDTAN4LJGYK","","<img src=""img/set1/S4.jpg"" width=""540"" height = ""360"" style=""border:16px solid orange"">","null","","","","","","","",""
"null","","html-keyboard-response","352","349058","0.0-281.0","3RSDURM96B872CSQEUE629LXZVEYEW","A11YS0T8MV3Q7C","39N6W9XWRD9306QNTNZSDTAN4LJGYK","","","null","","","","","","","",""
"538","","image-keyboard-response","353","349598","0.0-282.0","3RSDURM96B872CSQEUE629LXZVEYEW","A11YS0T8MV3Q7C","39N6W9XWRD9306QNTNZSDTAN4LJGYK","","img/set1/S1.jpg","83","1","structured_incentive","83","true","structured_incentive,structured_normal,random","1,2,2,3","",""
"null","","html-keyboard-response","354","349956","0.0-283.0","3RSDURM96B872CSQEUE629LXZVEYEW","A11YS0T8MV3Q7C","39N6W9XWRD9306QNTNZSDTAN4LJGYK","","<img src=""img/set1/S1.jpg"" width=""540"" height = ""360"" style=""border:16px solid orange"">","null","","","","","","","",""
"null","","html-keyboard-response","355","349959","0.0-284.0","3RSDURM96B872CSQEUE629LXZVEYEW","A11YS0T8MV3Q7C","39N6W9XWRD9306QNTNZSDTAN4LJGYK","","","null","","","","","","","",""
"621","","image-keyboard-response","356","350582","0.0-285.0","3RSDURM96B872CSQEUE629LXZVEYEW","A11YS0T8MV3Q7C","39N6W9XWRD9306QNTNZSDTAN4LJGYK","","img/set1/S2.jpg","68","2","structured_incentive","68","true","structured_incentive,structured_normal,random","1,2,2,3","",""
"null","","html-keyboard-response","357","350936","0.0-286.0","3RSDURM96B872CSQEUE629LXZVEYEW","A11YS0T8MV3Q7C","39N6W9XWRD9306QNTNZSDTAN4LJGYK","","<img src=""img/set1/S2.jpg"" width=""540"" height = ""360"" style=""border:16px solid orange"">","null","","","","","","","",""
"null","","html-keyboard-response","358","350938","0.0-287.0","3RSDURM96B872CSQEUE629LXZVEYEW","A11YS0T8MV3Q7C","39N6W9XWRD9306QNTNZSDTAN4LJGYK","","","null","","","","","","","",""
"547","","image-keyboard-response","359","351486","0.0-288.0","3RSDURM96B872CSQEUE629LXZVEYEW","A11YS0T8MV3Q7C","39N6W9XWRD9306QNTNZSDTAN4LJGYK","","img/set1/S4.jpg","74","4","structured_incentive","74","true","structured_incentive,structured_normal,random","1,2,2,3","",""
"null","","html-keyboard-response","360","351846","0.0-289.0","3RSDURM96B872CSQEUE629LXZVEYEW","A11YS0T8MV3Q7C","39N6W9XWRD9306QNTNZSDTAN4LJGYK","","<img src=""img/set1/S4.jpg"" width=""540"" height = ""360"" style=""border:16px solid orange"">","null","","","","","","","",""
"null","","html-keyboard-response","361","351848","0.0-290.0","3RSDURM96B872CSQEUE629LXZVEYEW","A11YS0T8MV3Q7C","39N6W9XWRD9306QNTNZSDTAN4LJGYK","","","null","","","","","","","",""
"573","","image-keyboard-response","362","352422","0.0-291.0","3RSDURM96B872CSQEUE629LXZVEYEW","A11YS0T8MV3Q7C","39N6W9XWRD9306QNTNZSDTAN4LJGYK","","img/set1/S1.jpg","83","1","structured_incentive","83","true","structured_incentive,structured_normal,random","1,2,2,3","",""
"null","","html-keyboard-response","363","352776","0.0-292.0","3RSDURM96B872CSQEUE629LXZVEYEW","A11YS0T8MV3Q7C","39N6W9XWRD9306QNTNZSDTAN4LJGYK","","<img src=""img/set1/S1.jpg"" width=""540"" height = ""360"" style=""border:16px solid orange"">","null","","","","","","","",""
"null","","html-keyboard-response","364","352778","0.0-293.0","3RSDURM96B872CSQEUE629LXZVEYEW","A11YS0T8MV3Q7C","39N6W9XWRD9306QNTNZSDTAN4LJGYK","","","null","","","","","","","",""
"1715","","image-keyboard-response","365","354494","0.0-294.0","3RSDURM96B872CSQEUE629LXZVEYEW","A11YS0T8MV3Q7C","39N6W9XWRD9306QNTNZSDTAN4LJGYK","","img/set1/S3.jpg","68","3","structured_incentive","72","false","structured_incentive,structured_normal,random","1,2,2,3","",""
"null","","html-keyboard-response","366","354846","0.0-295.0","3RSDURM96B872CSQEUE629LXZVEYEW","A11YS0T8MV3Q7C","39N6W9XWRD9306QNTNZSDTAN4LJGYK","","<img src=""img/set1/S3.jpg"" width=""540"" height = ""360"">","null","","","","","","","",""
"null","","html-keyboard-response","367","354848","0.0-296.0","3RSDURM96B872CSQEUE629LXZVEYEW","A11YS0T8MV3Q7C","39N6W9XWRD9306QNTNZSDTAN4LJGYK","","","null","","","","","","","",""
"589","","image-keyboard-response","368","355438","0.0-297.0","3RSDURM96B872CSQEUE629LXZVEYEW","A11YS0T8MV3Q7C","39N6W9XWRD9306QNTNZSDTAN4LJGYK","","img/set1/S1.jpg","83","1","structured_incentive","83","true","structured_incentive,structured_normal,random","1,2,2,3","",""
"null","","html-keyboard-response","369","355796","0.0-298.0","3RSDURM96B872CSQEUE629LXZVEYEW","A11YS0T8MV3Q7C","39N6W9XWRD9306QNTNZSDTAN4LJGYK","","<img src=""img/set1/S1.jpg"" width=""540"" height = ""360"" style=""border:16px solid orange"">","null","","","","","","","",""
"null","","html-keyboard-response","370","355798","0.0-299.0","3RSDURM96B872CSQEUE629LXZVEYEW","A11YS0T8MV3Q7C","39N6W9XWRD9306QNTNZSDTAN4LJGYK","","","null","","","","","","","",""
"679","","image-keyboard-response","371","356478","0.0-300.0","3RSDURM96B872CSQEUE629LXZVEYEW","A11YS0T8MV3Q7C","39N6W9XWRD9306QNTNZSDTAN4LJGYK","","img/set1/S2.jpg","74","2","structured_incentive","68","false","structured_incentive,structured_normal,random","1,2,2,3","",""
"null","","html-keyboard-response","372","356836","0.0-301.0","3RSDURM96B872CSQEUE629LXZVEYEW","A11YS0T8MV3Q7C","39N6W9XWRD9306QNTNZSDTAN4LJGYK","","<img src=""img/set1/S2.jpg"" width=""540"" height = ""360"">","null","","","","","","","",""
"null","","html-keyboard-response","373","356838","0.0-302.0","3RSDURM96B872CSQEUE629LXZVEYEW","A11YS0T8MV3Q7C","39N6W9XWRD9306QNTNZSDTAN4LJGYK","","","null","","","","","","","",""
"54","","image-keyboard-response","374","356894","0.0-303.0","3RSDURM96B872CSQEUE629LXZVEYEW","A11YS0T8MV3Q7C","39N6W9XWRD9306QNTNZSDTAN4LJGYK","","img/set1/S4.jpg","83","4","structured_incentive","74","false","structured_incentive,structured_normal,random","1,2,2,3","",""
"null","","html-keyboard-response","375","357246","0.0-304.0","3RSDURM96B872CSQEUE629LXZVEYEW","A11YS0T8MV3Q7C","39N6W9XWRD9306QNTNZSDTAN4LJGYK","","<img src=""img/set1/S4.jpg"" width=""540"" height = ""360"">","null","","","","","","","",""
"null","","html-keyboard-response","376","357247","0.0-305.0","3RSDURM96B872CSQEUE629LXZVEYEW","A11YS0T8MV3Q7C","39N6W9XWRD9306QNTNZSDTAN4LJGYK","","","null","","","","","","","",""
"765","","image-keyboard-response","377","358014","0.0-306.0","3RSDURM96B872CSQEUE629LXZVEYEW","A11YS0T8MV3Q7C","39N6W9XWRD9306QNTNZSDTAN4LJGYK","","img/set1/S1.jpg","83","1","structured_incentive","83","true","structured_incentive,structured_normal,random","1,2,2,3","",""
"null","","html-keyboard-response","378","358366","0.0-307.0","3RSDURM96B872CSQEUE629LXZVEYEW","A11YS0T8MV3Q7C","39N6W9XWRD9306QNTNZSDTAN4LJGYK","","<img src=""img/set1/S1.jpg"" width=""540"" height = ""360"" style=""border:16px solid orange"">","null","","","","","","","",""
"null","","html-keyboard-response","379","358367","0.0-308.0","3RSDURM96B872CSQEUE629LXZVEYEW","A11YS0T8MV3Q7C","39N6W9XWRD9306QNTNZSDTAN4LJGYK","","","null","","","","","","","",""
"661","","image-keyboard-response","380","359030","0.0-309.0","3RSDURM96B872CSQEUE629LXZVEYEW","A11YS0T8MV3Q7C","39N6W9XWRD9306QNTNZSDTAN4LJGYK","","img/set1/S2.jpg","68","2","structured_incentive","68","true","structured_incentive,structured_normal,random","1,2,2,3","",""
"null","","html-keyboard-response","381","359386","0.0-310.0","3RSDURM96B872CSQEUE629LXZVEYEW","A11YS0T8MV3Q7C","39N6W9XWRD9306QNTNZSDTAN4LJGYK","","<img src=""img/set1/S2.jpg"" width=""540"" height = ""360"" style=""border:16px solid orange"">","null","","","","","","","",""
"null","","html-keyboard-response","382","359388","0.0-311.0","3RSDURM96B872CSQEUE629LXZVEYEW","A11YS0T8MV3Q7C","39N6W9XWRD9306QNTNZSDTAN4LJGYK","","","null","","","","","","","",""
"617","","image-keyboard-response","383","360006","0.0-312.0","3RSDURM96B872CSQEUE629LXZVEYEW","A11YS0T8MV3Q7C","39N6W9XWRD9306QNTNZSDTAN4LJGYK","","img/set1/S1.jpg","83","1","structured_incentive","83","true","structured_incentive,structured_normal,random","1,2,2,3","",""
"null","","html-keyboard-response","384","360366","0.0-313.0","3RSDURM96B872CSQEUE629LXZVEYEW","A11YS0T8MV3Q7C","39N6W9XWRD9306QNTNZSDTAN4LJGYK","","<img src=""img/set1/S1.jpg"" width=""540"" height = ""360"" style=""border:16px solid orange"">","null","","","","","","","",""
"null","","html-keyboard-response","385","360368","0.0-314.0","3RSDURM96B872CSQEUE629LXZVEYEW","A11YS0T8MV3Q7C","39N6W9XWRD9306QNTNZSDTAN4LJGYK","","","null","","","","","","","",""
"644","","image-keyboard-response","386","361014","0.0-315.0","3RSDURM96B872CSQEUE629LXZVEYEW","A11YS0T8MV3Q7C","39N6W9XWRD9306QNTNZSDTAN4LJGYK","","img/set1/S2.jpg","68","2","structured_incentive","68","true","structured_incentive,structured_normal,random","1,2,2,3","",""
"null","","html-keyboard-response","387","361366","0.0-316.0","3RSDURM96B872CSQEUE629LXZVEYEW","A11YS0T8MV3Q7C","39N6W9XWRD9306QNTNZSDTAN4LJGYK","","<img src=""img/set1/S2.jpg"" width=""540"" height = ""360"" style=""border:16px solid orange"">","null","","","","","","","",""
"null","","html-keyboard-response","388","361368","0.0-317.0","3RSDURM96B872CSQEUE629LXZVEYEW","A11YS0T8MV3Q7C","39N6W9XWRD9306QNTNZSDTAN4LJGYK","","","null","","","","","","","",""
"604","","image-keyboard-response","389","361974","0.0-318.0","3RSDURM96B872CSQEUE629LXZVEYEW","A11YS0T8MV3Q7C","39N6W9XWRD9306QNTNZSDTAN4LJGYK","","img/set1/S1.jpg","83","1","structured_incentive","83","true","structured_incentive,structured_normal,random","1,2,2,3","",""
"null","","html-keyboard-response","390","362326","0.0-319.0","3RSDURM96B872CSQEUE629LXZVEYEW","A11YS0T8MV3Q7C","39N6W9XWRD9306QNTNZSDTAN4LJGYK","","<img src=""img/set1/S1.jpg"" width=""540"" height = ""360"" style=""border:16px solid orange"">","null","","","","","","","",""
"null","","html-keyboard-response","391","362328","0.0-320.0","3RSDURM96B872CSQEUE629LXZVEYEW","A11YS0T8MV3Q7C","39N6W9XWRD9306QNTNZSDTAN4LJGYK","","","null","","","","","","","",""
"565","","image-keyboard-response","392","362894","0.0-321.0","3RSDURM96B872CSQEUE629LXZVEYEW","A11YS0T8MV3Q7C","39N6W9XWRD9306QNTNZSDTAN4LJGYK","","img/set1/S2.jpg","68","2","structured_incentive","68","true","structured_incentive,structured_normal,random","1,2,2,3","",""
"null","","html-keyboard-response","393","363246","0.0-322.0","3RSDURM96B872CSQEUE629LXZVEYEW","A11YS0T8MV3Q7C","39N6W9XWRD9306QNTNZSDTAN4LJGYK","","<img src=""img/set1/S2.jpg"" width=""540"" height = ""360"" style=""border:16px solid orange"">","null","","","","","","","",""
"null","","html-keyboard-response","394","363248","0.0-323.0","3RSDURM96B872CSQEUE629LXZVEYEW","A11YS0T8MV3Q7C","39N6W9XWRD9306QNTNZSDTAN4LJGYK","","","null","","","","","","","",""
"1925","","image-keyboard-response","395","365174","0.0-324.0","3RSDURM96B872CSQEUE629LXZVEYEW","A11YS0T8MV3Q7C","39N6W9XWRD9306QNTNZSDTAN4LJGYK","","img/set1/S3.jpg","83","3","structured_incentive","72","false","structured_incentive,structured_normal,random","1,2,2,3","",""
"null","","html-keyboard-response","396","365527","0.0-325.0","3RSDURM96B872CSQEUE629LXZVEYEW","A11YS0T8MV3Q7C","39N6W9XWRD9306QNTNZSDTAN4LJGYK","","<img src=""img/set1/S3.jpg"" width=""540"" height = ""360"">","null","","","","","","","",""
"null","","html-keyboard-response","397","365529","0.0-326.0","3RSDURM96B872CSQEUE629LXZVEYEW","A11YS0T8MV3Q7C","39N6W9XWRD9306QNTNZSDTAN4LJGYK","","","null","","","","","","","",""
"715","","image-keyboard-response","398","366246","0.0-327.0","3RSDURM96B872CSQEUE629LXZVEYEW","A11YS0T8MV3Q7C","39N6W9XWRD9306QNTNZSDTAN4LJGYK","","img/set1/S4.jpg","74","4","structured_incentive","74","true","structured_incentive,structured_normal,random","1,2,2,3","",""
"null","","html-keyboard-response","399","366607","0.0-328.0","3RSDURM96B872CSQEUE629LXZVEYEW","A11YS0T8MV3Q7C","39N6W9XWRD9306QNTNZSDTAN4LJGYK","","<img src=""img/set1/S4.jpg"" width=""540"" height = ""360"" style=""border:16px solid orange"">","null","","","","","","","",""
"null","","html-keyboard-response","400","366609","0.0-329.0","3RSDURM96B872CSQEUE629LXZVEYEW","A11YS0T8MV3Q7C","39N6W9XWRD9306QNTNZSDTAN4LJGYK","","","null","","","","","","","",""
"675","","image-keyboard-response","401","367286","0.0-330.0","3RSDURM96B872CSQEUE629LXZVEYEW","A11YS0T8MV3Q7C","39N6W9XWRD9306QNTNZSDTAN4LJGYK","","img/set1/S1.jpg","83","1","structured_incentive","83","true","structured_incentive,structured_normal,random","1,2,2,3","",""
"null","","html-keyboard-response","402","367647","0.0-331.0","3RSDURM96B872CSQEUE629LXZVEYEW","A11YS0T8MV3Q7C","39N6W9XWRD9306QNTNZSDTAN4LJGYK","","<img src=""img/set1/S1.jpg"" width=""540"" height = ""360"" style=""border:16px solid orange"">","null","","","","","","","",""
"null","","html-keyboard-response","403","367649","0.0-332.0","3RSDURM96B872CSQEUE629LXZVEYEW","A11YS0T8MV3Q7C","39N6W9XWRD9306QNTNZSDTAN4LJGYK","","","null","","","","","","","",""
"916","","image-keyboard-response","404","368566","0.0-333.0","3RSDURM96B872CSQEUE629LXZVEYEW","A11YS0T8MV3Q7C","39N6W9XWRD9306QNTNZSDTAN4LJGYK","","img/set1/S3.jpg","68","3","structured_incentive","72","false","structured_incentive,structured_normal,random","1,2,2,3","",""
"null","","html-keyboard-response","405","368927","0.0-334.0","3RSDURM96B872CSQEUE629LXZVEYEW","A11YS0T8MV3Q7C","39N6W9XWRD9306QNTNZSDTAN4LJGYK","","<img src=""img/set1/S3.jpg"" width=""540"" height = ""360"">","null","","","","","","","",""
"null","","html-keyboard-response","406","368929","0.0-335.0","3RSDURM96B872CSQEUE629LXZVEYEW","A11YS0T8MV3Q7C","39N6W9XWRD9306QNTNZSDTAN4LJGYK","","","null","","","","","","","",""
"628","","image-keyboard-response","407","369558","0.0-336.0","3RSDURM96B872CSQEUE629LXZVEYEW","A11YS0T8MV3Q7C","39N6W9XWRD9306QNTNZSDTAN4LJGYK","","img/set1/S1.jpg","83","1","structured_incentive","83","true","structured_incentive,structured_normal,random","1,2,2,3","",""
"null","","html-keyboard-response","408","369917","0.0-337.0","3RSDURM96B872CSQEUE629LXZVEYEW","A11YS0T8MV3Q7C","39N6W9XWRD9306QNTNZSDTAN4LJGYK","","<img src=""img/set1/S1.jpg"" width=""540"" height = ""360"" style=""border:16px solid orange"">","null","","","","","","","",""
"null","","html-keyboard-response","409","369919","0.0-338.0","3RSDURM96B872CSQEUE629LXZVEYEW","A11YS0T8MV3Q7C","39N6W9XWRD9306QNTNZSDTAN4LJGYK","","","null","","","","","","","",""
"852","","image-keyboard-response","410","370774","0.0-339.0","3RSDURM96B872CSQEUE629LXZVEYEW","A11YS0T8MV3Q7C","39N6W9XWRD9306QNTNZSDTAN4LJGYK","","img/set1/S2.jpg","68","2","structured_incentive","68","true","structured_incentive,structured_normal,random","1,2,2,3","",""
"null","","html-keyboard-response","411","371127","0.0-340.0","3RSDURM96B872CSQEUE629LXZVEYEW","A11YS0T8MV3Q7C","39N6W9XWRD9306QNTNZSDTAN4LJGYK","","<img src=""img/set1/S2.jpg"" width=""540"" height = ""360"" style=""border:16px solid orange"">","null","","","","","","","",""
"null","","html-keyboard-response","412","371129","0.0-341.0","3RSDURM96B872CSQEUE629LXZVEYEW","A11YS0T8MV3Q7C","39N6W9XWRD9306QNTNZSDTAN4LJGYK","","","null","","","","","","","",""
"1012","","image-keyboard-response","413","372142","0.0-342.0","3RSDURM96B872CSQEUE629LXZVEYEW","A11YS0T8MV3Q7C","39N6W9XWRD9306QNTNZSDTAN4LJGYK","","img/set1/S3.jpg","74","3","structured_incentive","72","false","structured_incentive,structured_normal,random","1,2,2,3","",""
"null","","html-keyboard-response","414","372497","0.0-343.0","3RSDURM96B872CSQEUE629LXZVEYEW","A11YS0T8MV3Q7C","39N6W9XWRD9306QNTNZSDTAN4LJGYK","","<img src=""img/set1/S3.jpg"" width=""540"" height = ""360"">","null","","","","","","","",""
"null","","html-keyboard-response","415","372498","0.0-344.0","3RSDURM96B872CSQEUE629LXZVEYEW","A11YS0T8MV3Q7C","39N6W9XWRD9306QNTNZSDTAN4LJGYK","","","null","","","","","","","",""
"954","","image-keyboard-response","416","373454","0.0-345.0","3RSDURM96B872CSQEUE629LXZVEYEW","A11YS0T8MV3Q7C","39N6W9XWRD9306QNTNZSDTAN4LJGYK","","img/set1/S4.jpg","68","4","structured_incentive","74","false","structured_incentive,structured_normal,random","1,2,2,3","",""
"null","","html-keyboard-response","417","373807","0.0-346.0","3RSDURM96B872CSQEUE629LXZVEYEW","A11YS0T8MV3Q7C","39N6W9XWRD9306QNTNZSDTAN4LJGYK","","<img src=""img/set1/S4.jpg"" width=""540"" height = ""360"">","null","","","","","","","",""
