"rt","url","trial_type","trial_index","time_elapsed","internal_node_id","assignmentID","mturkID","hitID","view_history","stimulus","key_press","state","test_part","correct_response","correct","order_block","order_chunk","bonus","responses"
"30611","consent.html","external-html","0","30690","0.0-0.0","3S96KQ6I9NQ6TKFW8TGNOABXKHVTD9","A19M1TGTL9HKHB","33Q5P9PUSP8QOKKNNN5S19YACNVCZX","","","","","","","","","","",""
"274260","","instructions","1","304955","0.0-1.0","3S96KQ6I9NQ6TKFW8TGNOABXKHVTD9","A19M1TGTL9HKHB","33Q5P9PUSP8QOKKNNN5S19YACNVCZX","[{""page_index"":0,""viewing_time"":77732},{""page_index"":1,""viewing_time"":27117},{""page_index"":2,""viewing_time"":23141},{""page_index"":3,""viewing_time"":30059},{""page_index"":4,""viewing_time"":27992},{""page_index"":5,""viewing_time"":40899},{""page_index"":6,""viewing_time"":15270},{""page_index"":7,""viewing_time"":32049}]","","","","","","","","","",""
"1904","","image-keyboard-response","2","306863","0.0-2.0-0.0","3S96KQ6I9NQ6TKFW8TGNOABXKHVTD9","A19M1TGTL9HKHB","33Q5P9PUSP8QOKKNNN5S19YACNVCZX","","img/practice/S2.jpg","74","2","practice","68","false","","","",""
"null","","html-keyboard-response","3","307171","0.0-2.0-1.0","3S96KQ6I9NQ6TKFW8TGNOABXKHVTD9","A19M1TGTL9HKHB","33Q5P9PUSP8QOKKNNN5S19YACNVCZX","","<img src=""img/practice/S2.jpg"" width=""540"" height = ""360"">","null","","","","","","","",""
"null","","html-keyboard-response","4","307173","0.0-2.0-2.0","3S96KQ6I9NQ6TKFW8TGNOABXKHVTD9","A19M1TGTL9HKHB","33Q5P9PUSP8QOKKNNN5S19YACNVCZX","","","null","","","","","","","",""
"1066","","image-keyboard-response","5","308243","0.0-2.0-0.1","3S96KQ6I9NQ6TKFW8TGNOABXKHVTD9","A19M1TGTL9HKHB","33Q5P9PUSP8QOKKNNN5S19YACNVCZX","","img/practice/S3.jpg","72","3","practice","72","true","","","",""
"null","","html-keyboard-response","6","308562","0.0-2.0-1.1","3S96KQ6I9NQ6TKFW8TGNOABXKHVTD9","A19M1TGTL9HKHB","33Q5P9PUSP8QOKKNNN5S19YACNVCZX","","<img src=""img/practice/S3.jpg"" width=""540"" height = ""360"" style=""border:16px solid orange"">","null","","","","","","","",""
"null","","html-keyboard-response","7","308563","0.0-2.0-2.1","3S96KQ6I9NQ6TKFW8TGNOABXKHVTD9","A19M1TGTL9HKHB","33Q5P9PUSP8QOKKNNN5S19YACNVCZX","","","null","","","","","","","",""
"1172","","image-keyboard-response","8","309737","0.0-2.0-0.2","3S96KQ6I9NQ6TKFW8TGNOABXKHVTD9","A19M1TGTL9HKHB","33Q5P9PUSP8QOKKNNN5S19YACNVCZX","","img/practice/S1.jpg","72","1","practice","83","false","","","",""
"null","","html-keyboard-response","9","310041","0.0-2.0-1.2","3S96KQ6I9NQ6TKFW8TGNOABXKHVTD9","A19M1TGTL9HKHB","33Q5P9PUSP8QOKKNNN5S19YACNVCZX","","<img src=""img/practice/S1.jpg"" width=""540"" height = ""360"">","null","","","","","","","",""
"null","","html-keyboard-response","10","310043","0.0-2.0-2.2","3S96KQ6I9NQ6TKFW8TGNOABXKHVTD9","A19M1TGTL9HKHB","33Q5P9PUSP8QOKKNNN5S19YACNVCZX","","","null","","","","","","","",""
"1059","","image-keyboard-response","11","311103","0.0-2.0-0.3","3S96KQ6I9NQ6TKFW8TGNOABXKHVTD9","A19M1TGTL9HKHB","33Q5P9PUSP8QOKKNNN5S19YACNVCZX","","img/practice/S4.jpg","72","4","practice","74","false","","","",""
"null","","html-keyboard-response","12","311421","0.0-2.0-1.3","3S96KQ6I9NQ6TKFW8TGNOABXKHVTD9","A19M1TGTL9HKHB","33Q5P9PUSP8QOKKNNN5S19YACNVCZX","","<img src=""img/practice/S4.jpg"" width=""540"" height = ""360"">","null","","","","","","","",""
"null","","html-keyboard-response","13","311423","0.0-2.0-2.3","3S96KQ6I9NQ6TKFW8TGNOABXKHVTD9","A19M1TGTL9HKHB","33Q5P9PUSP8QOKKNNN5S19YACNVCZX","","","null","","","","","","","",""
"563","","image-keyboard-response","14","311989","0.0-2.0-0.4","3S96KQ6I9NQ6TKFW8TGNOABXKHVTD9","A19M1TGTL9HKHB","33Q5P9PUSP8QOKKNNN5S19YACNVCZX","","img/practice/S3.jpg","83","3","practice","72","false","","","",""
"null","","html-keyboard-response","15","312291","0.0-2.0-1.4","3S96KQ6I9NQ6TKFW8TGNOABXKHVTD9","A19M1TGTL9HKHB","33Q5P9PUSP8QOKKNNN5S19YACNVCZX","","<img src=""img/practice/S3.jpg"" width=""540"" height = ""360"">","null","","","","","","","",""
"null","","html-keyboard-response","16","312293","0.0-2.0-2.4","3S96KQ6I9NQ6TKFW8TGNOABXKHVTD9","A19M1TGTL9HKHB","33Q5P9PUSP8QOKKNNN5S19YACNVCZX","","","null","","","","","","","",""
"884","","image-keyboard-response","17","313178","0.0-2.0-0.5","3S96KQ6I9NQ6TKFW8TGNOABXKHVTD9","A19M1TGTL9HKHB","33Q5P9PUSP8QOKKNNN5S19YACNVCZX","","img/practice/S2.jpg","68","2","practice","68","true","","","",""
"null","","html-keyboard-response","18","313490","0.0-2.0-1.5","3S96KQ6I9NQ6TKFW8TGNOABXKHVTD9","A19M1TGTL9HKHB","33Q5P9PUSP8QOKKNNN5S19YACNVCZX","","<img src=""img/practice/S2.jpg"" width=""540"" height = ""360"" style=""border:16px solid orange"">","null","","","","","","","",""
"null","","html-keyboard-response","19","313492","0.0-2.0-2.5","3S96KQ6I9NQ6TKFW8TGNOABXKHVTD9","A19M1TGTL9HKHB","33Q5P9PUSP8QOKKNNN5S19YACNVCZX","","","null","","","","","","","",""
"1215","","image-keyboard-response","20","314710","0.0-2.0-0.6","3S96KQ6I9NQ6TKFW8TGNOABXKHVTD9","A19M1TGTL9HKHB","33Q5P9PUSP8QOKKNNN5S19YACNVCZX","","img/practice/S4.jpg","72","4","practice","74","false","","","",""
"null","","html-keyboard-response","21","315021","0.0-2.0-1.6","3S96KQ6I9NQ6TKFW8TGNOABXKHVTD9","A19M1TGTL9HKHB","33Q5P9PUSP8QOKKNNN5S19YACNVCZX","","<img src=""img/practice/S4.jpg"" width=""540"" height = ""360"">","null","","","","","","","",""
"null","","html-keyboard-response","22","315023","0.0-2.0-2.6","3S96KQ6I9NQ6TKFW8TGNOABXKHVTD9","A19M1TGTL9HKHB","33Q5P9PUSP8QOKKNNN5S19YACNVCZX","","","null","","","","","","","",""
"783","","image-keyboard-response","23","315807","0.0-2.0-0.7","3S96KQ6I9NQ6TKFW8TGNOABXKHVTD9","A19M1TGTL9HKHB","33Q5P9PUSP8QOKKNNN5S19YACNVCZX","","img/practice/S1.jpg","68","1","practice","83","false","","","",""
"null","","html-keyboard-response","24","316120","0.0-2.0-1.7","3S96KQ6I9NQ6TKFW8TGNOABXKHVTD9","A19M1TGTL9HKHB","33Q5P9PUSP8QOKKNNN5S19YACNVCZX","","<img src=""img/practice/S1.jpg"" width=""540"" height = ""360"">","null","","","","","","","",""
"null","","html-keyboard-response","25","316122","0.0-2.0-2.7","3S96KQ6I9NQ6TKFW8TGNOABXKHVTD9","A19M1TGTL9HKHB","33Q5P9PUSP8QOKKNNN5S19YACNVCZX","","","null","","","","","","","",""
"856","","image-keyboard-response","26","316981","0.0-2.0-0.8","3S96KQ6I9NQ6TKFW8TGNOABXKHVTD9","A19M1TGTL9HKHB","33Q5P9PUSP8QOKKNNN5S19YACNVCZX","","img/practice/S4.jpg","72","4","practice","74","false","","","",""
"null","","html-keyboard-response","27","317292","0.0-2.0-1.8","3S96KQ6I9NQ6TKFW8TGNOABXKHVTD9","A19M1TGTL9HKHB","33Q5P9PUSP8QOKKNNN5S19YACNVCZX","","<img src=""img/practice/S4.jpg"" width=""540"" height = ""360"">","null","","","","","","","",""
"null","","html-keyboard-response","28","317294","0.0-2.0-2.8","3S96KQ6I9NQ6TKFW8TGNOABXKHVTD9","A19M1TGTL9HKHB","33Q5P9PUSP8QOKKNNN5S19YACNVCZX","","","null","","","","","","","",""
"1032","","image-keyboard-response","29","318328","0.0-2.0-0.9","3S96KQ6I9NQ6TKFW8TGNOABXKHVTD9","A19M1TGTL9HKHB","33Q5P9PUSP8QOKKNNN5S19YACNVCZX","","img/practice/S2.jpg","74","2","practice","68","false","","","",""
"null","","html-keyboard-response","30","318630","0.0-2.0-1.9","3S96KQ6I9NQ6TKFW8TGNOABXKHVTD9","A19M1TGTL9HKHB","33Q5P9PUSP8QOKKNNN5S19YACNVCZX","","<img src=""img/practice/S2.jpg"" width=""540"" height = ""360"">","null","","","","","","","",""
"null","","html-keyboard-response","31","318632","0.0-2.0-2.9","3S96KQ6I9NQ6TKFW8TGNOABXKHVTD9","A19M1TGTL9HKHB","33Q5P9PUSP8QOKKNNN5S19YACNVCZX","","","null","","","","","","","",""
"739","","image-keyboard-response","32","319374","0.0-2.0-0.10","3S96KQ6I9NQ6TKFW8TGNOABXKHVTD9","A19M1TGTL9HKHB","33Q5P9PUSP8QOKKNNN5S19YACNVCZX","","img/practice/S3.jpg","83","3","practice","72","false","","","",""
"null","","html-keyboard-response","33","319690","0.0-2.0-1.10","3S96KQ6I9NQ6TKFW8TGNOABXKHVTD9","A19M1TGTL9HKHB","33Q5P9PUSP8QOKKNNN5S19YACNVCZX","","<img src=""img/practice/S3.jpg"" width=""540"" height = ""360"">","null","","","","","","","",""
"null","","html-keyboard-response","34","319693","0.0-2.0-2.10","3S96KQ6I9NQ6TKFW8TGNOABXKHVTD9","A19M1TGTL9HKHB","33Q5P9PUSP8QOKKNNN5S19YACNVCZX","","","null","","","","","","","",""
"564","","image-keyboard-response","35","320259","0.0-2.0-0.11","3S96KQ6I9NQ6TKFW8TGNOABXKHVTD9","A19M1TGTL9HKHB","33Q5P9PUSP8QOKKNNN5S19YACNVCZX","","img/practice/S1.jpg","68","1","practice","83","false","","","",""
"null","","html-keyboard-response","36","320571","0.0-2.0-1.11","3S96KQ6I9NQ6TKFW8TGNOABXKHVTD9","A19M1TGTL9HKHB","33Q5P9PUSP8QOKKNNN5S19YACNVCZX","","<img src=""img/practice/S1.jpg"" width=""540"" height = ""360"">","null","","","","","","","",""
"null","","html-keyboard-response","37","320572","0.0-2.0-2.11","3S96KQ6I9NQ6TKFW8TGNOABXKHVTD9","A19M1TGTL9HKHB","33Q5P9PUSP8QOKKNNN5S19YACNVCZX","","","null","","","","","","","",""
"586","","image-keyboard-response","38","321159","0.0-2.0-0.12","3S96KQ6I9NQ6TKFW8TGNOABXKHVTD9","A19M1TGTL9HKHB","33Q5P9PUSP8QOKKNNN5S19YACNVCZX","","img/practice/S2.jpg","72","2","practice","68","false","","","",""
"null","","html-keyboard-response","39","321470","0.0-2.0-1.12","3S96KQ6I9NQ6TKFW8TGNOABXKHVTD9","A19M1TGTL9HKHB","33Q5P9PUSP8QOKKNNN5S19YACNVCZX","","<img src=""img/practice/S2.jpg"" width=""540"" height = ""360"">","null","","","","","","","",""
"null","","html-keyboard-response","40","321472","0.0-2.0-2.12","3S96KQ6I9NQ6TKFW8TGNOABXKHVTD9","A19M1TGTL9HKHB","33Q5P9PUSP8QOKKNNN5S19YACNVCZX","","","null","","","","","","","",""
"537","","image-keyboard-response","41","322010","0.0-2.0-0.13","3S96KQ6I9NQ6TKFW8TGNOABXKHVTD9","A19M1TGTL9HKHB","33Q5P9PUSP8QOKKNNN5S19YACNVCZX","","img/practice/S3.jpg","74","3","practice","72","false","","","",""
"null","","html-keyboard-response","42","322320","0.0-2.0-1.13","3S96KQ6I9NQ6TKFW8TGNOABXKHVTD9","A19M1TGTL9HKHB","33Q5P9PUSP8QOKKNNN5S19YACNVCZX","","<img src=""img/practice/S3.jpg"" width=""540"" height = ""360"">","null","","","","","","","",""
"null","","html-keyboard-response","43","322322","0.0-2.0-2.13","3S96KQ6I9NQ6TKFW8TGNOABXKHVTD9","A19M1TGTL9HKHB","33Q5P9PUSP8QOKKNNN5S19YACNVCZX","","","null","","","","","","","",""
"1295","","image-keyboard-response","44","323617","0.0-2.0-0.14","3S96KQ6I9NQ6TKFW8TGNOABXKHVTD9","A19M1TGTL9HKHB","33Q5P9PUSP8QOKKNNN5S19YACNVCZX","","img/practice/S4.jpg","83","4","practice","74","false","","","",""
"null","","html-keyboard-response","45","323931","0.0-2.0-1.14","3S96KQ6I9NQ6TKFW8TGNOABXKHVTD9","A19M1TGTL9HKHB","33Q5P9PUSP8QOKKNNN5S19YACNVCZX","","<img src=""img/practice/S4.jpg"" width=""540"" height = ""360"">","null","","","","","","","",""
"null","","html-keyboard-response","46","323932","0.0-2.0-2.14","3S96KQ6I9NQ6TKFW8TGNOABXKHVTD9","A19M1TGTL9HKHB","33Q5P9PUSP8QOKKNNN5S19YACNVCZX","","","null","","","","","","","",""
"965","","image-keyboard-response","47","324898","0.0-2.0-0.15","3S96KQ6I9NQ6TKFW8TGNOABXKHVTD9","A19M1TGTL9HKHB","33Q5P9PUSP8QOKKNNN5S19YACNVCZX","","img/practice/S1.jpg","68","1","practice","83","false","","","",""
"null","","html-keyboard-response","48","325200","0.0-2.0-1.15","3S96KQ6I9NQ6TKFW8TGNOABXKHVTD9","A19M1TGTL9HKHB","33Q5P9PUSP8QOKKNNN5S19YACNVCZX","","<img src=""img/practice/S1.jpg"" width=""540"" height = ""360"">","null","","","","","","","",""
"null","","html-keyboard-response","49","325202","0.0-2.0-2.15","3S96KQ6I9NQ6TKFW8TGNOABXKHVTD9","A19M1TGTL9HKHB","33Q5P9PUSP8QOKKNNN5S19YACNVCZX","","","null","","","","","","","",""
"937","","image-keyboard-response","50","326141","0.0-2.0-0.16","3S96KQ6I9NQ6TKFW8TGNOABXKHVTD9","A19M1TGTL9HKHB","33Q5P9PUSP8QOKKNNN5S19YACNVCZX","","img/practice/S3.jpg","72","3","practice","72","true","","","",""
"null","","html-keyboard-response","51","326451","0.0-2.0-1.16","3S96KQ6I9NQ6TKFW8TGNOABXKHVTD9","A19M1TGTL9HKHB","33Q5P9PUSP8QOKKNNN5S19YACNVCZX","","<img src=""img/practice/S3.jpg"" width=""540"" height = ""360"" style=""border:16px solid orange"">","null","","","","","","","",""
"null","","html-keyboard-response","52","326453","0.0-2.0-2.16","3S96KQ6I9NQ6TKFW8TGNOABXKHVTD9","A19M1TGTL9HKHB","33Q5P9PUSP8QOKKNNN5S19YACNVCZX","","","null","","","","","","","",""
"1140","","image-keyboard-response","53","327593","0.0-2.0-0.17","3S96KQ6I9NQ6TKFW8TGNOABXKHVTD9","A19M1TGTL9HKHB","33Q5P9PUSP8QOKKNNN5S19YACNVCZX","","img/practice/S1.jpg","68","1","practice","83","false","","","",""
"null","","html-keyboard-response","54","327910","0.0-2.0-1.17","3S96KQ6I9NQ6TKFW8TGNOABXKHVTD9","A19M1TGTL9HKHB","33Q5P9PUSP8QOKKNNN5S19YACNVCZX","","<img src=""img/practice/S1.jpg"" width=""540"" height = ""360"">","null","","","","","","","",""
"null","","html-keyboard-response","55","327912","0.0-2.0-2.17","3S96KQ6I9NQ6TKFW8TGNOABXKHVTD9","A19M1TGTL9HKHB","33Q5P9PUSP8QOKKNNN5S19YACNVCZX","","","null","","","","","","","",""
"842","","image-keyboard-response","56","328757","0.0-2.0-0.18","3S96KQ6I9NQ6TKFW8TGNOABXKHVTD9","A19M1TGTL9HKHB","33Q5P9PUSP8QOKKNNN5S19YACNVCZX","","img/practice/S2.jpg","83","2","practice","68","false","","","",""
"null","","html-keyboard-response","57","329061","0.0-2.0-1.18","3S96KQ6I9NQ6TKFW8TGNOABXKHVTD9","A19M1TGTL9HKHB","33Q5P9PUSP8QOKKNNN5S19YACNVCZX","","<img src=""img/practice/S2.jpg"" width=""540"" height = ""360"">","null","","","","","","","",""
"null","","html-keyboard-response","58","329063","0.0-2.0-2.18","3S96KQ6I9NQ6TKFW8TGNOABXKHVTD9","A19M1TGTL9HKHB","33Q5P9PUSP8QOKKNNN5S19YACNVCZX","","","null","","","","","","","",""
"1006","","image-keyboard-response","59","330069","0.0-2.0-0.19","3S96KQ6I9NQ6TKFW8TGNOABXKHVTD9","A19M1TGTL9HKHB","33Q5P9PUSP8QOKKNNN5S19YACNVCZX","","img/practice/S4.jpg","68","4","practice","74","false","","","",""
"null","","html-keyboard-response","60","330380","0.0-2.0-1.19","3S96KQ6I9NQ6TKFW8TGNOABXKHVTD9","A19M1TGTL9HKHB","33Q5P9PUSP8QOKKNNN5S19YACNVCZX","","<img src=""img/practice/S4.jpg"" width=""540"" height = ""360"">","null","","","","","","","",""
"null","","html-keyboard-response","61","330382","0.0-2.0-2.19","3S96KQ6I9NQ6TKFW8TGNOABXKHVTD9","A19M1TGTL9HKHB","33Q5P9PUSP8QOKKNNN5S19YACNVCZX","","","null","","","","","","","",""
"871","","image-keyboard-response","62","331255","0.0-2.0-0.20","3S96KQ6I9NQ6TKFW8TGNOABXKHVTD9","A19M1TGTL9HKHB","33Q5P9PUSP8QOKKNNN5S19YACNVCZX","","img/practice/S1.jpg","83","1","practice","83","true","","","",""
"null","","html-keyboard-response","63","331570","0.0-2.0-1.20","3S96KQ6I9NQ6TKFW8TGNOABXKHVTD9","A19M1TGTL9HKHB","33Q5P9PUSP8QOKKNNN5S19YACNVCZX","","<img src=""img/practice/S1.jpg"" width=""540"" height = ""360"" style=""border:16px solid orange"">","null","","","","","","","",""
"null","","html-keyboard-response","64","331572","0.0-2.0-2.20","3S96KQ6I9NQ6TKFW8TGNOABXKHVTD9","A19M1TGTL9HKHB","33Q5P9PUSP8QOKKNNN5S19YACNVCZX","","","null","","","","","","","",""
"1405","","image-keyboard-response","65","332979","0.0-2.0-0.21","3S96KQ6I9NQ6TKFW8TGNOABXKHVTD9","A19M1TGTL9HKHB","33Q5P9PUSP8QOKKNNN5S19YACNVCZX","","img/practice/S2.jpg","72","2","practice","68","false","","","",""
"null","","html-keyboard-response","66","333291","0.0-2.0-1.21","3S96KQ6I9NQ6TKFW8TGNOABXKHVTD9","A19M1TGTL9HKHB","33Q5P9PUSP8QOKKNNN5S19YACNVCZX","","<img src=""img/practice/S2.jpg"" width=""540"" height = ""360"">","null","","","","","","","",""
"null","","html-keyboard-response","67","333293","0.0-2.0-2.21","3S96KQ6I9NQ6TKFW8TGNOABXKHVTD9","A19M1TGTL9HKHB","33Q5P9PUSP8QOKKNNN5S19YACNVCZX","","","null","","","","","","","",""
"1257","","image-keyboard-response","68","334550","0.0-2.0-0.22","3S96KQ6I9NQ6TKFW8TGNOABXKHVTD9","A19M1TGTL9HKHB","33Q5P9PUSP8QOKKNNN5S19YACNVCZX","","img/practice/S4.jpg","72","4","practice","74","false","","","",""
"null","","html-keyboard-response","69","334861","0.0-2.0-1.22","3S96KQ6I9NQ6TKFW8TGNOABXKHVTD9","A19M1TGTL9HKHB","33Q5P9PUSP8QOKKNNN5S19YACNVCZX","","<img src=""img/practice/S4.jpg"" width=""540"" height = ""360"">","null","","","","","","","",""
"null","","html-keyboard-response","70","334863","0.0-2.0-2.22","3S96KQ6I9NQ6TKFW8TGNOABXKHVTD9","A19M1TGTL9HKHB","33Q5P9PUSP8QOKKNNN5S19YACNVCZX","","","null","","","","","","","",""
"576","","image-keyboard-response","71","335440","0.0-2.0-0.23","3S96KQ6I9NQ6TKFW8TGNOABXKHVTD9","A19M1TGTL9HKHB","33Q5P9PUSP8QOKKNNN5S19YACNVCZX","","img/practice/S3.jpg","72","3","practice","72","true","","","",""
"null","","html-keyboard-response","72","335751","0.0-2.0-1.23","3S96KQ6I9NQ6TKFW8TGNOABXKHVTD9","A19M1TGTL9HKHB","33Q5P9PUSP8QOKKNNN5S19YACNVCZX","","<img src=""img/practice/S3.jpg"" width=""540"" height = ""360"" style=""border:16px solid orange"">","null","","","","","","","",""
"null","","html-keyboard-response","73","335753","0.0-2.0-2.23","3S96KQ6I9NQ6TKFW8TGNOABXKHVTD9","A19M1TGTL9HKHB","33Q5P9PUSP8QOKKNNN5S19YACNVCZX","","","null","","","","","","","",""
"3240","","instructions","74","338993","0.0-3.0","3S96KQ6I9NQ6TKFW8TGNOABXKHVTD9","A19M1TGTL9HKHB","33Q5P9PUSP8QOKKNNN5S19YACNVCZX","[{""page_index"":0,""viewing_time"":3240}]","","","","","","","","","",""
"17499","","instructions","75","356493","0.0-4.0","3S96KQ6I9NQ6TKFW8TGNOABXKHVTD9","A19M1TGTL9HKHB","33Q5P9PUSP8QOKKNNN5S19YACNVCZX","[{""page_index"":0,""viewing_time"":17499}]","","","","","","","","","",""
"26697","","instructions","76","383193","0.0-5.0","3S96KQ6I9NQ6TKFW8TGNOABXKHVTD9","A19M1TGTL9HKHB","33Q5P9PUSP8QOKKNNN5S19YACNVCZX","[{""page_index"":0,""viewing_time"":14943},{""page_index"":1,""viewing_time"":11754}]","","","","","","","","","",""
"676","","image-keyboard-response","77","383872","0.0-6.0","3S96KQ6I9NQ6TKFW8TGNOABXKHVTD9","A19M1TGTL9HKHB","33Q5P9PUSP8QOKKNNN5S19YACNVCZX","","img/set1/S1.jpg","72","1","structured_incentive","83","false","structured_incentive,structured_normal,random","2,3,1,2","",""
"null","","html-keyboard-response","78","384232","0.0-7.0","3S96KQ6I9NQ6TKFW8TGNOABXKHVTD9","A19M1TGTL9HKHB","33Q5P9PUSP8QOKKNNN5S19YACNVCZX","","<img src=""img/set1/S1.jpg"" width=""540"" height = ""360"">","null","","","","","","","",""
"null","","html-keyboard-response","79","384233","0.0-8.0","3S96KQ6I9NQ6TKFW8TGNOABXKHVTD9","A19M1TGTL9HKHB","33Q5P9PUSP8QOKKNNN5S19YACNVCZX","","","null","","","","","","","",""
"801","","image-keyboard-response","80","385035","0.0-9.0","3S96KQ6I9NQ6TKFW8TGNOABXKHVTD9","A19M1TGTL9HKHB","33Q5P9PUSP8QOKKNNN5S19YACNVCZX","","img/set1/S1.jpg","74","1","structured_incentive","83","false","structured_incentive,structured_normal,random","2,3,1,2","",""
"null","","html-keyboard-response","81","385400","0.0-10.0","3S96KQ6I9NQ6TKFW8TGNOABXKHVTD9","A19M1TGTL9HKHB","33Q5P9PUSP8QOKKNNN5S19YACNVCZX","","<img src=""img/set1/S1.jpg"" width=""540"" height = ""360"">","null","","","","","","","",""
"null","","html-keyboard-response","82","385402","0.0-11.0","3S96KQ6I9NQ6TKFW8TGNOABXKHVTD9","A19M1TGTL9HKHB","33Q5P9PUSP8QOKKNNN5S19YACNVCZX","","","null","","","","","","","",""
"579","","image-keyboard-response","83","385982","0.0-12.0","3S96KQ6I9NQ6TKFW8TGNOABXKHVTD9","A19M1TGTL9HKHB","33Q5P9PUSP8QOKKNNN5S19YACNVCZX","","img/set1/S1.jpg","83","1","structured_incentive","83","true","structured_incentive,structured_normal,random","2,3,1,2","",""
"null","","html-keyboard-response","84","386340","0.0-13.0","3S96KQ6I9NQ6TKFW8TGNOABXKHVTD9","A19M1TGTL9HKHB","33Q5P9PUSP8QOKKNNN5S19YACNVCZX","","<img src=""img/set1/S1.jpg"" width=""540"" height = ""360"" style=""border:16px solid orange"">","null","","","","","","","",""
"null","","html-keyboard-response","85","386342","0.0-14.0","3S96KQ6I9NQ6TKFW8TGNOABXKHVTD9","A19M1TGTL9HKHB","33Q5P9PUSP8QOKKNNN5S19YACNVCZX","","","null","","","","","","","",""
"1135","","image-keyboard-response","86","387478","0.0-15.0","3S96KQ6I9NQ6TKFW8TGNOABXKHVTD9","A19M1TGTL9HKHB","33Q5P9PUSP8QOKKNNN5S19YACNVCZX","","img/set1/S2.jpg","72","2","structured_incentive","68","false","structured_incentive,structured_normal,random","2,3,1,2","",""
"null","","html-keyboard-response","87","387841","0.0-16.0","3S96KQ6I9NQ6TKFW8TGNOABXKHVTD9","A19M1TGTL9HKHB","33Q5P9PUSP8QOKKNNN5S19YACNVCZX","","<img src=""img/set1/S2.jpg"" width=""540"" height = ""360"">","null","","","","","","","",""
"null","","html-keyboard-response","88","387843","0.0-17.0","3S96KQ6I9NQ6TKFW8TGNOABXKHVTD9","A19M1TGTL9HKHB","33Q5P9PUSP8QOKKNNN5S19YACNVCZX","","","null","","","","","","","",""
"798","","image-keyboard-response","89","388643","0.0-18.0","3S96KQ6I9NQ6TKFW8TGNOABXKHVTD9","A19M1TGTL9HKHB","33Q5P9PUSP8QOKKNNN5S19YACNVCZX","","img/set1/S3.jpg","72","3","structured_incentive","72","true","structured_incentive,structured_normal,random","2,3,1,2","",""
"null","","html-keyboard-response","90","389011","0.0-19.0","3S96KQ6I9NQ6TKFW8TGNOABXKHVTD9","A19M1TGTL9HKHB","33Q5P9PUSP8QOKKNNN5S19YACNVCZX","","<img src=""img/set1/S3.jpg"" width=""540"" height = ""360"" style=""border:16px solid orange"">","null","","","","","","","",""
"null","","html-keyboard-response","91","389013","0.0-20.0","3S96KQ6I9NQ6TKFW8TGNOABXKHVTD9","A19M1TGTL9HKHB","33Q5P9PUSP8QOKKNNN5S19YACNVCZX","","","null","","","","","","","",""
"933","","image-keyboard-response","92","389946","0.0-21.0","3S96KQ6I9NQ6TKFW8TGNOABXKHVTD9","A19M1TGTL9HKHB","33Q5P9PUSP8QOKKNNN5S19YACNVCZX","","img/set1/S1.jpg","83","1","structured_incentive","83","true","structured_incentive,structured_normal,random","2,3,1,2","",""
"null","","html-keyboard-response","93","390310","0.0-22.0","3S96KQ6I9NQ6TKFW8TGNOABXKHVTD9","A19M1TGTL9HKHB","33Q5P9PUSP8QOKKNNN5S19YACNVCZX","","<img src=""img/set1/S1.jpg"" width=""540"" height = ""360"" style=""border:16px solid orange"">","null","","","","","","","",""
"null","","html-keyboard-response","94","390313","0.0-23.0","3S96KQ6I9NQ6TKFW8TGNOABXKHVTD9","A19M1TGTL9HKHB","33Q5P9PUSP8QOKKNNN5S19YACNVCZX","","","null","","","","","","","",""
"954","","image-keyboard-response","95","391268","0.0-24.0","3S96KQ6I9NQ6TKFW8TGNOABXKHVTD9","A19M1TGTL9HKHB","33Q5P9PUSP8QOKKNNN5S19YACNVCZX","","img/set1/S2.jpg","74","2","structured_incentive","68","false","structured_incentive,structured_normal,random","2,3,1,2","",""
"null","","html-keyboard-response","96","391630","0.0-25.0","3S96KQ6I9NQ6TKFW8TGNOABXKHVTD9","A19M1TGTL9HKHB","33Q5P9PUSP8QOKKNNN5S19YACNVCZX","","<img src=""img/set1/S2.jpg"" width=""540"" height = ""360"">","null","","","","","","","",""
"null","","html-keyboard-response","97","391632","0.0-26.0","3S96KQ6I9NQ6TKFW8TGNOABXKHVTD9","A19M1TGTL9HKHB","33Q5P9PUSP8QOKKNNN5S19YACNVCZX","","","null","","","","","","","",""
"721","","image-keyboard-response","98","392355","0.0-27.0","3S96KQ6I9NQ6TKFW8TGNOABXKHVTD9","A19M1TGTL9HKHB","33Q5P9PUSP8QOKKNNN5S19YACNVCZX","","img/set1/S3.jpg","72","3","structured_incentive","72","true","structured_incentive,structured_normal,random","2,3,1,2","",""
"null","","html-keyboard-response","99","392710","0.0-28.0","3S96KQ6I9NQ6TKFW8TGNOABXKHVTD9","A19M1TGTL9HKHB","33Q5P9PUSP8QOKKNNN5S19YACNVCZX","","<img src=""img/set1/S3.jpg"" width=""540"" height = ""360"" style=""border:16px solid orange"">","null","","","","","","","",""
"null","","html-keyboard-response","100","392712","0.0-29.0","3S96KQ6I9NQ6TKFW8TGNOABXKHVTD9","A19M1TGTL9HKHB","33Q5P9PUSP8QOKKNNN5S19YACNVCZX","","","null","","","","","","","",""
"766","","image-keyboard-response","101","393480","0.0-30.0","3S96KQ6I9NQ6TKFW8TGNOABXKHVTD9","A19M1TGTL9HKHB","33Q5P9PUSP8QOKKNNN5S19YACNVCZX","","img/set1/S1.jpg","68","1","structured_incentive","83","false","structured_incentive,structured_normal,random","2,3,1,2","",""
"null","","html-keyboard-response","102","393850","0.0-31.0","3S96KQ6I9NQ6TKFW8TGNOABXKHVTD9","A19M1TGTL9HKHB","33Q5P9PUSP8QOKKNNN5S19YACNVCZX","","<img src=""img/set1/S1.jpg"" width=""540"" height = ""360"">","null","","","","","","","",""
"null","","html-keyboard-response","103","393852","0.0-32.0","3S96KQ6I9NQ6TKFW8TGNOABXKHVTD9","A19M1TGTL9HKHB","33Q5P9PUSP8QOKKNNN5S19YACNVCZX","","","null","","","","","","","",""
"1000","","image-keyboard-response","104","394855","0.0-33.0","3S96KQ6I9NQ6TKFW8TGNOABXKHVTD9","A19M1TGTL9HKHB","33Q5P9PUSP8QOKKNNN5S19YACNVCZX","","img/set1/S4.jpg","83","4","structured_incentive","74","false","structured_incentive,structured_normal,random","2,3,1,2","",""
"null","","html-keyboard-response","105","395211","0.0-34.0","3S96KQ6I9NQ6TKFW8TGNOABXKHVTD9","A19M1TGTL9HKHB","33Q5P9PUSP8QOKKNNN5S19YACNVCZX","","<img src=""img/set1/S4.jpg"" width=""540"" height = ""360"">","null","","","","","","","",""
"null","","html-keyboard-response","106","395213","0.0-35.0","3S96KQ6I9NQ6TKFW8TGNOABXKHVTD9","A19M1TGTL9HKHB","33Q5P9PUSP8QOKKNNN5S19YACNVCZX","","","null","","","","","","","",""
"976","","image-keyboard-response","107","396189","0.0-36.0","3S96KQ6I9NQ6TKFW8TGNOABXKHVTD9","A19M1TGTL9HKHB","33Q5P9PUSP8QOKKNNN5S19YACNVCZX","","img/set1/S2.jpg","74","2","structured_incentive","68","false","structured_incentive,structured_normal,random","2,3,1,2","",""
"null","","html-keyboard-response","108","396561","0.0-37.0","3S96KQ6I9NQ6TKFW8TGNOABXKHVTD9","A19M1TGTL9HKHB","33Q5P9PUSP8QOKKNNN5S19YACNVCZX","","<img src=""img/set1/S2.jpg"" width=""540"" height = ""360"">","null","","","","","","","",""
"null","","html-keyboard-response","109","396563","0.0-38.0","3S96KQ6I9NQ6TKFW8TGNOABXKHVTD9","A19M1TGTL9HKHB","33Q5P9PUSP8QOKKNNN5S19YACNVCZX","","","null","","","","","","","",""
"1168","","image-keyboard-response","110","397731","0.0-39.0","3S96KQ6I9NQ6TKFW8TGNOABXKHVTD9","A19M1TGTL9HKHB","33Q5P9PUSP8QOKKNNN5S19YACNVCZX","","img/set1/S3.jpg","72","3","structured_incentive","72","true","structured_incentive,structured_normal,random","2,3,1,2","",""
"null","","html-keyboard-response","111","398086","0.0-40.0","3S96KQ6I9NQ6TKFW8TGNOABXKHVTD9","A19M1TGTL9HKHB","33Q5P9PUSP8QOKKNNN5S19YACNVCZX","","<img src=""img/set1/S3.jpg"" width=""540"" height = ""360"" style=""border:16px solid orange"">","null","","","","","","","",""
"null","","html-keyboard-response","112","398088","0.0-41.0","3S96KQ6I9NQ6TKFW8TGNOABXKHVTD9","A19M1TGTL9HKHB","33Q5P9PUSP8QOKKNNN5S19YACNVCZX","","","null","","","","","","","",""
"1120","","image-keyboard-response","113","399209","0.0-42.0","3S96KQ6I9NQ6TKFW8TGNOABXKHVTD9","A19M1TGTL9HKHB","33Q5P9PUSP8QOKKNNN5S19YACNVCZX","","img/set1/S4.jpg","68","4","structured_incentive","74","false","structured_incentive,structured_normal,random","2,3,1,2","",""
"null","","html-keyboard-response","114","399580","0.0-43.0","3S96KQ6I9NQ6TKFW8TGNOABXKHVTD9","A19M1TGTL9HKHB","33Q5P9PUSP8QOKKNNN5S19YACNVCZX","","<img src=""img/set1/S4.jpg"" width=""540"" height = ""360"">","null","","","","","","","",""
"null","","html-keyboard-response","115","399583","0.0-44.0","3S96KQ6I9NQ6TKFW8TGNOABXKHVTD9","A19M1TGTL9HKHB","33Q5P9PUSP8QOKKNNN5S19YACNVCZX","","","null","","","","","","","",""
"798","","image-keyboard-response","116","400381","0.0-45.0","3S96KQ6I9NQ6TKFW8TGNOABXKHVTD9","A19M1TGTL9HKHB","33Q5P9PUSP8QOKKNNN5S19YACNVCZX","","img/set1/S4.jpg","83","4","structured_incentive","74","false","structured_incentive,structured_normal,random","2,3,1,2","",""
"null","","html-keyboard-response","117","400741","0.0-46.0","3S96KQ6I9NQ6TKFW8TGNOABXKHVTD9","A19M1TGTL9HKHB","33Q5P9PUSP8QOKKNNN5S19YACNVCZX","","<img src=""img/set1/S4.jpg"" width=""540"" height = ""360"">","null","","","","","","","",""
"null","","html-keyboard-response","118","400743","0.0-47.0","3S96KQ6I9NQ6TKFW8TGNOABXKHVTD9","A19M1TGTL9HKHB","33Q5P9PUSP8QOKKNNN5S19YACNVCZX","","","null","","","","","","","",""
"1031","","image-keyboard-response","119","401776","0.0-48.0","3S96KQ6I9NQ6TKFW8TGNOABXKHVTD9","A19M1TGTL9HKHB","33Q5P9PUSP8QOKKNNN5S19YACNVCZX","","img/set1/S4.jpg","72","4","structured_incentive","74","false","structured_incentive,structured_normal,random","2,3,1,2","",""
"null","","html-keyboard-response","120","402140","0.0-49.0","3S96KQ6I9NQ6TKFW8TGNOABXKHVTD9","A19M1TGTL9HKHB","33Q5P9PUSP8QOKKNNN5S19YACNVCZX","","<img src=""img/set1/S4.jpg"" width=""540"" height = ""360"">","null","","","","","","","",""
"null","","html-keyboard-response","121","402142","0.0-50.0","3S96KQ6I9NQ6TKFW8TGNOABXKHVTD9","A19M1TGTL9HKHB","33Q5P9PUSP8QOKKNNN5S19YACNVCZX","","","null","","","","","","","",""
"1032","","image-keyboard-response","122","403176","0.0-51.0","3S96KQ6I9NQ6TKFW8TGNOABXKHVTD9","A19M1TGTL9HKHB","33Q5P9PUSP8QOKKNNN5S19YACNVCZX","","img/set1/S1.jpg","68","1","structured_incentive","83","false","structured_incentive,structured_normal,random","2,3,1,2","",""
"null","","html-keyboard-response","123","403530","0.0-52.0","3S96KQ6I9NQ6TKFW8TGNOABXKHVTD9","A19M1TGTL9HKHB","33Q5P9PUSP8QOKKNNN5S19YACNVCZX","","<img src=""img/set1/S1.jpg"" width=""540"" height = ""360"">","null","","","","","","","",""
"null","","html-keyboard-response","124","403532","0.0-53.0","3S96KQ6I9NQ6TKFW8TGNOABXKHVTD9","A19M1TGTL9HKHB","33Q5P9PUSP8QOKKNNN5S19YACNVCZX","","","null","","","","","","","",""
"505","","image-keyboard-response","125","404039","0.0-54.0","3S96KQ6I9NQ6TKFW8TGNOABXKHVTD9","A19M1TGTL9HKHB","33Q5P9PUSP8QOKKNNN5S19YACNVCZX","","img/set1/S1.jpg","83","1","structured_incentive","83","true","structured_incentive,structured_normal,random","2,3,1,2","",""
"null","","html-keyboard-response","126","404411","0.0-55.0","3S96KQ6I9NQ6TKFW8TGNOABXKHVTD9","A19M1TGTL9HKHB","33Q5P9PUSP8QOKKNNN5S19YACNVCZX","","<img src=""img/set1/S1.jpg"" width=""540"" height = ""360"" style=""border:16px solid orange"">","null","","","","","","","",""
"null","","html-keyboard-response","127","404413","0.0-56.0","3S96KQ6I9NQ6TKFW8TGNOABXKHVTD9","A19M1TGTL9HKHB","33Q5P9PUSP8QOKKNNN5S19YACNVCZX","","","null","","","","","","","",""
"1087","","image-keyboard-response","128","405501","0.0-57.0","3S96KQ6I9NQ6TKFW8TGNOABXKHVTD9","A19M1TGTL9HKHB","33Q5P9PUSP8QOKKNNN5S19YACNVCZX","","img/set1/S4.jpg","74","4","structured_incentive","74","true","structured_incentive,structured_normal,random","2,3,1,2","",""
"null","","html-keyboard-response","129","405860","0.0-58.0","3S96KQ6I9NQ6TKFW8TGNOABXKHVTD9","A19M1TGTL9HKHB","33Q5P9PUSP8QOKKNNN5S19YACNVCZX","","<img src=""img/set1/S4.jpg"" width=""540"" height = ""360"" style=""border:16px solid Violet"">","null","","","","","","","",""
"null","","html-keyboard-response","130","405862","0.0-59.0","3S96KQ6I9NQ6TKFW8TGNOABXKHVTD9","A19M1TGTL9HKHB","33Q5P9PUSP8QOKKNNN5S19YACNVCZX","","","null","","","","","","","",""
"null","","image-keyboard-response","131","408370","0.0-60.0","3S96KQ6I9NQ6TKFW8TGNOABXKHVTD9","A19M1TGTL9HKHB","33Q5P9PUSP8QOKKNNN5S19YACNVCZX","","img/set1/S1.jpg","null","1","structured_incentive","83","false","structured_incentive,structured_normal,random","2,3,1,2","",""
"null","","html-keyboard-response","132","408731","0.0-61.0","3S96KQ6I9NQ6TKFW8TGNOABXKHVTD9","A19M1TGTL9HKHB","33Q5P9PUSP8QOKKNNN5S19YACNVCZX","","<img src=""img/set1/S1.jpg"" width=""540"" height = ""360"">","null","","","","","","","",""
"null","","html-keyboard-response","133","408740","0.0-62.0","3S96KQ6I9NQ6TKFW8TGNOABXKHVTD9","A19M1TGTL9HKHB","33Q5P9PUSP8QOKKNNN5S19YACNVCZX","","","null","","","","","","","",""
"490","","image-keyboard-response","134","409232","0.0-63.0","3S96KQ6I9NQ6TKFW8TGNOABXKHVTD9","A19M1TGTL9HKHB","33Q5P9PUSP8QOKKNNN5S19YACNVCZX","","img/set1/S1.jpg","68","1","structured_incentive","83","false","structured_incentive,structured_normal,random","2,3,1,2","",""
"null","","html-keyboard-response","135","409590","0.0-64.0","3S96KQ6I9NQ6TKFW8TGNOABXKHVTD9","A19M1TGTL9HKHB","33Q5P9PUSP8QOKKNNN5S19YACNVCZX","","<img src=""img/set1/S1.jpg"" width=""540"" height = ""360"">","null","","","","","","","",""
"null","","html-keyboard-response","136","409592","0.0-65.0","3S96KQ6I9NQ6TKFW8TGNOABXKHVTD9","A19M1TGTL9HKHB","33Q5P9PUSP8QOKKNNN5S19YACNVCZX","","","null","","","","","","","",""
"568","","image-keyboard-response","137","410162","0.0-66.0","3S96KQ6I9NQ6TKFW8TGNOABXKHVTD9","A19M1TGTL9HKHB","33Q5P9PUSP8QOKKNNN5S19YACNVCZX","","img/set1/S2.jpg","74","2","structured_incentive","68","false","structured_incentive,structured_normal,random","2,3,1,2","",""
"null","","html-keyboard-response","138","410520","0.0-67.0","3S96KQ6I9NQ6TKFW8TGNOABXKHVTD9","A19M1TGTL9HKHB","33Q5P9PUSP8QOKKNNN5S19YACNVCZX","","<img src=""img/set1/S2.jpg"" width=""540"" height = ""360"">","null","","","","","","","",""
"null","","html-keyboard-response","139","410522","0.0-68.0","3S96KQ6I9NQ6TKFW8TGNOABXKHVTD9","A19M1TGTL9HKHB","33Q5P9PUSP8QOKKNNN5S19YACNVCZX","","","null","","","","","","","",""
"767","","image-keyboard-response","140","411292","0.0-69.0","3S96KQ6I9NQ6TKFW8TGNOABXKHVTD9","A19M1TGTL9HKHB","33Q5P9PUSP8QOKKNNN5S19YACNVCZX","","img/set1/S3.jpg","72","3","structured_incentive","72","true","structured_incentive,structured_normal,random","2,3,1,2","",""
"null","","html-keyboard-response","141","411660","0.0-70.0","3S96KQ6I9NQ6TKFW8TGNOABXKHVTD9","A19M1TGTL9HKHB","33Q5P9PUSP8QOKKNNN5S19YACNVCZX","","<img src=""img/set1/S3.jpg"" width=""540"" height = ""360"" style=""border:16px solid orange"">","null","","","","","","","",""
"null","","html-keyboard-response","142","411662","0.0-71.0","3S96KQ6I9NQ6TKFW8TGNOABXKHVTD9","A19M1TGTL9HKHB","33Q5P9PUSP8QOKKNNN5S19YACNVCZX","","","null","","","","","","","",""
"536","","image-keyboard-response","143","412201","0.0-72.0","3S96KQ6I9NQ6TKFW8TGNOABXKHVTD9","A19M1TGTL9HKHB","33Q5P9PUSP8QOKKNNN5S19YACNVCZX","","img/set1/S3.jpg","72","3","structured_incentive","72","true","structured_incentive,structured_normal,random","2,3,1,2","",""
"null","","html-keyboard-response","144","412560","0.0-73.0","3S96KQ6I9NQ6TKFW8TGNOABXKHVTD9","A19M1TGTL9HKHB","33Q5P9PUSP8QOKKNNN5S19YACNVCZX","","<img src=""img/set1/S3.jpg"" width=""540"" height = ""360"" style=""border:16px solid orange"">","null","","","","","","","",""
"null","","html-keyboard-response","145","412562","0.0-74.0","3S96KQ6I9NQ6TKFW8TGNOABXKHVTD9","A19M1TGTL9HKHB","33Q5P9PUSP8QOKKNNN5S19YACNVCZX","","","null","","","","","","","",""
"709","","image-keyboard-response","146","413274","0.0-75.0","3S96KQ6I9NQ6TKFW8TGNOABXKHVTD9","A19M1TGTL9HKHB","33Q5P9PUSP8QOKKNNN5S19YACNVCZX","","img/set1/S2.jpg","68","2","structured_incentive","68","true","structured_incentive,structured_normal,random","2,3,1,2","",""
"null","","html-keyboard-response","147","413639","0.0-76.0","3S96KQ6I9NQ6TKFW8TGNOABXKHVTD9","A19M1TGTL9HKHB","33Q5P9PUSP8QOKKNNN5S19YACNVCZX","","<img src=""img/set1/S2.jpg"" width=""540"" height = ""360"" style=""border:16px solid orange"">","null","","","","","","","",""
"null","","html-keyboard-response","148","413641","0.0-77.0","3S96KQ6I9NQ6TKFW8TGNOABXKHVTD9","A19M1TGTL9HKHB","33Q5P9PUSP8QOKKNNN5S19YACNVCZX","","","null","","","","","","","",""
"929","","image-keyboard-response","149","414572","0.0-78.0","3S96KQ6I9NQ6TKFW8TGNOABXKHVTD9","A19M1TGTL9HKHB","33Q5P9PUSP8QOKKNNN5S19YACNVCZX","","img/set1/S4.jpg","74","4","structured_incentive","74","true","structured_incentive,structured_normal,random","2,3,1,2","",""
"null","","html-keyboard-response","150","414940","0.0-79.0","3S96KQ6I9NQ6TKFW8TGNOABXKHVTD9","A19M1TGTL9HKHB","33Q5P9PUSP8QOKKNNN5S19YACNVCZX","","<img src=""img/set1/S4.jpg"" width=""540"" height = ""360"" style=""border:16px solid Violet"">","null","","","","","","","",""
"null","","html-keyboard-response","151","414942","0.0-80.0","3S96KQ6I9NQ6TKFW8TGNOABXKHVTD9","A19M1TGTL9HKHB","33Q5P9PUSP8QOKKNNN5S19YACNVCZX","","","null","","","","","","","",""
"684","","image-keyboard-response","152","415627","0.0-81.0","3S96KQ6I9NQ6TKFW8TGNOABXKHVTD9","A19M1TGTL9HKHB","33Q5P9PUSP8QOKKNNN5S19YACNVCZX","","img/set1/S4.jpg","74","4","structured_incentive","74","true","structured_incentive,structured_normal,random","2,3,1,2","",""
"null","","html-keyboard-response","153","415990","0.0-82.0","3S96KQ6I9NQ6TKFW8TGNOABXKHVTD9","A19M1TGTL9HKHB","33Q5P9PUSP8QOKKNNN5S19YACNVCZX","","<img src=""img/set1/S4.jpg"" width=""540"" height = ""360"" style=""border:16px solid Violet"">","null","","","","","","","",""
"null","","html-keyboard-response","154","415993","0.0-83.0","3S96KQ6I9NQ6TKFW8TGNOABXKHVTD9","A19M1TGTL9HKHB","33Q5P9PUSP8QOKKNNN5S19YACNVCZX","","","null","","","","","","","",""
"833","","image-keyboard-response","155","416827","0.0-84.0","3S96KQ6I9NQ6TKFW8TGNOABXKHVTD9","A19M1TGTL9HKHB","33Q5P9PUSP8QOKKNNN5S19YACNVCZX","","img/set1/S2.jpg","68","2","structured_incentive","68","true","structured_incentive,structured_normal,random","2,3,1,2","",""
"null","","html-keyboard-response","156","417180","0.0-85.0","3S96KQ6I9NQ6TKFW8TGNOABXKHVTD9","A19M1TGTL9HKHB","33Q5P9PUSP8QOKKNNN5S19YACNVCZX","","<img src=""img/set1/S2.jpg"" width=""540"" height = ""360"" style=""border:16px solid orange"">","null","","","","","","","",""
"null","","html-keyboard-response","157","417182","0.0-86.0","3S96KQ6I9NQ6TKFW8TGNOABXKHVTD9","A19M1TGTL9HKHB","33Q5P9PUSP8QOKKNNN5S19YACNVCZX","","","null","","","","","","","",""
"1046","","image-keyboard-response","158","418229","0.0-87.0","3S96KQ6I9NQ6TKFW8TGNOABXKHVTD9","A19M1TGTL9HKHB","33Q5P9PUSP8QOKKNNN5S19YACNVCZX","","img/set1/S3.jpg","83","3","structured_incentive","72","false","structured_incentive,structured_normal,random","2,3,1,2","",""
"null","","html-keyboard-response","159","418591","0.0-88.0","3S96KQ6I9NQ6TKFW8TGNOABXKHVTD9","A19M1TGTL9HKHB","33Q5P9PUSP8QOKKNNN5S19YACNVCZX","","<img src=""img/set1/S3.jpg"" width=""540"" height = ""360"">","null","","","","","","","",""
"null","","html-keyboard-response","160","418593","0.0-89.0","3S96KQ6I9NQ6TKFW8TGNOABXKHVTD9","A19M1TGTL9HKHB","33Q5P9PUSP8QOKKNNN5S19YACNVCZX","","","null","","","","","","","",""
"108","","image-keyboard-response","161","418702","0.0-90.0","3S96KQ6I9NQ6TKFW8TGNOABXKHVTD9","A19M1TGTL9HKHB","33Q5P9PUSP8QOKKNNN5S19YACNVCZX","","img/set1/S2.jpg","72","2","structured_incentive","68","false","structured_incentive,structured_normal,random","2,3,1,2","",""
"null","","html-keyboard-response","162","419061","0.0-91.0","3S96KQ6I9NQ6TKFW8TGNOABXKHVTD9","A19M1TGTL9HKHB","33Q5P9PUSP8QOKKNNN5S19YACNVCZX","","<img src=""img/set1/S2.jpg"" width=""540"" height = ""360"">","null","","","","","","","",""
"null","","html-keyboard-response","163","419063","0.0-92.0","3S96KQ6I9NQ6TKFW8TGNOABXKHVTD9","A19M1TGTL9HKHB","33Q5P9PUSP8QOKKNNN5S19YACNVCZX","","","null","","","","","","","",""
"595","","image-keyboard-response","164","419659","0.0-93.0","3S96KQ6I9NQ6TKFW8TGNOABXKHVTD9","A19M1TGTL9HKHB","33Q5P9PUSP8QOKKNNN5S19YACNVCZX","","img/set1/S3.jpg","68","3","structured_incentive","72","false","structured_incentive,structured_normal,random","2,3,1,2","",""
"null","","html-keyboard-response","165","420020","0.0-94.0","3S96KQ6I9NQ6TKFW8TGNOABXKHVTD9","A19M1TGTL9HKHB","33Q5P9PUSP8QOKKNNN5S19YACNVCZX","","<img src=""img/set1/S3.jpg"" width=""540"" height = ""360"">","null","","","","","","","",""
"null","","html-keyboard-response","166","420022","0.0-95.0","3S96KQ6I9NQ6TKFW8TGNOABXKHVTD9","A19M1TGTL9HKHB","33Q5P9PUSP8QOKKNNN5S19YACNVCZX","","","null","","","","","","","",""
"893","","image-keyboard-response","167","420917","0.0-96.0","3S96KQ6I9NQ6TKFW8TGNOABXKHVTD9","A19M1TGTL9HKHB","33Q5P9PUSP8QOKKNNN5S19YACNVCZX","","img/set1/S1.jpg","83","1","structured_incentive","83","true","structured_incentive,structured_normal,random","2,3,1,2","",""
"null","","html-keyboard-response","168","421270","0.0-97.0","3S96KQ6I9NQ6TKFW8TGNOABXKHVTD9","A19M1TGTL9HKHB","33Q5P9PUSP8QOKKNNN5S19YACNVCZX","","<img src=""img/set1/S1.jpg"" width=""540"" height = ""360"" style=""border:16px solid orange"">","null","","","","","","","",""
"null","","html-keyboard-response","169","421274","0.0-98.0","3S96KQ6I9NQ6TKFW8TGNOABXKHVTD9","A19M1TGTL9HKHB","33Q5P9PUSP8QOKKNNN5S19YACNVCZX","","","null","","","","","","","",""
"670","","image-keyboard-response","170","421944","0.0-99.0","3S96KQ6I9NQ6TKFW8TGNOABXKHVTD9","A19M1TGTL9HKHB","33Q5P9PUSP8QOKKNNN5S19YACNVCZX","","img/set1/S1.jpg","83","1","structured_incentive","83","true","structured_incentive,structured_normal,random","2,3,1,2","",""
"null","","html-keyboard-response","171","422300","0.0-100.0","3S96KQ6I9NQ6TKFW8TGNOABXKHVTD9","A19M1TGTL9HKHB","33Q5P9PUSP8QOKKNNN5S19YACNVCZX","","<img src=""img/set1/S1.jpg"" width=""540"" height = ""360"" style=""border:16px solid orange"">","null","","","","","","","",""
"null","","html-keyboard-response","172","422303","0.0-101.0","3S96KQ6I9NQ6TKFW8TGNOABXKHVTD9","A19M1TGTL9HKHB","33Q5P9PUSP8QOKKNNN5S19YACNVCZX","","","null","","","","","","","",""
"1404","","image-keyboard-response","173","423708","0.0-102.0","3S96KQ6I9NQ6TKFW8TGNOABXKHVTD9","A19M1TGTL9HKHB","33Q5P9PUSP8QOKKNNN5S19YACNVCZX","","img/set1/S3.jpg","74","3","structured_incentive","72","false","structured_incentive,structured_normal,random","2,3,1,2","",""
"null","","html-keyboard-response","174","424060","0.0-103.0","3S96KQ6I9NQ6TKFW8TGNOABXKHVTD9","A19M1TGTL9HKHB","33Q5P9PUSP8QOKKNNN5S19YACNVCZX","","<img src=""img/set1/S3.jpg"" width=""540"" height = ""360"">","null","","","","","","","",""
"null","","html-keyboard-response","175","424063","0.0-104.0","3S96KQ6I9NQ6TKFW8TGNOABXKHVTD9","A19M1TGTL9HKHB","33Q5P9PUSP8QOKKNNN5S19YACNVCZX","","","null","","","","","","","",""
"890","","image-keyboard-response","176","424955","0.0-105.0","3S96KQ6I9NQ6TKFW8TGNOABXKHVTD9","A19M1TGTL9HKHB","33Q5P9PUSP8QOKKNNN5S19YACNVCZX","","img/set1/S2.jpg","83","2","structured_incentive","68","false","structured_incentive,structured_normal,random","2,3,1,2","",""
"null","","html-keyboard-response","177","425315","0.0-106.0","3S96KQ6I9NQ6TKFW8TGNOABXKHVTD9","A19M1TGTL9HKHB","33Q5P9PUSP8QOKKNNN5S19YACNVCZX","","<img src=""img/set1/S2.jpg"" width=""540"" height = ""360"">","null","","","","","","","",""
"null","","html-keyboard-response","178","425317","0.0-107.0","3S96KQ6I9NQ6TKFW8TGNOABXKHVTD9","A19M1TGTL9HKHB","33Q5P9PUSP8QOKKNNN5S19YACNVCZX","","","null","","","","","","","",""
"670","","image-keyboard-response","179","425990","0.0-108.0","3S96KQ6I9NQ6TKFW8TGNOABXKHVTD9","A19M1TGTL9HKHB","33Q5P9PUSP8QOKKNNN5S19YACNVCZX","","img/set1/S3.jpg","72","3","structured_incentive","72","true","structured_incentive,structured_normal,random","2,3,1,2","",""
"null","","html-keyboard-response","180","426360","0.0-109.0","3S96KQ6I9NQ6TKFW8TGNOABXKHVTD9","A19M1TGTL9HKHB","33Q5P9PUSP8QOKKNNN5S19YACNVCZX","","<img src=""img/set1/S3.jpg"" width=""540"" height = ""360"" style=""border:16px solid orange"">","null","","","","","","","",""
"null","","html-keyboard-response","181","426362","0.0-110.0","3S96KQ6I9NQ6TKFW8TGNOABXKHVTD9","A19M1TGTL9HKHB","33Q5P9PUSP8QOKKNNN5S19YACNVCZX","","","null","","","","","","","",""
"779","","image-keyboard-response","182","427143","0.0-111.0","3S96KQ6I9NQ6TKFW8TGNOABXKHVTD9","A19M1TGTL9HKHB","33Q5P9PUSP8QOKKNNN5S19YACNVCZX","","img/set1/S4.jpg","74","4","structured_incentive","74","true","structured_incentive,structured_normal,random","2,3,1,2","",""
"null","","html-keyboard-response","183","427500","0.0-112.0","3S96KQ6I9NQ6TKFW8TGNOABXKHVTD9","A19M1TGTL9HKHB","33Q5P9PUSP8QOKKNNN5S19YACNVCZX","","<img src=""img/set1/S4.jpg"" width=""540"" height = ""360"" style=""border:16px solid Violet"">","null","","","","","","","",""
"null","","html-keyboard-response","184","427502","0.0-113.0","3S96KQ6I9NQ6TKFW8TGNOABXKHVTD9","A19M1TGTL9HKHB","33Q5P9PUSP8QOKKNNN5S19YACNVCZX","","","null","","","","","","","",""
"561","","image-keyboard-response","185","428065","0.0-114.0","3S96KQ6I9NQ6TKFW8TGNOABXKHVTD9","A19M1TGTL9HKHB","33Q5P9PUSP8QOKKNNN5S19YACNVCZX","","img/set1/S4.jpg","74","4","structured_incentive","74","true","structured_incentive,structured_normal,random","2,3,1,2","",""
"null","","html-keyboard-response","186","428430","0.0-115.0","3S96KQ6I9NQ6TKFW8TGNOABXKHVTD9","A19M1TGTL9HKHB","33Q5P9PUSP8QOKKNNN5S19YACNVCZX","","<img src=""img/set1/S4.jpg"" width=""540"" height = ""360"" style=""border:16px solid Violet"">","null","","","","","","","",""
"null","","html-keyboard-response","187","428432","0.0-116.0","3S96KQ6I9NQ6TKFW8TGNOABXKHVTD9","A19M1TGTL9HKHB","33Q5P9PUSP8QOKKNNN5S19YACNVCZX","","","null","","","","","","","",""
"600","","image-keyboard-response","188","429035","0.0-117.0","3S96KQ6I9NQ6TKFW8TGNOABXKHVTD9","A19M1TGTL9HKHB","33Q5P9PUSP8QOKKNNN5S19YACNVCZX","","img/set1/S4.jpg","74","4","structured_incentive","74","true","structured_incentive,structured_normal,random","2,3,1,2","",""
"null","","html-keyboard-response","189","429390","0.0-118.0","3S96KQ6I9NQ6TKFW8TGNOABXKHVTD9","A19M1TGTL9HKHB","33Q5P9PUSP8QOKKNNN5S19YACNVCZX","","<img src=""img/set1/S4.jpg"" width=""540"" height = ""360"" style=""border:16px solid Violet"">","null","","","","","","","",""
"null","","html-keyboard-response","190","429392","0.0-119.0","3S96KQ6I9NQ6TKFW8TGNOABXKHVTD9","A19M1TGTL9HKHB","33Q5P9PUSP8QOKKNNN5S19YACNVCZX","","","null","","","","","","","",""
"535","","image-keyboard-response","191","429929","0.0-120.0","3S96KQ6I9NQ6TKFW8TGNOABXKHVTD9","A19M1TGTL9HKHB","33Q5P9PUSP8QOKKNNN5S19YACNVCZX","","img/set1/S2.jpg","68","2","structured_incentive","68","true","structured_incentive,structured_normal,random","2,3,1,2","",""
"null","","html-keyboard-response","192","430290","0.0-121.0","3S96KQ6I9NQ6TKFW8TGNOABXKHVTD9","A19M1TGTL9HKHB","33Q5P9PUSP8QOKKNNN5S19YACNVCZX","","<img src=""img/set1/S2.jpg"" width=""540"" height = ""360"" style=""border:16px solid orange"">","null","","","","","","","",""
"null","","html-keyboard-response","193","430292","0.0-122.0","3S96KQ6I9NQ6TKFW8TGNOABXKHVTD9","A19M1TGTL9HKHB","33Q5P9PUSP8QOKKNNN5S19YACNVCZX","","","null","","","","","","","",""
"763","","image-keyboard-response","194","431056","0.0-123.0","3S96KQ6I9NQ6TKFW8TGNOABXKHVTD9","A19M1TGTL9HKHB","33Q5P9PUSP8QOKKNNN5S19YACNVCZX","","img/set1/S3.jpg","72","3","structured_incentive","72","true","structured_incentive,structured_normal,random","2,3,1,2","",""
"null","","html-keyboard-response","195","431421","0.0-124.0","3S96KQ6I9NQ6TKFW8TGNOABXKHVTD9","A19M1TGTL9HKHB","33Q5P9PUSP8QOKKNNN5S19YACNVCZX","","<img src=""img/set1/S3.jpg"" width=""540"" height = ""360"" style=""border:16px solid orange"">","null","","","","","","","",""
"null","","html-keyboard-response","196","431423","0.0-125.0","3S96KQ6I9NQ6TKFW8TGNOABXKHVTD9","A19M1TGTL9HKHB","33Q5P9PUSP8QOKKNNN5S19YACNVCZX","","","null","","","","","","","",""
"659","","image-keyboard-response","197","432083","0.0-126.0","3S96KQ6I9NQ6TKFW8TGNOABXKHVTD9","A19M1TGTL9HKHB","33Q5P9PUSP8QOKKNNN5S19YACNVCZX","","img/set1/S3.jpg","72","3","structured_incentive","72","true","structured_incentive,structured_normal,random","2,3,1,2","",""
"null","","html-keyboard-response","198","432450","0.0-127.0","3S96KQ6I9NQ6TKFW8TGNOABXKHVTD9","A19M1TGTL9HKHB","33Q5P9PUSP8QOKKNNN5S19YACNVCZX","","<img src=""img/set1/S3.jpg"" width=""540"" height = ""360"" style=""border:16px solid orange"">","null","","","","","","","",""
"null","","html-keyboard-response","199","432452","0.0-128.0","3S96KQ6I9NQ6TKFW8TGNOABXKHVTD9","A19M1TGTL9HKHB","33Q5P9PUSP8QOKKNNN5S19YACNVCZX","","","null","","","","","","","",""
"688","","image-keyboard-response","200","433143","0.0-129.0","3S96KQ6I9NQ6TKFW8TGNOABXKHVTD9","A19M1TGTL9HKHB","33Q5P9PUSP8QOKKNNN5S19YACNVCZX","","img/set1/S1.jpg","83","1","structured_incentive","83","true","structured_incentive,structured_normal,random","2,3,1,2","",""
"null","","html-keyboard-response","201","433500","0.0-130.0","3S96KQ6I9NQ6TKFW8TGNOABXKHVTD9","A19M1TGTL9HKHB","33Q5P9PUSP8QOKKNNN5S19YACNVCZX","","<img src=""img/set1/S1.jpg"" width=""540"" height = ""360"" style=""border:16px solid orange"">","null","","","","","","","",""
"null","","html-keyboard-response","202","433502","0.0-131.0","3S96KQ6I9NQ6TKFW8TGNOABXKHVTD9","A19M1TGTL9HKHB","33Q5P9PUSP8QOKKNNN5S19YACNVCZX","","","null","","","","","","","",""
"632","","image-keyboard-response","203","434135","0.0-132.0","3S96KQ6I9NQ6TKFW8TGNOABXKHVTD9","A19M1TGTL9HKHB","33Q5P9PUSP8QOKKNNN5S19YACNVCZX","","img/set1/S1.jpg","83","1","structured_incentive","83","true","structured_incentive,structured_normal,random","2,3,1,2","",""
"null","","html-keyboard-response","204","434500","0.0-133.0","3S96KQ6I9NQ6TKFW8TGNOABXKHVTD9","A19M1TGTL9HKHB","33Q5P9PUSP8QOKKNNN5S19YACNVCZX","","<img src=""img/set1/S1.jpg"" width=""540"" height = ""360"" style=""border:16px solid orange"">","null","","","","","","","",""
"null","","html-keyboard-response","205","434502","0.0-134.0","3S96KQ6I9NQ6TKFW8TGNOABXKHVTD9","A19M1TGTL9HKHB","33Q5P9PUSP8QOKKNNN5S19YACNVCZX","","","null","","","","","","","",""
"961","","image-keyboard-response","206","435464","0.0-135.0","3S96KQ6I9NQ6TKFW8TGNOABXKHVTD9","A19M1TGTL9HKHB","33Q5P9PUSP8QOKKNNN5S19YACNVCZX","","img/set1/S2.jpg","68","2","structured_incentive","68","true","structured_incentive,structured_normal,random","2,3,1,2","",""
"null","","html-keyboard-response","207","435821","0.0-136.0","3S96KQ6I9NQ6TKFW8TGNOABXKHVTD9","A19M1TGTL9HKHB","33Q5P9PUSP8QOKKNNN5S19YACNVCZX","","<img src=""img/set1/S2.jpg"" width=""540"" height = ""360"" style=""border:16px solid orange"">","null","","","","","","","",""
"null","","html-keyboard-response","208","435823","0.0-137.0","3S96KQ6I9NQ6TKFW8TGNOABXKHVTD9","A19M1TGTL9HKHB","33Q5P9PUSP8QOKKNNN5S19YACNVCZX","","","null","","","","","","","",""
"704","","image-keyboard-response","209","436527","0.0-138.0","3S96KQ6I9NQ6TKFW8TGNOABXKHVTD9","A19M1TGTL9HKHB","33Q5P9PUSP8QOKKNNN5S19YACNVCZX","","img/set1/S3.jpg","74","3","structured_incentive","72","false","structured_incentive,structured_normal,random","2,3,1,2","",""
"null","","html-keyboard-response","210","436882","0.0-139.0","3S96KQ6I9NQ6TKFW8TGNOABXKHVTD9","A19M1TGTL9HKHB","33Q5P9PUSP8QOKKNNN5S19YACNVCZX","","<img src=""img/set1/S3.jpg"" width=""540"" height = ""360"">","null","","","","","","","",""
"null","","html-keyboard-response","211","436884","0.0-140.0","3S96KQ6I9NQ6TKFW8TGNOABXKHVTD9","A19M1TGTL9HKHB","33Q5P9PUSP8QOKKNNN5S19YACNVCZX","","","null","","","","","","","",""
"838","","image-keyboard-response","212","437723","0.0-141.0","3S96KQ6I9NQ6TKFW8TGNOABXKHVTD9","A19M1TGTL9HKHB","33Q5P9PUSP8QOKKNNN5S19YACNVCZX","","img/set1/S4.jpg","74","4","structured_incentive","74","true","structured_incentive,structured_normal,random","2,3,1,2","",""
"null","","html-keyboard-response","213","438080","0.0-142.0","3S96KQ6I9NQ6TKFW8TGNOABXKHVTD9","A19M1TGTL9HKHB","33Q5P9PUSP8QOKKNNN5S19YACNVCZX","","<img src=""img/set1/S4.jpg"" width=""540"" height = ""360"" style=""border:16px solid Violet"">","null","","","","","","","",""
"null","","html-keyboard-response","214","438083","0.0-143.0","3S96KQ6I9NQ6TKFW8TGNOABXKHVTD9","A19M1TGTL9HKHB","33Q5P9PUSP8QOKKNNN5S19YACNVCZX","","","null","","","","","","","",""
"806","","image-keyboard-response","215","438891","0.0-144.0","3S96KQ6I9NQ6TKFW8TGNOABXKHVTD9","A19M1TGTL9HKHB","33Q5P9PUSP8QOKKNNN5S19YACNVCZX","","img/set1/S1.jpg","68","1","structured_incentive","83","false","structured_incentive,structured_normal,random","2,3,1,2","",""
"null","","html-keyboard-response","216","439256","0.0-145.0","3S96KQ6I9NQ6TKFW8TGNOABXKHVTD9","A19M1TGTL9HKHB","33Q5P9PUSP8QOKKNNN5S19YACNVCZX","","<img src=""img/set1/S1.jpg"" width=""540"" height = ""360"">","null","","","","","","","",""
"null","","html-keyboard-response","217","439258","0.0-146.0","3S96KQ6I9NQ6TKFW8TGNOABXKHVTD9","A19M1TGTL9HKHB","33Q5P9PUSP8QOKKNNN5S19YACNVCZX","","","null","","","","","","","",""
"1237","","image-keyboard-response","218","440497","0.0-147.0","3S96KQ6I9NQ6TKFW8TGNOABXKHVTD9","A19M1TGTL9HKHB","33Q5P9PUSP8QOKKNNN5S19YACNVCZX","","img/set1/S2.jpg","72","2","structured_incentive","68","false","structured_incentive,structured_normal,random","2,3,1,2","",""
"null","","html-keyboard-response","219","440851","0.0-148.0","3S96KQ6I9NQ6TKFW8TGNOABXKHVTD9","A19M1TGTL9HKHB","33Q5P9PUSP8QOKKNNN5S19YACNVCZX","","<img src=""img/set1/S2.jpg"" width=""540"" height = ""360"">","null","","","","","","","",""
"null","","html-keyboard-response","220","440853","0.0-149.0","3S96KQ6I9NQ6TKFW8TGNOABXKHVTD9","A19M1TGTL9HKHB","33Q5P9PUSP8QOKKNNN5S19YACNVCZX","","","null","","","","","","","",""
"732","","image-keyboard-response","221","441585","0.0-150.0","3S96KQ6I9NQ6TKFW8TGNOABXKHVTD9","A19M1TGTL9HKHB","33Q5P9PUSP8QOKKNNN5S19YACNVCZX","","img/set1/S3.jpg","72","3","structured_incentive","72","true","structured_incentive,structured_normal,random","2,3,1,2","",""
"null","","html-keyboard-response","222","441950","0.0-151.0","3S96KQ6I9NQ6TKFW8TGNOABXKHVTD9","A19M1TGTL9HKHB","33Q5P9PUSP8QOKKNNN5S19YACNVCZX","","<img src=""img/set1/S3.jpg"" width=""540"" height = ""360"" style=""border:16px solid orange"">","null","","","","","","","",""
"null","","html-keyboard-response","223","441952","0.0-152.0","3S96KQ6I9NQ6TKFW8TGNOABXKHVTD9","A19M1TGTL9HKHB","33Q5P9PUSP8QOKKNNN5S19YACNVCZX","","","null","","","","","","","",""
"830","","image-keyboard-response","224","442783","0.0-153.0","3S96KQ6I9NQ6TKFW8TGNOABXKHVTD9","A19M1TGTL9HKHB","33Q5P9PUSP8QOKKNNN5S19YACNVCZX","","img/set1/S2.jpg","68","2","structured_incentive","68","true","structured_incentive,structured_normal,random","2,3,1,2","",""
"null","","html-keyboard-response","225","443150","0.0-154.0","3S96KQ6I9NQ6TKFW8TGNOABXKHVTD9","A19M1TGTL9HKHB","33Q5P9PUSP8QOKKNNN5S19YACNVCZX","","<img src=""img/set1/S2.jpg"" width=""540"" height = ""360"" style=""border:16px solid orange"">","null","","","","","","","",""
"null","","html-keyboard-response","226","443152","0.0-155.0","3S96KQ6I9NQ6TKFW8TGNOABXKHVTD9","A19M1TGTL9HKHB","33Q5P9PUSP8QOKKNNN5S19YACNVCZX","","","null","","","","","","","",""
"730","","image-keyboard-response","227","443884","0.0-156.0","3S96KQ6I9NQ6TKFW8TGNOABXKHVTD9","A19M1TGTL9HKHB","33Q5P9PUSP8QOKKNNN5S19YACNVCZX","","img/set1/S3.jpg","72","3","structured_incentive","72","true","structured_incentive,structured_normal,random","2,3,1,2","",""
"null","","html-keyboard-response","228","444251","0.0-157.0","3S96KQ6I9NQ6TKFW8TGNOABXKHVTD9","A19M1TGTL9HKHB","33Q5P9PUSP8QOKKNNN5S19YACNVCZX","","<img src=""img/set1/S3.jpg"" width=""540"" height = ""360"" style=""border:16px solid orange"">","null","","","","","","","",""
"null","","html-keyboard-response","229","444252","0.0-158.0","3S96KQ6I9NQ6TKFW8TGNOABXKHVTD9","A19M1TGTL9HKHB","33Q5P9PUSP8QOKKNNN5S19YACNVCZX","","","null","","","","","","","",""
"515","","image-keyboard-response","230","444769","0.0-159.0","3S96KQ6I9NQ6TKFW8TGNOABXKHVTD9","A19M1TGTL9HKHB","33Q5P9PUSP8QOKKNNN5S19YACNVCZX","","img/set1/S2.jpg","68","2","structured_incentive","68","true","structured_incentive,structured_normal,random","2,3,1,2","",""
"null","","html-keyboard-response","231","445131","0.0-160.0","3S96KQ6I9NQ6TKFW8TGNOABXKHVTD9","A19M1TGTL9HKHB","33Q5P9PUSP8QOKKNNN5S19YACNVCZX","","<img src=""img/set1/S2.jpg"" width=""540"" height = ""360"" style=""border:16px solid orange"">","null","","","","","","","",""
"null","","html-keyboard-response","232","445133","0.0-161.0","3S96KQ6I9NQ6TKFW8TGNOABXKHVTD9","A19M1TGTL9HKHB","33Q5P9PUSP8QOKKNNN5S19YACNVCZX","","","null","","","","","","","",""
"517","","image-keyboard-response","233","445652","0.0-162.0","3S96KQ6I9NQ6TKFW8TGNOABXKHVTD9","A19M1TGTL9HKHB","33Q5P9PUSP8QOKKNNN5S19YACNVCZX","","img/set1/S3.jpg","72","3","structured_incentive","72","true","structured_incentive,structured_normal,random","2,3,1,2","",""
"null","","html-keyboard-response","234","446020","0.0-163.0","3S96KQ6I9NQ6TKFW8TGNOABXKHVTD9","A19M1TGTL9HKHB","33Q5P9PUSP8QOKKNNN5S19YACNVCZX","","<img src=""img/set1/S3.jpg"" width=""540"" height = ""360"" style=""border:16px solid orange"">","null","","","","","","","",""
"null","","html-keyboard-response","235","446022","0.0-164.0","3S96KQ6I9NQ6TKFW8TGNOABXKHVTD9","A19M1TGTL9HKHB","33Q5P9PUSP8QOKKNNN5S19YACNVCZX","","","null","","","","","","","",""
"444","","image-keyboard-response","236","446469","0.0-165.0","3S96KQ6I9NQ6TKFW8TGNOABXKHVTD9","A19M1TGTL9HKHB","33Q5P9PUSP8QOKKNNN5S19YACNVCZX","","img/set1/S2.jpg","68","2","structured_incentive","68","true","structured_incentive,structured_normal,random","2,3,1,2","",""
"null","","html-keyboard-response","237","446830","0.0-166.0","3S96KQ6I9NQ6TKFW8TGNOABXKHVTD9","A19M1TGTL9HKHB","33Q5P9PUSP8QOKKNNN5S19YACNVCZX","","<img src=""img/set1/S2.jpg"" width=""540"" height = ""360"" style=""border:16px solid orange"">","null","","","","","","","",""
"null","","html-keyboard-response","238","446832","0.0-167.0","3S96KQ6I9NQ6TKFW8TGNOABXKHVTD9","A19M1TGTL9HKHB","33Q5P9PUSP8QOKKNNN5S19YACNVCZX","","","null","","","","","","","",""
"598","","image-keyboard-response","239","447432","0.0-168.0","3S96KQ6I9NQ6TKFW8TGNOABXKHVTD9","A19M1TGTL9HKHB","33Q5P9PUSP8QOKKNNN5S19YACNVCZX","","img/set1/S3.jpg","72","3","structured_incentive","72","true","structured_incentive,structured_normal,random","2,3,1,2","",""
"null","","html-keyboard-response","240","447801","0.0-169.0","3S96KQ6I9NQ6TKFW8TGNOABXKHVTD9","A19M1TGTL9HKHB","33Q5P9PUSP8QOKKNNN5S19YACNVCZX","","<img src=""img/set1/S3.jpg"" width=""540"" height = ""360"" style=""border:16px solid orange"">","null","","","","","","","",""
"null","","html-keyboard-response","241","447802","0.0-170.0","3S96KQ6I9NQ6TKFW8TGNOABXKHVTD9","A19M1TGTL9HKHB","33Q5P9PUSP8QOKKNNN5S19YACNVCZX","","","null","","","","","","","",""
"437","","image-keyboard-response","242","448242","0.0-171.0","3S96KQ6I9NQ6TKFW8TGNOABXKHVTD9","A19M1TGTL9HKHB","33Q5P9PUSP8QOKKNNN5S19YACNVCZX","","img/set1/S2.jpg","68","2","structured_incentive","68","true","structured_incentive,structured_normal,random","2,3,1,2","",""
"null","","html-keyboard-response","243","448600","0.0-172.0","3S96KQ6I9NQ6TKFW8TGNOABXKHVTD9","A19M1TGTL9HKHB","33Q5P9PUSP8QOKKNNN5S19YACNVCZX","","<img src=""img/set1/S2.jpg"" width=""540"" height = ""360"" style=""border:16px solid orange"">","null","","","","","","","",""
"null","","html-keyboard-response","244","448602","0.0-173.0","3S96KQ6I9NQ6TKFW8TGNOABXKHVTD9","A19M1TGTL9HKHB","33Q5P9PUSP8QOKKNNN5S19YACNVCZX","","","null","","","","","","","",""
"587","","image-keyboard-response","245","449191","0.0-174.0","3S96KQ6I9NQ6TKFW8TGNOABXKHVTD9","A19M1TGTL9HKHB","33Q5P9PUSP8QOKKNNN5S19YACNVCZX","","img/set1/S3.jpg","72","3","structured_incentive","72","true","structured_incentive,structured_normal,random","2,3,1,2","",""
"null","","html-keyboard-response","246","449560","0.0-175.0","3S96KQ6I9NQ6TKFW8TGNOABXKHVTD9","A19M1TGTL9HKHB","33Q5P9PUSP8QOKKNNN5S19YACNVCZX","","<img src=""img/set1/S3.jpg"" width=""540"" height = ""360"" style=""border:16px solid orange"">","null","","","","","","","",""
"null","","html-keyboard-response","247","449562","0.0-176.0","3S96KQ6I9NQ6TKFW8TGNOABXKHVTD9","A19M1TGTL9HKHB","33Q5P9PUSP8QOKKNNN5S19YACNVCZX","","","null","","","","","","","",""
"771","","image-keyboard-response","248","450335","0.0-177.0","3S96KQ6I9NQ6TKFW8TGNOABXKHVTD9","A19M1TGTL9HKHB","33Q5P9PUSP8QOKKNNN5S19YACNVCZX","","img/set1/S1.jpg","83","1","structured_incentive","83","true","structured_incentive,structured_normal,random","2,3,1,2","",""
"null","","html-keyboard-response","249","450700","0.0-178.0","3S96KQ6I9NQ6TKFW8TGNOABXKHVTD9","A19M1TGTL9HKHB","33Q5P9PUSP8QOKKNNN5S19YACNVCZX","","<img src=""img/set1/S1.jpg"" width=""540"" height = ""360"" style=""border:16px solid orange"">","null","","","","","","","",""
"null","","html-keyboard-response","250","450702","0.0-179.0","3S96KQ6I9NQ6TKFW8TGNOABXKHVTD9","A19M1TGTL9HKHB","33Q5P9PUSP8QOKKNNN5S19YACNVCZX","","","null","","","","","","","",""
"928","","image-keyboard-response","251","451632","0.0-180.0","3S96KQ6I9NQ6TKFW8TGNOABXKHVTD9","A19M1TGTL9HKHB","33Q5P9PUSP8QOKKNNN5S19YACNVCZX","","img/set1/S2.jpg","68","2","structured_incentive","68","true","structured_incentive,structured_normal,random","2,3,1,2","",""
"null","","html-keyboard-response","252","452000","0.0-181.0","3S96KQ6I9NQ6TKFW8TGNOABXKHVTD9","A19M1TGTL9HKHB","33Q5P9PUSP8QOKKNNN5S19YACNVCZX","","<img src=""img/set1/S2.jpg"" width=""540"" height = ""360"" style=""border:16px solid orange"">","null","","","","","","","",""
"null","","html-keyboard-response","253","452002","0.0-182.0","3S96KQ6I9NQ6TKFW8TGNOABXKHVTD9","A19M1TGTL9HKHB","33Q5P9PUSP8QOKKNNN5S19YACNVCZX","","","null","","","","","","","",""
"1110","","image-keyboard-response","254","453114","0.0-183.0","3S96KQ6I9NQ6TKFW8TGNOABXKHVTD9","A19M1TGTL9HKHB","33Q5P9PUSP8QOKKNNN5S19YACNVCZX","","img/set1/S3.jpg","72","3","structured_incentive","72","true","structured_incentive,structured_normal,random","2,3,1,2","",""
"null","","html-keyboard-response","255","453481","0.0-184.0","3S96KQ6I9NQ6TKFW8TGNOABXKHVTD9","A19M1TGTL9HKHB","33Q5P9PUSP8QOKKNNN5S19YACNVCZX","","<img src=""img/set1/S3.jpg"" width=""540"" height = ""360"" style=""border:16px solid orange"">","null","","","","","","","",""
"null","","html-keyboard-response","256","453483","0.0-185.0","3S96KQ6I9NQ6TKFW8TGNOABXKHVTD9","A19M1TGTL9HKHB","33Q5P9PUSP8QOKKNNN5S19YACNVCZX","","","null","","","","","","","",""
"673","","image-keyboard-response","257","454157","0.0-186.0","3S96KQ6I9NQ6TKFW8TGNOABXKHVTD9","A19M1TGTL9HKHB","33Q5P9PUSP8QOKKNNN5S19YACNVCZX","","img/set1/S4.jpg","74","4","structured_incentive","74","true","structured_incentive,structured_normal,random","2,3,1,2","",""
"null","","html-keyboard-response","258","454520","0.0-187.0","3S96KQ6I9NQ6TKFW8TGNOABXKHVTD9","A19M1TGTL9HKHB","33Q5P9PUSP8QOKKNNN5S19YACNVCZX","","<img src=""img/set1/S4.jpg"" width=""540"" height = ""360"" style=""border:16px solid Violet"">","null","","","","","","","",""
"null","","html-keyboard-response","259","454522","0.0-188.0","3S96KQ6I9NQ6TKFW8TGNOABXKHVTD9","A19M1TGTL9HKHB","33Q5P9PUSP8QOKKNNN5S19YACNVCZX","","","null","","","","","","","",""
"685","","image-keyboard-response","260","455209","0.0-189.0","3S96KQ6I9NQ6TKFW8TGNOABXKHVTD9","A19M1TGTL9HKHB","33Q5P9PUSP8QOKKNNN5S19YACNVCZX","","img/set1/S2.jpg","68","2","structured_incentive","68","true","structured_incentive,structured_normal,random","2,3,1,2","",""
"null","","html-keyboard-response","261","455570","0.0-190.0","3S96KQ6I9NQ6TKFW8TGNOABXKHVTD9","A19M1TGTL9HKHB","33Q5P9PUSP8QOKKNNN5S19YACNVCZX","","<img src=""img/set1/S2.jpg"" width=""540"" height = ""360"" style=""border:16px solid orange"">","null","","","","","","","",""
"null","","html-keyboard-response","262","455571","0.0-191.0","3S96KQ6I9NQ6TKFW8TGNOABXKHVTD9","A19M1TGTL9HKHB","33Q5P9PUSP8QOKKNNN5S19YACNVCZX","","","null","","","","","","","",""
"1087","","image-keyboard-response","263","456661","0.0-192.0","3S96KQ6I9NQ6TKFW8TGNOABXKHVTD9","A19M1TGTL9HKHB","33Q5P9PUSP8QOKKNNN5S19YACNVCZX","","img/set1/S4.jpg","74","4","structured_incentive","74","true","structured_incentive,structured_normal,random","2,3,1,2","",""
"null","","html-keyboard-response","264","457030","0.0-193.0","3S96KQ6I9NQ6TKFW8TGNOABXKHVTD9","A19M1TGTL9HKHB","33Q5P9PUSP8QOKKNNN5S19YACNVCZX","","<img src=""img/set1/S4.jpg"" width=""540"" height = ""360"" style=""border:16px solid Violet"">","null","","","","","","","",""
"null","","html-keyboard-response","265","457032","0.0-194.0","3S96KQ6I9NQ6TKFW8TGNOABXKHVTD9","A19M1TGTL9HKHB","33Q5P9PUSP8QOKKNNN5S19YACNVCZX","","","null","","","","","","","",""
"764","","image-keyboard-response","266","457797","0.0-195.0","3S96KQ6I9NQ6TKFW8TGNOABXKHVTD9","A19M1TGTL9HKHB","33Q5P9PUSP8QOKKNNN5S19YACNVCZX","","img/set1/S2.jpg","68","2","structured_incentive","68","true","structured_incentive,structured_normal,random","2,3,1,2","",""
"null","","html-keyboard-response","267","458150","0.0-196.0","3S96KQ6I9NQ6TKFW8TGNOABXKHVTD9","A19M1TGTL9HKHB","33Q5P9PUSP8QOKKNNN5S19YACNVCZX","","<img src=""img/set1/S2.jpg"" width=""540"" height = ""360"" style=""border:16px solid orange"">","null","","","","","","","",""
"null","","html-keyboard-response","268","458152","0.0-197.0","3S96KQ6I9NQ6TKFW8TGNOABXKHVTD9","A19M1TGTL9HKHB","33Q5P9PUSP8QOKKNNN5S19YACNVCZX","","","null","","","","","","","",""
"895","","image-keyboard-response","269","459049","0.0-198.0","3S96KQ6I9NQ6TKFW8TGNOABXKHVTD9","A19M1TGTL9HKHB","33Q5P9PUSP8QOKKNNN5S19YACNVCZX","","img/set1/S4.jpg","74","4","structured_incentive","74","true","structured_incentive,structured_normal,random","2,3,1,2","",""
"null","","html-keyboard-response","270","459410","0.0-199.0","3S96KQ6I9NQ6TKFW8TGNOABXKHVTD9","A19M1TGTL9HKHB","33Q5P9PUSP8QOKKNNN5S19YACNVCZX","","<img src=""img/set1/S4.jpg"" width=""540"" height = ""360"" style=""border:16px solid Violet"">","null","","","","","","","",""
"null","","html-keyboard-response","271","459412","0.0-200.0","3S96KQ6I9NQ6TKFW8TGNOABXKHVTD9","A19M1TGTL9HKHB","33Q5P9PUSP8QOKKNNN5S19YACNVCZX","","","null","","","","","","","",""
"649","","image-keyboard-response","272","460062","0.0-201.0","3S96KQ6I9NQ6TKFW8TGNOABXKHVTD9","A19M1TGTL9HKHB","33Q5P9PUSP8QOKKNNN5S19YACNVCZX","","img/set1/S1.jpg","68","1","structured_incentive","83","false","structured_incentive,structured_normal,random","2,3,1,2","",""
"null","","html-keyboard-response","273","460430","0.0-202.0","3S96KQ6I9NQ6TKFW8TGNOABXKHVTD9","A19M1TGTL9HKHB","33Q5P9PUSP8QOKKNNN5S19YACNVCZX","","<img src=""img/set1/S1.jpg"" width=""540"" height = ""360"">","null","","","","","","","",""
"null","","html-keyboard-response","274","460432","0.0-203.0","3S96KQ6I9NQ6TKFW8TGNOABXKHVTD9","A19M1TGTL9HKHB","33Q5P9PUSP8QOKKNNN5S19YACNVCZX","","","null","","","","","","","",""
"927","","image-keyboard-response","275","461360","0.0-204.0","3S96KQ6I9NQ6TKFW8TGNOABXKHVTD9","A19M1TGTL9HKHB","33Q5P9PUSP8QOKKNNN5S19YACNVCZX","","img/set1/S2.jpg","74","2","structured_incentive","68","false","structured_incentive,structured_normal,random","2,3,1,2","",""
"null","","html-keyboard-response","276","461730","0.0-205.0","3S96KQ6I9NQ6TKFW8TGNOABXKHVTD9","A19M1TGTL9HKHB","33Q5P9PUSP8QOKKNNN5S19YACNVCZX","","<img src=""img/set1/S2.jpg"" width=""540"" height = ""360"">","null","","","","","","","",""
"null","","html-keyboard-response","277","461732","0.0-206.0","3S96KQ6I9NQ6TKFW8TGNOABXKHVTD9","A19M1TGTL9HKHB","33Q5P9PUSP8QOKKNNN5S19YACNVCZX","","","null","","","","","","","",""
"858","","image-keyboard-response","278","462591","0.0-207.0","3S96KQ6I9NQ6TKFW8TGNOABXKHVTD9","A19M1TGTL9HKHB","33Q5P9PUSP8QOKKNNN5S19YACNVCZX","","img/set1/S3.jpg","72","3","structured_incentive","72","true","structured_incentive,structured_normal,random","2,3,1,2","",""
"null","","html-keyboard-response","279","462961","0.0-208.0","3S96KQ6I9NQ6TKFW8TGNOABXKHVTD9","A19M1TGTL9HKHB","33Q5P9PUSP8QOKKNNN5S19YACNVCZX","","<img src=""img/set1/S3.jpg"" width=""540"" height = ""360"" style=""border:16px solid orange"">","null","","","","","","","",""
"null","","html-keyboard-response","280","462963","0.0-209.0","3S96KQ6I9NQ6TKFW8TGNOABXKHVTD9","A19M1TGTL9HKHB","33Q5P9PUSP8QOKKNNN5S19YACNVCZX","","","null","","","","","","","",""
"1024","","image-keyboard-response","281","463988","0.0-210.0","3S96KQ6I9NQ6TKFW8TGNOABXKHVTD9","A19M1TGTL9HKHB","33Q5P9PUSP8QOKKNNN5S19YACNVCZX","","img/set1/S1.jpg","83","1","structured_incentive","83","true","structured_incentive,structured_normal,random","2,3,1,2","",""
"null","","html-keyboard-response","282","464341","0.0-211.0","3S96KQ6I9NQ6TKFW8TGNOABXKHVTD9","A19M1TGTL9HKHB","33Q5P9PUSP8QOKKNNN5S19YACNVCZX","","<img src=""img/set1/S1.jpg"" width=""540"" height = ""360"" style=""border:16px solid orange"">","null","","","","","","","",""
"null","","html-keyboard-response","283","464343","0.0-212.0","3S96KQ6I9NQ6TKFW8TGNOABXKHVTD9","A19M1TGTL9HKHB","33Q5P9PUSP8QOKKNNN5S19YACNVCZX","","","null","","","","","","","",""
"764","","image-keyboard-response","284","465108","0.0-213.0","3S96KQ6I9NQ6TKFW8TGNOABXKHVTD9","A19M1TGTL9HKHB","33Q5P9PUSP8QOKKNNN5S19YACNVCZX","","img/set1/S4.jpg","74","4","structured_incentive","74","true","structured_incentive,structured_normal,random","2,3,1,2","",""
"null","","html-keyboard-response","285","465461","0.0-214.0","3S96KQ6I9NQ6TKFW8TGNOABXKHVTD9","A19M1TGTL9HKHB","33Q5P9PUSP8QOKKNNN5S19YACNVCZX","","<img src=""img/set1/S4.jpg"" width=""540"" height = ""360"" style=""border:16px solid Violet"">","null","","","","","","","",""
"null","","html-keyboard-response","286","465463","0.0-215.0","3S96KQ6I9NQ6TKFW8TGNOABXKHVTD9","A19M1TGTL9HKHB","33Q5P9PUSP8QOKKNNN5S19YACNVCZX","","","null","","","","","","","",""
"986","","image-keyboard-response","287","466450","0.0-216.0","3S96KQ6I9NQ6TKFW8TGNOABXKHVTD9","A19M1TGTL9HKHB","33Q5P9PUSP8QOKKNNN5S19YACNVCZX","","img/set1/S1.jpg","68","1","structured_incentive","83","false","structured_incentive,structured_normal,random","2,3,1,2","",""
"null","","html-keyboard-response","288","466821","0.0-217.0","3S96KQ6I9NQ6TKFW8TGNOABXKHVTD9","A19M1TGTL9HKHB","33Q5P9PUSP8QOKKNNN5S19YACNVCZX","","<img src=""img/set1/S1.jpg"" width=""540"" height = ""360"">","null","","","","","","","",""
"null","","html-keyboard-response","289","466822","0.0-218.0","3S96KQ6I9NQ6TKFW8TGNOABXKHVTD9","A19M1TGTL9HKHB","33Q5P9PUSP8QOKKNNN5S19YACNVCZX","","","null","","","","","","","",""
"42","","image-keyboard-response","290","466865","0.0-219.0","3S96KQ6I9NQ6TKFW8TGNOABXKHVTD9","A19M1TGTL9HKHB","33Q5P9PUSP8QOKKNNN5S19YACNVCZX","","img/set1/S4.jpg","83","4","structured_incentive","74","false","structured_incentive,structured_normal,random","2,3,1,2","",""
"null","","html-keyboard-response","291","467219","0.0-220.0","3S96KQ6I9NQ6TKFW8TGNOABXKHVTD9","A19M1TGTL9HKHB","33Q5P9PUSP8QOKKNNN5S19YACNVCZX","","<img src=""img/set1/S4.jpg"" width=""540"" height = ""360"">","null","","","","","","","",""
"null","","html-keyboard-response","292","467221","0.0-221.0","3S96KQ6I9NQ6TKFW8TGNOABXKHVTD9","A19M1TGTL9HKHB","33Q5P9PUSP8QOKKNNN5S19YACNVCZX","","","null","","","","","","","",""
"1717","","image-keyboard-response","293","468939","0.0-222.0","3S96KQ6I9NQ6TKFW8TGNOABXKHVTD9","A19M1TGTL9HKHB","33Q5P9PUSP8QOKKNNN5S19YACNVCZX","","img/set1/S2.jpg","68","2","structured_incentive","68","true","structured_incentive,structured_normal,random","2,3,1,2","",""
"null","","html-keyboard-response","294","469300","0.0-223.0","3S96KQ6I9NQ6TKFW8TGNOABXKHVTD9","A19M1TGTL9HKHB","33Q5P9PUSP8QOKKNNN5S19YACNVCZX","","<img src=""img/set1/S2.jpg"" width=""540"" height = ""360"" style=""border:16px solid orange"">","null","","","","","","","",""
"null","","html-keyboard-response","295","469301","0.0-224.0","3S96KQ6I9NQ6TKFW8TGNOABXKHVTD9","A19M1TGTL9HKHB","33Q5P9PUSP8QOKKNNN5S19YACNVCZX","","","null","","","","","","","",""
"771","","image-keyboard-response","296","470074","0.0-225.0","3S96KQ6I9NQ6TKFW8TGNOABXKHVTD9","A19M1TGTL9HKHB","33Q5P9PUSP8QOKKNNN5S19YACNVCZX","","img/set1/S4.jpg","74","4","structured_incentive","74","true","structured_incentive,structured_normal,random","2,3,1,2","",""
"null","","html-keyboard-response","297","470430","0.0-226.0","3S96KQ6I9NQ6TKFW8TGNOABXKHVTD9","A19M1TGTL9HKHB","33Q5P9PUSP8QOKKNNN5S19YACNVCZX","","<img src=""img/set1/S4.jpg"" width=""540"" height = ""360"" style=""border:16px solid Violet"">","null","","","","","","","",""
"null","","html-keyboard-response","298","470431","0.0-227.0","3S96KQ6I9NQ6TKFW8TGNOABXKHVTD9","A19M1TGTL9HKHB","33Q5P9PUSP8QOKKNNN5S19YACNVCZX","","","null","","","","","","","",""
"549","","image-keyboard-response","299","470982","0.0-228.0","3S96KQ6I9NQ6TKFW8TGNOABXKHVTD9","A19M1TGTL9HKHB","33Q5P9PUSP8QOKKNNN5S19YACNVCZX","","img/set1/S4.jpg","74","4","structured_incentive","74","true","structured_incentive,structured_normal,random","2,3,1,2","",""
"null","","html-keyboard-response","300","471350","0.0-229.0","3S96KQ6I9NQ6TKFW8TGNOABXKHVTD9","A19M1TGTL9HKHB","33Q5P9PUSP8QOKKNNN5S19YACNVCZX","","<img src=""img/set1/S4.jpg"" width=""540"" height = ""360"" style=""border:16px solid Violet"">","null","","","","","","","",""
"null","","html-keyboard-response","301","471352","0.0-230.0","3S96KQ6I9NQ6TKFW8TGNOABXKHVTD9","A19M1TGTL9HKHB","33Q5P9PUSP8QOKKNNN5S19YACNVCZX","","","null","","","","","","","",""
"415","","image-keyboard-response","302","471769","0.0-231.0","3S96KQ6I9NQ6TKFW8TGNOABXKHVTD9","A19M1TGTL9HKHB","33Q5P9PUSP8QOKKNNN5S19YACNVCZX","","img/set1/S4.jpg","74","4","structured_incentive","74","true","structured_incentive,structured_normal,random","2,3,1,2","",""
"null","","html-keyboard-response","303","472133","0.0-232.0","3S96KQ6I9NQ6TKFW8TGNOABXKHVTD9","A19M1TGTL9HKHB","33Q5P9PUSP8QOKKNNN5S19YACNVCZX","","<img src=""img/set1/S4.jpg"" width=""540"" height = ""360"" style=""border:16px solid Violet"">","null","","","","","","","",""
"null","","html-keyboard-response","304","472135","0.0-233.0","3S96KQ6I9NQ6TKFW8TGNOABXKHVTD9","A19M1TGTL9HKHB","33Q5P9PUSP8QOKKNNN5S19YACNVCZX","","","null","","","","","","","",""
"587","","image-keyboard-response","305","472724","0.0-234.0","3S96KQ6I9NQ6TKFW8TGNOABXKHVTD9","A19M1TGTL9HKHB","33Q5P9PUSP8QOKKNNN5S19YACNVCZX","","img/set1/S3.jpg","72","3","structured_incentive","72","true","structured_incentive,structured_normal,random","2,3,1,2","",""
"null","","html-keyboard-response","306","473090","0.0-235.0","3S96KQ6I9NQ6TKFW8TGNOABXKHVTD9","A19M1TGTL9HKHB","33Q5P9PUSP8QOKKNNN5S19YACNVCZX","","<img src=""img/set1/S3.jpg"" width=""540"" height = ""360"" style=""border:16px solid orange"">","null","","","","","","","",""
"null","","html-keyboard-response","307","473092","0.0-236.0","3S96KQ6I9NQ6TKFW8TGNOABXKHVTD9","A19M1TGTL9HKHB","33Q5P9PUSP8QOKKNNN5S19YACNVCZX","","","null","","","","","","","",""
"633","","image-keyboard-response","308","473726","0.0-237.0","3S96KQ6I9NQ6TKFW8TGNOABXKHVTD9","A19M1TGTL9HKHB","33Q5P9PUSP8QOKKNNN5S19YACNVCZX","","img/set1/S1.jpg","68","1","structured_incentive","83","false","structured_incentive,structured_normal,random","2,3,1,2","",""
"null","","html-keyboard-response","309","474080","0.0-238.0","3S96KQ6I9NQ6TKFW8TGNOABXKHVTD9","A19M1TGTL9HKHB","33Q5P9PUSP8QOKKNNN5S19YACNVCZX","","<img src=""img/set1/S1.jpg"" width=""540"" height = ""360"">","null","","","","","","","",""
"null","","html-keyboard-response","310","474082","0.0-239.0","3S96KQ6I9NQ6TKFW8TGNOABXKHVTD9","A19M1TGTL9HKHB","33Q5P9PUSP8QOKKNNN5S19YACNVCZX","","","null","","","","","","","",""
"133","","image-keyboard-response","311","474218","0.0-240.0","3S96KQ6I9NQ6TKFW8TGNOABXKHVTD9","A19M1TGTL9HKHB","33Q5P9PUSP8QOKKNNN5S19YACNVCZX","","img/set1/S2.jpg","83","2","structured_incentive","68","false","structured_incentive,structured_normal,random","2,3,1,2","",""
"null","","html-keyboard-response","312","474581","0.0-241.0","3S96KQ6I9NQ6TKFW8TGNOABXKHVTD9","A19M1TGTL9HKHB","33Q5P9PUSP8QOKKNNN5S19YACNVCZX","","<img src=""img/set1/S2.jpg"" width=""540"" height = ""360"">","null","","","","","","","",""
"null","","html-keyboard-response","313","474583","0.0-242.0","3S96KQ6I9NQ6TKFW8TGNOABXKHVTD9","A19M1TGTL9HKHB","33Q5P9PUSP8QOKKNNN5S19YACNVCZX","","","null","","","","","","","",""
"1177","","image-keyboard-response","314","475761","0.0-243.0","3S96KQ6I9NQ6TKFW8TGNOABXKHVTD9","A19M1TGTL9HKHB","33Q5P9PUSP8QOKKNNN5S19YACNVCZX","","img/set1/S4.jpg","74","4","structured_incentive","74","true","structured_incentive,structured_normal,random","2,3,1,2","",""
"null","","html-keyboard-response","315","476130","0.0-244.0","3S96KQ6I9NQ6TKFW8TGNOABXKHVTD9","A19M1TGTL9HKHB","33Q5P9PUSP8QOKKNNN5S19YACNVCZX","","<img src=""img/set1/S4.jpg"" width=""540"" height = ""360"" style=""border:16px solid Violet"">","null","","","","","","","",""
"null","","html-keyboard-response","316","476132","0.0-245.0","3S96KQ6I9NQ6TKFW8TGNOABXKHVTD9","A19M1TGTL9HKHB","33Q5P9PUSP8QOKKNNN5S19YACNVCZX","","","null","","","","","","","",""
"392","","image-keyboard-response","317","476525","0.0-246.0","3S96KQ6I9NQ6TKFW8TGNOABXKHVTD9","A19M1TGTL9HKHB","33Q5P9PUSP8QOKKNNN5S19YACNVCZX","","img/set1/S4.jpg","74","4","structured_incentive","74","true","structured_incentive,structured_normal,random","2,3,1,2","",""
"null","","html-keyboard-response","318","476880","0.0-247.0","3S96KQ6I9NQ6TKFW8TGNOABXKHVTD9","A19M1TGTL9HKHB","33Q5P9PUSP8QOKKNNN5S19YACNVCZX","","<img src=""img/set1/S4.jpg"" width=""540"" height = ""360"" style=""border:16px solid Violet"">","null","","","","","","","",""
"null","","html-keyboard-response","319","476882","0.0-248.0","3S96KQ6I9NQ6TKFW8TGNOABXKHVTD9","A19M1TGTL9HKHB","33Q5P9PUSP8QOKKNNN5S19YACNVCZX","","","null","","","","","","","",""
"767","","image-keyboard-response","320","477651","0.0-249.0","3S96KQ6I9NQ6TKFW8TGNOABXKHVTD9","A19M1TGTL9HKHB","33Q5P9PUSP8QOKKNNN5S19YACNVCZX","","img/set1/S2.jpg","68","2","structured_incentive","68","true","structured_incentive,structured_normal,random","2,3,1,2","",""
"null","","html-keyboard-response","321","478020","0.0-250.0","3S96KQ6I9NQ6TKFW8TGNOABXKHVTD9","A19M1TGTL9HKHB","33Q5P9PUSP8QOKKNNN5S19YACNVCZX","","<img src=""img/set1/S2.jpg"" width=""540"" height = ""360"" style=""border:16px solid orange"">","null","","","","","","","",""
"null","","html-keyboard-response","322","478022","0.0-251.0","3S96KQ6I9NQ6TKFW8TGNOABXKHVTD9","A19M1TGTL9HKHB","33Q5P9PUSP8QOKKNNN5S19YACNVCZX","","","null","","","","","","","",""
"675","","image-keyboard-response","323","478700","0.0-252.0","3S96KQ6I9NQ6TKFW8TGNOABXKHVTD9","A19M1TGTL9HKHB","33Q5P9PUSP8QOKKNNN5S19YACNVCZX","","img/set1/S3.jpg","72","3","structured_incentive","72","true","structured_incentive,structured_normal,random","2,3,1,2","",""
"null","","html-keyboard-response","324","479061","0.0-253.0","3S96KQ6I9NQ6TKFW8TGNOABXKHVTD9","A19M1TGTL9HKHB","33Q5P9PUSP8QOKKNNN5S19YACNVCZX","","<img src=""img/set1/S3.jpg"" width=""540"" height = ""360"" style=""border:16px solid orange"">","null","","","","","","","",""
"null","","html-keyboard-response","325","479062","0.0-254.0","3S96KQ6I9NQ6TKFW8TGNOABXKHVTD9","A19M1TGTL9HKHB","33Q5P9PUSP8QOKKNNN5S19YACNVCZX","","","null","","","","","","","",""
"621","","image-keyboard-response","326","479684","0.0-255.0","3S96KQ6I9NQ6TKFW8TGNOABXKHVTD9","A19M1TGTL9HKHB","33Q5P9PUSP8QOKKNNN5S19YACNVCZX","","img/set1/S2.jpg","68","2","structured_incentive","68","true","structured_incentive,structured_normal,random","2,3,1,2","",""
"null","","html-keyboard-response","327","480041","0.0-256.0","3S96KQ6I9NQ6TKFW8TGNOABXKHVTD9","A19M1TGTL9HKHB","33Q5P9PUSP8QOKKNNN5S19YACNVCZX","","<img src=""img/set1/S2.jpg"" width=""540"" height = ""360"" style=""border:16px solid orange"">","null","","","","","","","",""
"null","","html-keyboard-response","328","480043","0.0-257.0","3S96KQ6I9NQ6TKFW8TGNOABXKHVTD9","A19M1TGTL9HKHB","33Q5P9PUSP8QOKKNNN5S19YACNVCZX","","","null","","","","","","","",""
"565","","image-keyboard-response","329","480610","0.0-258.0","3S96KQ6I9NQ6TKFW8TGNOABXKHVTD9","A19M1TGTL9HKHB","33Q5P9PUSP8QOKKNNN5S19YACNVCZX","","img/set1/S4.jpg","74","4","structured_incentive","74","true","structured_incentive,structured_normal,random","2,3,1,2","",""
"null","","html-keyboard-response","330","480970","0.0-259.0","3S96KQ6I9NQ6TKFW8TGNOABXKHVTD9","A19M1TGTL9HKHB","33Q5P9PUSP8QOKKNNN5S19YACNVCZX","","<img src=""img/set1/S4.jpg"" width=""540"" height = ""360"" style=""border:16px solid Violet"">","null","","","","","","","",""
"null","","html-keyboard-response","331","480972","0.0-260.0","3S96KQ6I9NQ6TKFW8TGNOABXKHVTD9","A19M1TGTL9HKHB","33Q5P9PUSP8QOKKNNN5S19YACNVCZX","","","null","","","","","","","",""
"858","","image-keyboard-response","332","481832","0.0-261.0","3S96KQ6I9NQ6TKFW8TGNOABXKHVTD9","A19M1TGTL9HKHB","33Q5P9PUSP8QOKKNNN5S19YACNVCZX","","img/set1/S2.jpg","68","2","structured_incentive","68","true","structured_incentive,structured_normal,random","2,3,1,2","",""
"null","","html-keyboard-response","333","482190","0.0-262.0","3S96KQ6I9NQ6TKFW8TGNOABXKHVTD9","A19M1TGTL9HKHB","33Q5P9PUSP8QOKKNNN5S19YACNVCZX","","<img src=""img/set1/S2.jpg"" width=""540"" height = ""360"" style=""border:16px solid orange"">","null","","","","","","","",""
"null","","html-keyboard-response","334","482192","0.0-263.0","3S96KQ6I9NQ6TKFW8TGNOABXKHVTD9","A19M1TGTL9HKHB","33Q5P9PUSP8QOKKNNN5S19YACNVCZX","","","null","","","","","","","",""
"820","","image-keyboard-response","335","483014","0.0-264.0","3S96KQ6I9NQ6TKFW8TGNOABXKHVTD9","A19M1TGTL9HKHB","33Q5P9PUSP8QOKKNNN5S19YACNVCZX","","img/set1/S3.jpg","72","3","structured_incentive","72","true","structured_incentive,structured_normal,random","2,3,1,2","",""
"null","","html-keyboard-response","336","483370","0.0-265.0","3S96KQ6I9NQ6TKFW8TGNOABXKHVTD9","A19M1TGTL9HKHB","33Q5P9PUSP8QOKKNNN5S19YACNVCZX","","<img src=""img/set1/S3.jpg"" width=""540"" height = ""360"" style=""border:16px solid orange"">","null","","","","","","","",""
"null","","html-keyboard-response","337","483372","0.0-266.0","3S96KQ6I9NQ6TKFW8TGNOABXKHVTD9","A19M1TGTL9HKHB","33Q5P9PUSP8QOKKNNN5S19YACNVCZX","","","null","","","","","","","",""
"557","","image-keyboard-response","338","483929","0.0-267.0","3S96KQ6I9NQ6TKFW8TGNOABXKHVTD9","A19M1TGTL9HKHB","33Q5P9PUSP8QOKKNNN5S19YACNVCZX","","img/set1/S4.jpg","74","4","structured_incentive","74","true","structured_incentive,structured_normal,random","2,3,1,2","",""
"null","","html-keyboard-response","339","484290","0.0-268.0","3S96KQ6I9NQ6TKFW8TGNOABXKHVTD9","A19M1TGTL9HKHB","33Q5P9PUSP8QOKKNNN5S19YACNVCZX","","<img src=""img/set1/S4.jpg"" width=""540"" height = ""360"" style=""border:16px solid Violet"">","null","","","","","","","",""
"null","","html-keyboard-response","340","484292","0.0-269.0","3S96KQ6I9NQ6TKFW8TGNOABXKHVTD9","A19M1TGTL9HKHB","33Q5P9PUSP8QOKKNNN5S19YACNVCZX","","","null","","","","","","","",""
"742","","image-keyboard-response","341","485036","0.0-270.0","3S96KQ6I9NQ6TKFW8TGNOABXKHVTD9","A19M1TGTL9HKHB","33Q5P9PUSP8QOKKNNN5S19YACNVCZX","","img/set1/S1.jpg","83","1","structured_incentive","83","true","structured_incentive,structured_normal,random","2,3,1,2","",""
"null","","html-keyboard-response","342","485392","0.0-271.0","3S96KQ6I9NQ6TKFW8TGNOABXKHVTD9","A19M1TGTL9HKHB","33Q5P9PUSP8QOKKNNN5S19YACNVCZX","","<img src=""img/set1/S1.jpg"" width=""540"" height = ""360"" style=""border:16px solid orange"">","null","","","","","","","",""
"null","","html-keyboard-response","343","485394","0.0-272.0","3S96KQ6I9NQ6TKFW8TGNOABXKHVTD9","A19M1TGTL9HKHB","33Q5P9PUSP8QOKKNNN5S19YACNVCZX","","","null","","","","","","","",""
"764","","image-keyboard-response","344","486160","0.0-273.0","3S96KQ6I9NQ6TKFW8TGNOABXKHVTD9","A19M1TGTL9HKHB","33Q5P9PUSP8QOKKNNN5S19YACNVCZX","","img/set1/S3.jpg","72","3","structured_incentive","72","true","structured_incentive,structured_normal,random","2,3,1,2","",""
"null","","html-keyboard-response","345","486530","0.0-274.0","3S96KQ6I9NQ6TKFW8TGNOABXKHVTD9","A19M1TGTL9HKHB","33Q5P9PUSP8QOKKNNN5S19YACNVCZX","","<img src=""img/set1/S3.jpg"" width=""540"" height = ""360"" style=""border:16px solid orange"">","null","","","","","","","",""
"null","","html-keyboard-response","346","486532","0.0-275.0","3S96KQ6I9NQ6TKFW8TGNOABXKHVTD9","A19M1TGTL9HKHB","33Q5P9PUSP8QOKKNNN5S19YACNVCZX","","","null","","","","","","","",""
"642","","image-keyboard-response","347","487177","0.0-276.0","3S96KQ6I9NQ6TKFW8TGNOABXKHVTD9","A19M1TGTL9HKHB","33Q5P9PUSP8QOKKNNN5S19YACNVCZX","","img/set1/S3.jpg","72","3","structured_incentive","72","true","structured_incentive,structured_normal,random","2,3,1,2","",""
"null","","html-keyboard-response","348","487530","0.0-277.0","3S96KQ6I9NQ6TKFW8TGNOABXKHVTD9","A19M1TGTL9HKHB","33Q5P9PUSP8QOKKNNN5S19YACNVCZX","","<img src=""img/set1/S3.jpg"" width=""540"" height = ""360"" style=""border:16px solid orange"">","null","","","","","","","",""
"null","","html-keyboard-response","349","487532","0.0-278.0","3S96KQ6I9NQ6TKFW8TGNOABXKHVTD9","A19M1TGTL9HKHB","33Q5P9PUSP8QOKKNNN5S19YACNVCZX","","","null","","","","","","","",""
"854","","image-keyboard-response","350","488388","0.0-279.0","3S96KQ6I9NQ6TKFW8TGNOABXKHVTD9","A19M1TGTL9HKHB","33Q5P9PUSP8QOKKNNN5S19YACNVCZX","","img/set1/S1.jpg","83","1","structured_incentive","83","true","structured_incentive,structured_normal,random","2,3,1,2","",""
"null","","html-keyboard-response","351","488740","0.0-280.0","3S96KQ6I9NQ6TKFW8TGNOABXKHVTD9","A19M1TGTL9HKHB","33Q5P9PUSP8QOKKNNN5S19YACNVCZX","","<img src=""img/set1/S1.jpg"" width=""540"" height = ""360"" style=""border:16px solid orange"">","null","","","","","","","",""
"null","","html-keyboard-response","352","488743","0.0-281.0","3S96KQ6I9NQ6TKFW8TGNOABXKHVTD9","A19M1TGTL9HKHB","33Q5P9PUSP8QOKKNNN5S19YACNVCZX","","","null","","","","","","","",""
"709","","image-keyboard-response","353","489453","0.0-282.0","3S96KQ6I9NQ6TKFW8TGNOABXKHVTD9","A19M1TGTL9HKHB","33Q5P9PUSP8QOKKNNN5S19YACNVCZX","","img/set1/S1.jpg","83","1","structured_incentive","83","true","structured_incentive,structured_normal,random","2,3,1,2","",""
"null","","html-keyboard-response","354","489820","0.0-283.0","3S96KQ6I9NQ6TKFW8TGNOABXKHVTD9","A19M1TGTL9HKHB","33Q5P9PUSP8QOKKNNN5S19YACNVCZX","","<img src=""img/set1/S1.jpg"" width=""540"" height = ""360"" style=""border:16px solid orange"">","null","","","","","","","",""
"null","","html-keyboard-response","355","489822","0.0-284.0","3S96KQ6I9NQ6TKFW8TGNOABXKHVTD9","A19M1TGTL9HKHB","33Q5P9PUSP8QOKKNNN5S19YACNVCZX","","","null","","","","","","","",""
"767","","image-keyboard-response","356","490591","0.0-285.0","3S96KQ6I9NQ6TKFW8TGNOABXKHVTD9","A19M1TGTL9HKHB","33Q5P9PUSP8QOKKNNN5S19YACNVCZX","","img/set1/S2.jpg","74","2","structured_incentive","68","false","structured_incentive,structured_normal,random","2,3,1,2","",""
"null","","html-keyboard-response","357","490960","0.0-286.0","3S96KQ6I9NQ6TKFW8TGNOABXKHVTD9","A19M1TGTL9HKHB","33Q5P9PUSP8QOKKNNN5S19YACNVCZX","","<img src=""img/set1/S2.jpg"" width=""540"" height = ""360"">","null","","","","","","","",""
"null","","html-keyboard-response","358","490963","0.0-287.0","3S96KQ6I9NQ6TKFW8TGNOABXKHVTD9","A19M1TGTL9HKHB","33Q5P9PUSP8QOKKNNN5S19YACNVCZX","","","null","","","","","","","",""
"823","","image-keyboard-response","359","491787","0.0-288.0","3S96KQ6I9NQ6TKFW8TGNOABXKHVTD9","A19M1TGTL9HKHB","33Q5P9PUSP8QOKKNNN5S19YACNVCZX","","img/set1/S3.jpg","74","3","structured_incentive","72","false","structured_incentive,structured_normal,random","2,3,1,2","",""
"null","","html-keyboard-response","360","492141","0.0-289.0","3S96KQ6I9NQ6TKFW8TGNOABXKHVTD9","A19M1TGTL9HKHB","33Q5P9PUSP8QOKKNNN5S19YACNVCZX","","<img src=""img/set1/S3.jpg"" width=""540"" height = ""360"">","null","","","","","","","",""
"null","","html-keyboard-response","361","492143","0.0-290.0","3S96KQ6I9NQ6TKFW8TGNOABXKHVTD9","A19M1TGTL9HKHB","33Q5P9PUSP8QOKKNNN5S19YACNVCZX","","","null","","","","","","","",""
"955","","image-keyboard-response","362","493098","0.0-291.0","3S96KQ6I9NQ6TKFW8TGNOABXKHVTD9","A19M1TGTL9HKHB","33Q5P9PUSP8QOKKNNN5S19YACNVCZX","","img/set1/S1.jpg","83","1","structured_incentive","83","true","structured_incentive,structured_normal,random","2,3,1,2","",""
"null","","html-keyboard-response","363","493450","0.0-292.0","3S96KQ6I9NQ6TKFW8TGNOABXKHVTD9","A19M1TGTL9HKHB","33Q5P9PUSP8QOKKNNN5S19YACNVCZX","","<img src=""img/set1/S1.jpg"" width=""540"" height = ""360"" style=""border:16px solid orange"">","null","","","","","","","",""
"null","","html-keyboard-response","364","493453","0.0-293.0","3S96KQ6I9NQ6TKFW8TGNOABXKHVTD9","A19M1TGTL9HKHB","33Q5P9PUSP8QOKKNNN5S19YACNVCZX","","","null","","","","","","","",""
"618","","image-keyboard-response","365","494071","0.0-294.0","3S96KQ6I9NQ6TKFW8TGNOABXKHVTD9","A19M1TGTL9HKHB","33Q5P9PUSP8QOKKNNN5S19YACNVCZX","","img/set1/S1.jpg","83","1","structured_incentive","83","true","structured_incentive,structured_normal,random","2,3,1,2","",""
"null","","html-keyboard-response","366","494440","0.0-295.0","3S96KQ6I9NQ6TKFW8TGNOABXKHVTD9","A19M1TGTL9HKHB","33Q5P9PUSP8QOKKNNN5S19YACNVCZX","","<img src=""img/set1/S1.jpg"" width=""540"" height = ""360"" style=""border:16px solid orange"">","null","","","","","","","",""
"null","","html-keyboard-response","367","494442","0.0-296.0","3S96KQ6I9NQ6TKFW8TGNOABXKHVTD9","A19M1TGTL9HKHB","33Q5P9PUSP8QOKKNNN5S19YACNVCZX","","","null","","","","","","","",""
"948","","image-keyboard-response","368","495392","0.0-297.0","3S96KQ6I9NQ6TKFW8TGNOABXKHVTD9","A19M1TGTL9HKHB","33Q5P9PUSP8QOKKNNN5S19YACNVCZX","","img/set1/S2.jpg","68","2","structured_incentive","68","true","structured_incentive,structured_normal,random","2,3,1,2","",""
"null","","html-keyboard-response","369","495756","0.0-298.0","3S96KQ6I9NQ6TKFW8TGNOABXKHVTD9","A19M1TGTL9HKHB","33Q5P9PUSP8QOKKNNN5S19YACNVCZX","","<img src=""img/set1/S2.jpg"" width=""540"" height = ""360"" style=""border:16px solid orange"">","null","","","","","","","",""
"null","","html-keyboard-response","370","495758","0.0-299.0","3S96KQ6I9NQ6TKFW8TGNOABXKHVTD9","A19M1TGTL9HKHB","33Q5P9PUSP8QOKKNNN5S19YACNVCZX","","","null","","","","","","","",""
"713","","image-keyboard-response","371","496473","0.0-300.0","3S96KQ6I9NQ6TKFW8TGNOABXKHVTD9","A19M1TGTL9HKHB","33Q5P9PUSP8QOKKNNN5S19YACNVCZX","","img/set1/S4.jpg","74","4","structured_incentive","74","true","structured_incentive,structured_normal,random","2,3,1,2","",""
"null","","html-keyboard-response","372","496830","0.0-301.0","3S96KQ6I9NQ6TKFW8TGNOABXKHVTD9","A19M1TGTL9HKHB","33Q5P9PUSP8QOKKNNN5S19YACNVCZX","","<img src=""img/set1/S4.jpg"" width=""540"" height = ""360"" style=""border:16px solid Violet"">","null","","","","","","","",""
"null","","html-keyboard-response","373","496832","0.0-302.0","3S96KQ6I9NQ6TKFW8TGNOABXKHVTD9","A19M1TGTL9HKHB","33Q5P9PUSP8QOKKNNN5S19YACNVCZX","","","null","","","","","","","",""
"921","","image-keyboard-response","374","497755","0.0-303.0","3S96KQ6I9NQ6TKFW8TGNOABXKHVTD9","A19M1TGTL9HKHB","33Q5P9PUSP8QOKKNNN5S19YACNVCZX","","img/set1/S2.jpg","68","2","structured_incentive","68","true","structured_incentive,structured_normal,random","2,3,1,2","",""
"null","","html-keyboard-response","375","498110","0.0-304.0","3S96KQ6I9NQ6TKFW8TGNOABXKHVTD9","A19M1TGTL9HKHB","33Q5P9PUSP8QOKKNNN5S19YACNVCZX","","<img src=""img/set1/S2.jpg"" width=""540"" height = ""360"" style=""border:16px solid orange"">","null","","","","","","","",""
"null","","html-keyboard-response","376","498112","0.0-305.0","3S96KQ6I9NQ6TKFW8TGNOABXKHVTD9","A19M1TGTL9HKHB","33Q5P9PUSP8QOKKNNN5S19YACNVCZX","","","null","","","","","","","",""
"706","","image-keyboard-response","377","498819","0.0-306.0","3S96KQ6I9NQ6TKFW8TGNOABXKHVTD9","A19M1TGTL9HKHB","33Q5P9PUSP8QOKKNNN5S19YACNVCZX","","img/set1/S3.jpg","72","3","structured_incentive","72","true","structured_incentive,structured_normal,random","2,3,1,2","",""
"null","","html-keyboard-response","378","499190","0.0-307.0","3S96KQ6I9NQ6TKFW8TGNOABXKHVTD9","A19M1TGTL9HKHB","33Q5P9PUSP8QOKKNNN5S19YACNVCZX","","<img src=""img/set1/S3.jpg"" width=""540"" height = ""360"" style=""border:16px solid orange"">","null","","","","","","","",""
"null","","html-keyboard-response","379","499192","0.0-308.0","3S96KQ6I9NQ6TKFW8TGNOABXKHVTD9","A19M1TGTL9HKHB","33Q5P9PUSP8QOKKNNN5S19YACNVCZX","","","null","","","","","","","",""
"698","","image-keyboard-response","380","499892","0.0-309.0","3S96KQ6I9NQ6TKFW8TGNOABXKHVTD9","A19M1TGTL9HKHB","33Q5P9PUSP8QOKKNNN5S19YACNVCZX","","img/set1/S4.jpg","74","4","structured_incentive","74","true","structured_incentive,structured_normal,random","2,3,1,2","",""
"null","","html-keyboard-response","381","500256","0.0-310.0","3S96KQ6I9NQ6TKFW8TGNOABXKHVTD9","A19M1TGTL9HKHB","33Q5P9PUSP8QOKKNNN5S19YACNVCZX","","<img src=""img/set1/S4.jpg"" width=""540"" height = ""360"" style=""border:16px solid Violet"">","null","","","","","","","",""
"null","","html-keyboard-response","382","500258","0.0-311.0","3S96KQ6I9NQ6TKFW8TGNOABXKHVTD9","A19M1TGTL9HKHB","33Q5P9PUSP8QOKKNNN5S19YACNVCZX","","","null","","","","","","","",""
"675","","image-keyboard-response","383","500933","0.0-312.0","3S96KQ6I9NQ6TKFW8TGNOABXKHVTD9","A19M1TGTL9HKHB","33Q5P9PUSP8QOKKNNN5S19YACNVCZX","","img/set1/S1.jpg","83","1","structured_incentive","83","true","structured_incentive,structured_normal,random","2,3,1,2","",""
"null","","html-keyboard-response","384","501290","0.0-313.0","3S96KQ6I9NQ6TKFW8TGNOABXKHVTD9","A19M1TGTL9HKHB","33Q5P9PUSP8QOKKNNN5S19YACNVCZX","","<img src=""img/set1/S1.jpg"" width=""540"" height = ""360"" style=""border:16px solid orange"">","null","","","","","","","",""
"null","","html-keyboard-response","385","501292","0.0-314.0","3S96KQ6I9NQ6TKFW8TGNOABXKHVTD9","A19M1TGTL9HKHB","33Q5P9PUSP8QOKKNNN5S19YACNVCZX","","","null","","","","","","","",""
"564","","image-keyboard-response","386","501859","0.0-315.0","3S96KQ6I9NQ6TKFW8TGNOABXKHVTD9","A19M1TGTL9HKHB","33Q5P9PUSP8QOKKNNN5S19YACNVCZX","","img/set1/S1.jpg","83","1","structured_incentive","83","true","structured_incentive,structured_normal,random","2,3,1,2","",""
"null","","html-keyboard-response","387","502220","0.0-316.0","3S96KQ6I9NQ6TKFW8TGNOABXKHVTD9","A19M1TGTL9HKHB","33Q5P9PUSP8QOKKNNN5S19YACNVCZX","","<img src=""img/set1/S1.jpg"" width=""540"" height = ""360"" style=""border:16px solid orange"">","null","","","","","","","",""
"null","","html-keyboard-response","388","502222","0.0-317.0","3S96KQ6I9NQ6TKFW8TGNOABXKHVTD9","A19M1TGTL9HKHB","33Q5P9PUSP8QOKKNNN5S19YACNVCZX","","","null","","","","","","","",""
"715","","image-keyboard-response","389","502938","0.0-318.0","3S96KQ6I9NQ6TKFW8TGNOABXKHVTD9","A19M1TGTL9HKHB","33Q5P9PUSP8QOKKNNN5S19YACNVCZX","","img/set1/S2.jpg","68","2","structured_incentive","68","true","structured_incentive,structured_normal,random","2,3,1,2","",""
"null","","html-keyboard-response","390","503300","0.0-319.0","3S96KQ6I9NQ6TKFW8TGNOABXKHVTD9","A19M1TGTL9HKHB","33Q5P9PUSP8QOKKNNN5S19YACNVCZX","","<img src=""img/set1/S2.jpg"" width=""540"" height = ""360"" style=""border:16px solid orange"">","null","","","","","","","",""
"null","","html-keyboard-response","391","503302","0.0-320.0","3S96KQ6I9NQ6TKFW8TGNOABXKHVTD9","A19M1TGTL9HKHB","33Q5P9PUSP8QOKKNNN5S19YACNVCZX","","","null","","","","","","","",""
"674","","image-keyboard-response","392","503978","0.0-321.0","3S96KQ6I9NQ6TKFW8TGNOABXKHVTD9","A19M1TGTL9HKHB","33Q5P9PUSP8QOKKNNN5S19YACNVCZX","","img/set1/S3.jpg","72","3","structured_incentive","72","true","structured_incentive,structured_normal,random","2,3,1,2","",""
"null","","html-keyboard-response","393","504341","0.0-322.0","3S96KQ6I9NQ6TKFW8TGNOABXKHVTD9","A19M1TGTL9HKHB","33Q5P9PUSP8QOKKNNN5S19YACNVCZX","","<img src=""img/set1/S3.jpg"" width=""540"" height = ""360"" style=""border:16px solid orange"">","null","","","","","","","",""
"null","","html-keyboard-response","394","504343","0.0-323.0","3S96KQ6I9NQ6TKFW8TGNOABXKHVTD9","A19M1TGTL9HKHB","33Q5P9PUSP8QOKKNNN5S19YACNVCZX","","","null","","","","","","","",""
"768","","image-keyboard-response","395","505112","0.0-324.0","3S96KQ6I9NQ6TKFW8TGNOABXKHVTD9","A19M1TGTL9HKHB","33Q5P9PUSP8QOKKNNN5S19YACNVCZX","","img/set1/S3.jpg","72","3","structured_incentive","72","true","structured_incentive,structured_normal,random","2,3,1,2","",""
"null","","html-keyboard-response","396","505471","0.0-325.0","3S96KQ6I9NQ6TKFW8TGNOABXKHVTD9","A19M1TGTL9HKHB","33Q5P9PUSP8QOKKNNN5S19YACNVCZX","","<img src=""img/set1/S3.jpg"" width=""540"" height = ""360"" style=""border:16px solid orange"">","null","","","","","","","",""
"null","","html-keyboard-response","397","505473","0.0-326.0","3S96KQ6I9NQ6TKFW8TGNOABXKHVTD9","A19M1TGTL9HKHB","33Q5P9PUSP8QOKKNNN5S19YACNVCZX","","","null","","","","","","","",""
"709","","image-keyboard-response","398","506184","0.0-327.0","3S96KQ6I9NQ6TKFW8TGNOABXKHVTD9","A19M1TGTL9HKHB","33Q5P9PUSP8QOKKNNN5S19YACNVCZX","","img/set1/S4.jpg","74","4","structured_incentive","74","true","structured_incentive,structured_normal,random","2,3,1,2","",""
"null","","html-keyboard-response","399","506540","0.0-328.0","3S96KQ6I9NQ6TKFW8TGNOABXKHVTD9","A19M1TGTL9HKHB","33Q5P9PUSP8QOKKNNN5S19YACNVCZX","","<img src=""img/set1/S4.jpg"" width=""540"" height = ""360"" style=""border:16px solid Violet"">","null","","","","","","","",""
"null","","html-keyboard-response","400","506543","0.0-329.0","3S96KQ6I9NQ6TKFW8TGNOABXKHVTD9","A19M1TGTL9HKHB","33Q5P9PUSP8QOKKNNN5S19YACNVCZX","","","null","","","","","","","",""
"592","","image-keyboard-response","401","507136","0.0-330.0","3S96KQ6I9NQ6TKFW8TGNOABXKHVTD9","A19M1TGTL9HKHB","33Q5P9PUSP8QOKKNNN5S19YACNVCZX","","img/set1/S1.jpg","83","1","structured_incentive","83","true","structured_incentive,structured_normal,random","2,3,1,2","",""
"null","","html-keyboard-response","402","507490","0.0-331.0","3S96KQ6I9NQ6TKFW8TGNOABXKHVTD9","A19M1TGTL9HKHB","33Q5P9PUSP8QOKKNNN5S19YACNVCZX","","<img src=""img/set1/S1.jpg"" width=""540"" height = ""360"" style=""border:16px solid orange"">","null","","","","","","","",""
"null","","html-keyboard-response","403","507493","0.0-332.0","3S96KQ6I9NQ6TKFW8TGNOABXKHVTD9","A19M1TGTL9HKHB","33Q5P9PUSP8QOKKNNN5S19YACNVCZX","","","null","","","","","","","",""
"649","","image-keyboard-response","404","508144","0.0-333.0","3S96KQ6I9NQ6TKFW8TGNOABXKHVTD9","A19M1TGTL9HKHB","33Q5P9PUSP8QOKKNNN5S19YACNVCZX","","img/set1/S2.jpg","68","2","structured_incentive","68","true","structured_incentive,structured_normal,random","2,3,1,2","",""
"null","","html-keyboard-response","405","508510","0.0-334.0","3S96KQ6I9NQ6TKFW8TGNOABXKHVTD9","A19M1TGTL9HKHB","33Q5P9PUSP8QOKKNNN5S19YACNVCZX","","<img src=""img/set1/S2.jpg"" width=""540"" height = ""360"" style=""border:16px solid orange"">","null","","","","","","","",""
"null","","html-keyboard-response","406","508513","0.0-335.0","3S96KQ6I9NQ6TKFW8TGNOABXKHVTD9","A19M1TGTL9HKHB","33Q5P9PUSP8QOKKNNN5S19YACNVCZX","","","null","","","","","","","",""
"745","","image-keyboard-response","407","509258","0.0-336.0","3S96KQ6I9NQ6TKFW8TGNOABXKHVTD9","A19M1TGTL9HKHB","33Q5P9PUSP8QOKKNNN5S19YACNVCZX","","img/set1/S3.jpg","72","3","structured_incentive","72","true","structured_incentive,structured_normal,random","2,3,1,2","",""
"null","","html-keyboard-response","408","509630","0.0-337.0","3S96KQ6I9NQ6TKFW8TGNOABXKHVTD9","A19M1TGTL9HKHB","33Q5P9PUSP8QOKKNNN5S19YACNVCZX","","<img src=""img/set1/S3.jpg"" width=""540"" height = ""360"" style=""border:16px solid orange"">","null","","","","","","","",""
"null","","html-keyboard-response","409","509632","0.0-338.0","3S96KQ6I9NQ6TKFW8TGNOABXKHVTD9","A19M1TGTL9HKHB","33Q5P9PUSP8QOKKNNN5S19YACNVCZX","","","null","","","","","","","",""
"963","","image-keyboard-response","410","510596","0.0-339.0","3S96KQ6I9NQ6TKFW8TGNOABXKHVTD9","A19M1TGTL9HKHB","33Q5P9PUSP8QOKKNNN5S19YACNVCZX","","img/set1/S2.jpg","68","2","structured_incentive","68","true","structured_incentive,structured_normal,random","2,3,1,2","",""
"null","","html-keyboard-response","411","510950","0.0-340.0","3S96KQ6I9NQ6TKFW8TGNOABXKHVTD9","A19M1TGTL9HKHB","33Q5P9PUSP8QOKKNNN5S19YACNVCZX","","<img src=""img/set1/S2.jpg"" width=""540"" height = ""360"" style=""border:16px solid orange"">","null","","","","","","","",""
"null","","html-keyboard-response","412","510953","0.0-341.0","3S96KQ6I9NQ6TKFW8TGNOABXKHVTD9","A19M1TGTL9HKHB","33Q5P9PUSP8QOKKNNN5S19YACNVCZX","","","null","","","","","","","",""
"788","","image-keyboard-response","413","511742","0.0-342.0","3S96KQ6I9NQ6TKFW8TGNOABXKHVTD9","A19M1TGTL9HKHB","33Q5P9PUSP8QOKKNNN5S19YACNVCZX","","img/set1/S3.jpg","72","3","structured_incentive","72","true","structured_incentive,structured_normal,random","2,3,1,2","",""
"null","","html-keyboard-response","414","512101","0.0-343.0","3S96KQ6I9NQ6TKFW8TGNOABXKHVTD9","A19M1TGTL9HKHB","33Q5P9PUSP8QOKKNNN5S19YACNVCZX","","<img src=""img/set1/S3.jpg"" width=""540"" height = ""360"" style=""border:16px solid orange"">","null","","","","","","","",""
"null","","html-keyboard-response","415","512102","0.0-344.0","3S96KQ6I9NQ6TKFW8TGNOABXKHVTD9","A19M1TGTL9HKHB","33Q5P9PUSP8QOKKNNN5S19YACNVCZX","","","null","","","","","","","",""
"859","","image-keyboard-response","416","512962","0.0-345.0","3S96KQ6I9NQ6TKFW8TGNOABXKHVTD9","A19M1TGTL9HKHB","33Q5P9PUSP8QOKKNNN5S19YACNVCZX","","img/set1/S4.jpg","74","4","structured_incentive","74","true","structured_incentive,structured_normal,random","2,3,1,2","",""
"null","","html-keyboard-response","417","513321","0.0-346.0","3S96KQ6I9NQ6TKFW8TGNOABXKHVTD9","A19M1TGTL9HKHB","33Q5P9PUSP8QOKKNNN5S19YACNVCZX","","<img src=""img/set1/S4.jpg"" width=""540"" height = ""360"" style=""border:16px solid Violet"">","null","","","","","","","",""
