"rt","url","trial_type","trial_index","time_elapsed","internal_node_id","assignmentID","mturkID","hitID","view_history","stimulus","key_press","state","test_part","correct_response","correct","order_block","order_chunk","bonus","responses"
"2763","consent.html","external-html","0","2903","0.0-0.0","3A9AA95ATX8DXF7WC6PKLOM8IXD5P9","A1AKL5YH9NLD2V","3XUSYT70ITN3RRKBJPNBFGD6FGOD06","","","","","","","","","","",""
"71827","","instructions","1","74749","0.0-1.0","3A9AA95ATX8DXF7WC6PKLOM8IXD5P9","A1AKL5YH9NLD2V","3XUSYT70ITN3RRKBJPNBFGD6FGOD06","[{""page_index"":0,""viewing_time"":5427.10000000149},{""page_index"":1,""viewing_time"":7399.799999998882},{""page_index"":2,""viewing_time"":6519.700000001118},{""page_index"":3,""viewing_time"":17000.099999999627},{""page_index"":4,""viewing_time"":10472},{""page_index"":5,""viewing_time"":12047.799999998882},{""page_index"":6,""viewing_time"":5255.5},{""page_index"":7,""viewing_time"":7704}]","","","","","","","","","",""
"833.9000000003725","","image-keyboard-response","2","75586","0.0-2.0-0.0","3A9AA95ATX8DXF7WC6PKLOM8IXD5P9","A1AKL5YH9NLD2V","3XUSYT70ITN3RRKBJPNBFGD6FGOD06","","img/practice/S4.jpg","83","4","practice","74","false","","","",""
"null","","html-keyboard-response","3","75887","0.0-2.0-1.0","3A9AA95ATX8DXF7WC6PKLOM8IXD5P9","A1AKL5YH9NLD2V","3XUSYT70ITN3RRKBJPNBFGD6FGOD06","","<img src=""img/practice/S4.jpg"" width=""540"" height = ""360"">","null","","","","","","","",""
"null","","html-keyboard-response","4","75891","0.0-2.0-2.0","3A9AA95ATX8DXF7WC6PKLOM8IXD5P9","A1AKL5YH9NLD2V","3XUSYT70ITN3RRKBJPNBFGD6FGOD06","","","null","","","","","","","",""
"940.4000000003725","","image-keyboard-response","5","76833","0.0-2.0-0.1","3A9AA95ATX8DXF7WC6PKLOM8IXD5P9","A1AKL5YH9NLD2V","3XUSYT70ITN3RRKBJPNBFGD6FGOD06","","img/practice/S3.jpg","83","3","practice","72","false","","","",""
"null","","html-keyboard-response","6","77139","0.0-2.0-1.1","3A9AA95ATX8DXF7WC6PKLOM8IXD5P9","A1AKL5YH9NLD2V","3XUSYT70ITN3RRKBJPNBFGD6FGOD06","","<img src=""img/practice/S3.jpg"" width=""540"" height = ""360"">","null","","","","","","","",""
"null","","html-keyboard-response","7","77155","0.0-2.0-2.1","3A9AA95ATX8DXF7WC6PKLOM8IXD5P9","A1AKL5YH9NLD2V","3XUSYT70ITN3RRKBJPNBFGD6FGOD06","","","null","","","","","","","",""
"740.8000000007451","","image-keyboard-response","8","77897","0.0-2.0-0.2","3A9AA95ATX8DXF7WC6PKLOM8IXD5P9","A1AKL5YH9NLD2V","3XUSYT70ITN3RRKBJPNBFGD6FGOD06","","img/practice/S2.jpg","83","2","practice","68","false","","","",""
"null","","html-keyboard-response","9","78199","0.0-2.0-1.2","3A9AA95ATX8DXF7WC6PKLOM8IXD5P9","A1AKL5YH9NLD2V","3XUSYT70ITN3RRKBJPNBFGD6FGOD06","","<img src=""img/practice/S2.jpg"" width=""540"" height = ""360"">","null","","","","","","","",""
"null","","html-keyboard-response","10","78201","0.0-2.0-2.2","3A9AA95ATX8DXF7WC6PKLOM8IXD5P9","A1AKL5YH9NLD2V","3XUSYT70ITN3RRKBJPNBFGD6FGOD06","","","null","","","","","","","",""
"663.7999999988824","","image-keyboard-response","11","78866","0.0-2.0-0.3","3A9AA95ATX8DXF7WC6PKLOM8IXD5P9","A1AKL5YH9NLD2V","3XUSYT70ITN3RRKBJPNBFGD6FGOD06","","img/practice/S1.jpg","83","1","practice","83","true","","","",""
"null","","html-keyboard-response","12","79168","0.0-2.0-1.3","3A9AA95ATX8DXF7WC6PKLOM8IXD5P9","A1AKL5YH9NLD2V","3XUSYT70ITN3RRKBJPNBFGD6FGOD06","","<img src=""img/practice/S1.jpg"" width=""540"" height = ""360"" style=""border:16px solid orange"">","null","","","","","","","",""
"null","","html-keyboard-response","13","79171","0.0-2.0-2.3","3A9AA95ATX8DXF7WC6PKLOM8IXD5P9","A1AKL5YH9NLD2V","3XUSYT70ITN3RRKBJPNBFGD6FGOD06","","","null","","","","","","","",""
"1372.5","","image-keyboard-response","14","80545","0.0-2.0-0.4","3A9AA95ATX8DXF7WC6PKLOM8IXD5P9","A1AKL5YH9NLD2V","3XUSYT70ITN3RRKBJPNBFGD6FGOD06","","img/practice/S1.jpg","83","1","practice","83","true","","","",""
"null","","html-keyboard-response","15","80847","0.0-2.0-1.4","3A9AA95ATX8DXF7WC6PKLOM8IXD5P9","A1AKL5YH9NLD2V","3XUSYT70ITN3RRKBJPNBFGD6FGOD06","","<img src=""img/practice/S1.jpg"" width=""540"" height = ""360"" style=""border:16px solid orange"">","null","","","","","","","",""
"null","","html-keyboard-response","16","80849","0.0-2.0-2.4","3A9AA95ATX8DXF7WC6PKLOM8IXD5P9","A1AKL5YH9NLD2V","3XUSYT70ITN3RRKBJPNBFGD6FGOD06","","","null","","","","","","","",""
"718.7000000011176","","image-keyboard-response","17","81569","0.0-2.0-0.5","3A9AA95ATX8DXF7WC6PKLOM8IXD5P9","A1AKL5YH9NLD2V","3XUSYT70ITN3RRKBJPNBFGD6FGOD06","","img/practice/S3.jpg","68","3","practice","72","false","","","",""
"null","","html-keyboard-response","18","81871","0.0-2.0-1.5","3A9AA95ATX8DXF7WC6PKLOM8IXD5P9","A1AKL5YH9NLD2V","3XUSYT70ITN3RRKBJPNBFGD6FGOD06","","<img src=""img/practice/S3.jpg"" width=""540"" height = ""360"">","null","","","","","","","",""
"null","","html-keyboard-response","19","81873","0.0-2.0-2.5","3A9AA95ATX8DXF7WC6PKLOM8IXD5P9","A1AKL5YH9NLD2V","3XUSYT70ITN3RRKBJPNBFGD6FGOD06","","","null","","","","","","","",""
"806.8000000007451","","image-keyboard-response","20","82681","0.0-2.0-0.6","3A9AA95ATX8DXF7WC6PKLOM8IXD5P9","A1AKL5YH9NLD2V","3XUSYT70ITN3RRKBJPNBFGD6FGOD06","","img/practice/S4.jpg","68","4","practice","74","false","","","",""
"null","","html-keyboard-response","21","82982","0.0-2.0-1.6","3A9AA95ATX8DXF7WC6PKLOM8IXD5P9","A1AKL5YH9NLD2V","3XUSYT70ITN3RRKBJPNBFGD6FGOD06","","<img src=""img/practice/S4.jpg"" width=""540"" height = ""360"">","null","","","","","","","",""
"null","","html-keyboard-response","22","82984","0.0-2.0-2.6","3A9AA95ATX8DXF7WC6PKLOM8IXD5P9","A1AKL5YH9NLD2V","3XUSYT70ITN3RRKBJPNBFGD6FGOD06","","","null","","","","","","","",""
"631.8000000007451","","image-keyboard-response","23","83617","0.0-2.0-0.7","3A9AA95ATX8DXF7WC6PKLOM8IXD5P9","A1AKL5YH9NLD2V","3XUSYT70ITN3RRKBJPNBFGD6FGOD06","","img/practice/S2.jpg","68","2","practice","68","true","","","",""
"null","","html-keyboard-response","24","83918","0.0-2.0-1.7","3A9AA95ATX8DXF7WC6PKLOM8IXD5P9","A1AKL5YH9NLD2V","3XUSYT70ITN3RRKBJPNBFGD6FGOD06","","<img src=""img/practice/S2.jpg"" width=""540"" height = ""360"" style=""border:16px solid orange"">","null","","","","","","","",""
"null","","html-keyboard-response","25","83920","0.0-2.0-2.7","3A9AA95ATX8DXF7WC6PKLOM8IXD5P9","A1AKL5YH9NLD2V","3XUSYT70ITN3RRKBJPNBFGD6FGOD06","","","null","","","","","","","",""
"1880.2000000011176","","image-keyboard-response","26","85801","0.0-2.0-0.8","3A9AA95ATX8DXF7WC6PKLOM8IXD5P9","A1AKL5YH9NLD2V","3XUSYT70ITN3RRKBJPNBFGD6FGOD06","","img/practice/S3.jpg","72","3","practice","72","true","","","",""
"null","","html-keyboard-response","27","86102","0.0-2.0-1.8","3A9AA95ATX8DXF7WC6PKLOM8IXD5P9","A1AKL5YH9NLD2V","3XUSYT70ITN3RRKBJPNBFGD6FGOD06","","<img src=""img/practice/S3.jpg"" width=""540"" height = ""360"" style=""border:16px solid orange"">","null","","","","","","","",""
"null","","html-keyboard-response","28","86105","0.0-2.0-2.8","3A9AA95ATX8DXF7WC6PKLOM8IXD5P9","A1AKL5YH9NLD2V","3XUSYT70ITN3RRKBJPNBFGD6FGOD06","","","null","","","","","","","",""
"870.3000000007451","","image-keyboard-response","29","86977","0.0-2.0-0.9","3A9AA95ATX8DXF7WC6PKLOM8IXD5P9","A1AKL5YH9NLD2V","3XUSYT70ITN3RRKBJPNBFGD6FGOD06","","img/practice/S4.jpg","68","4","practice","74","false","","","",""
"null","","html-keyboard-response","30","87278","0.0-2.0-1.9","3A9AA95ATX8DXF7WC6PKLOM8IXD5P9","A1AKL5YH9NLD2V","3XUSYT70ITN3RRKBJPNBFGD6FGOD06","","<img src=""img/practice/S4.jpg"" width=""540"" height = ""360"">","null","","","","","","","",""
"null","","html-keyboard-response","31","87280","0.0-2.0-2.9","3A9AA95ATX8DXF7WC6PKLOM8IXD5P9","A1AKL5YH9NLD2V","3XUSYT70ITN3RRKBJPNBFGD6FGOD06","","","null","","","","","","","",""
"743.5","","image-keyboard-response","32","88025","0.0-2.0-0.10","3A9AA95ATX8DXF7WC6PKLOM8IXD5P9","A1AKL5YH9NLD2V","3XUSYT70ITN3RRKBJPNBFGD6FGOD06","","img/practice/S1.jpg","83","1","practice","83","true","","","",""
"null","","html-keyboard-response","33","88326","0.0-2.0-1.10","3A9AA95ATX8DXF7WC6PKLOM8IXD5P9","A1AKL5YH9NLD2V","3XUSYT70ITN3RRKBJPNBFGD6FGOD06","","<img src=""img/practice/S1.jpg"" width=""540"" height = ""360"" style=""border:16px solid orange"">","null","","","","","","","",""
"null","","html-keyboard-response","34","88328","0.0-2.0-2.10","3A9AA95ATX8DXF7WC6PKLOM8IXD5P9","A1AKL5YH9NLD2V","3XUSYT70ITN3RRKBJPNBFGD6FGOD06","","","null","","","","","","","",""
"1175.2999999988824","","image-keyboard-response","35","89505","0.0-2.0-0.11","3A9AA95ATX8DXF7WC6PKLOM8IXD5P9","A1AKL5YH9NLD2V","3XUSYT70ITN3RRKBJPNBFGD6FGOD06","","img/practice/S2.jpg","74","2","practice","68","false","","","",""
"null","","html-keyboard-response","36","89807","0.0-2.0-1.11","3A9AA95ATX8DXF7WC6PKLOM8IXD5P9","A1AKL5YH9NLD2V","3XUSYT70ITN3RRKBJPNBFGD6FGOD06","","<img src=""img/practice/S2.jpg"" width=""540"" height = ""360"">","null","","","","","","","",""
"null","","html-keyboard-response","37","89809","0.0-2.0-2.11","3A9AA95ATX8DXF7WC6PKLOM8IXD5P9","A1AKL5YH9NLD2V","3XUSYT70ITN3RRKBJPNBFGD6FGOD06","","","null","","","","","","","",""
"1007.2999999988824","","image-keyboard-response","38","90817","0.0-2.0-0.12","3A9AA95ATX8DXF7WC6PKLOM8IXD5P9","A1AKL5YH9NLD2V","3XUSYT70ITN3RRKBJPNBFGD6FGOD06","","img/practice/S4.jpg","72","4","practice","74","false","","","",""
"null","","html-keyboard-response","39","91119","0.0-2.0-1.12","3A9AA95ATX8DXF7WC6PKLOM8IXD5P9","A1AKL5YH9NLD2V","3XUSYT70ITN3RRKBJPNBFGD6FGOD06","","<img src=""img/practice/S4.jpg"" width=""540"" height = ""360"">","null","","","","","","","",""
"null","","html-keyboard-response","40","91120","0.0-2.0-2.12","3A9AA95ATX8DXF7WC6PKLOM8IXD5P9","A1AKL5YH9NLD2V","3XUSYT70ITN3RRKBJPNBFGD6FGOD06","","","null","","","","","","","",""
"775.0999999996275","","image-keyboard-response","41","91897","0.0-2.0-0.13","3A9AA95ATX8DXF7WC6PKLOM8IXD5P9","A1AKL5YH9NLD2V","3XUSYT70ITN3RRKBJPNBFGD6FGOD06","","img/practice/S1.jpg","68","1","practice","83","false","","","",""
"null","","html-keyboard-response","42","92198","0.0-2.0-1.13","3A9AA95ATX8DXF7WC6PKLOM8IXD5P9","A1AKL5YH9NLD2V","3XUSYT70ITN3RRKBJPNBFGD6FGOD06","","<img src=""img/practice/S1.jpg"" width=""540"" height = ""360"">","null","","","","","","","",""
"null","","html-keyboard-response","43","92199","0.0-2.0-2.13","3A9AA95ATX8DXF7WC6PKLOM8IXD5P9","A1AKL5YH9NLD2V","3XUSYT70ITN3RRKBJPNBFGD6FGOD06","","","null","","","","","","","",""
"1672.199999999255","","image-keyboard-response","44","93873","0.0-2.0-0.14","3A9AA95ATX8DXF7WC6PKLOM8IXD5P9","A1AKL5YH9NLD2V","3XUSYT70ITN3RRKBJPNBFGD6FGOD06","","img/practice/S3.jpg","72","3","practice","72","true","","","",""
"null","","html-keyboard-response","45","94176","0.0-2.0-1.14","3A9AA95ATX8DXF7WC6PKLOM8IXD5P9","A1AKL5YH9NLD2V","3XUSYT70ITN3RRKBJPNBFGD6FGOD06","","<img src=""img/practice/S3.jpg"" width=""540"" height = ""360"" style=""border:16px solid orange"">","null","","","","","","","",""
"null","","html-keyboard-response","46","94178","0.0-2.0-2.14","3A9AA95ATX8DXF7WC6PKLOM8IXD5P9","A1AKL5YH9NLD2V","3XUSYT70ITN3RRKBJPNBFGD6FGOD06","","","null","","","","","","","",""
"965.7000000011176","","image-keyboard-response","47","95145","0.0-2.0-0.15","3A9AA95ATX8DXF7WC6PKLOM8IXD5P9","A1AKL5YH9NLD2V","3XUSYT70ITN3RRKBJPNBFGD6FGOD06","","img/practice/S2.jpg","74","2","practice","68","false","","","",""
"null","","html-keyboard-response","48","95446","0.0-2.0-1.15","3A9AA95ATX8DXF7WC6PKLOM8IXD5P9","A1AKL5YH9NLD2V","3XUSYT70ITN3RRKBJPNBFGD6FGOD06","","<img src=""img/practice/S2.jpg"" width=""540"" height = ""360"">","null","","","","","","","",""
"null","","html-keyboard-response","49","95448","0.0-2.0-2.15","3A9AA95ATX8DXF7WC6PKLOM8IXD5P9","A1AKL5YH9NLD2V","3XUSYT70ITN3RRKBJPNBFGD6FGOD06","","","null","","","","","","","",""
"623.7999999988824","","image-keyboard-response","50","96073","0.0-2.0-0.16","3A9AA95ATX8DXF7WC6PKLOM8IXD5P9","A1AKL5YH9NLD2V","3XUSYT70ITN3RRKBJPNBFGD6FGOD06","","img/practice/S3.jpg","72","3","practice","72","true","","","",""
"null","","html-keyboard-response","51","96375","0.0-2.0-1.16","3A9AA95ATX8DXF7WC6PKLOM8IXD5P9","A1AKL5YH9NLD2V","3XUSYT70ITN3RRKBJPNBFGD6FGOD06","","<img src=""img/practice/S3.jpg"" width=""540"" height = ""360"" style=""border:16px solid orange"">","null","","","","","","","",""
"null","","html-keyboard-response","52","96377","0.0-2.0-2.16","3A9AA95ATX8DXF7WC6PKLOM8IXD5P9","A1AKL5YH9NLD2V","3XUSYT70ITN3RRKBJPNBFGD6FGOD06","","","null","","","","","","","",""
"990.5","","image-keyboard-response","53","97369","0.0-2.0-0.17","3A9AA95ATX8DXF7WC6PKLOM8IXD5P9","A1AKL5YH9NLD2V","3XUSYT70ITN3RRKBJPNBFGD6FGOD06","","img/practice/S4.jpg","72","4","practice","74","false","","","",""
"null","","html-keyboard-response","54","97670","0.0-2.0-1.17","3A9AA95ATX8DXF7WC6PKLOM8IXD5P9","A1AKL5YH9NLD2V","3XUSYT70ITN3RRKBJPNBFGD6FGOD06","","<img src=""img/practice/S4.jpg"" width=""540"" height = ""360"">","null","","","","","","","",""
"null","","html-keyboard-response","55","97672","0.0-2.0-2.17","3A9AA95ATX8DXF7WC6PKLOM8IXD5P9","A1AKL5YH9NLD2V","3XUSYT70ITN3RRKBJPNBFGD6FGOD06","","","null","","","","","","","",""
"727.5","","image-keyboard-response","56","98401","0.0-2.0-0.18","3A9AA95ATX8DXF7WC6PKLOM8IXD5P9","A1AKL5YH9NLD2V","3XUSYT70ITN3RRKBJPNBFGD6FGOD06","","img/practice/S2.jpg","68","2","practice","68","true","","","",""
"null","","html-keyboard-response","57","98702","0.0-2.0-1.18","3A9AA95ATX8DXF7WC6PKLOM8IXD5P9","A1AKL5YH9NLD2V","3XUSYT70ITN3RRKBJPNBFGD6FGOD06","","<img src=""img/practice/S2.jpg"" width=""540"" height = ""360"" style=""border:16px solid orange"">","null","","","","","","","",""
"null","","html-keyboard-response","58","98704","0.0-2.0-2.18","3A9AA95ATX8DXF7WC6PKLOM8IXD5P9","A1AKL5YH9NLD2V","3XUSYT70ITN3RRKBJPNBFGD6FGOD06","","","null","","","","","","","",""
"567.5999999996275","","image-keyboard-response","59","99273","0.0-2.0-0.19","3A9AA95ATX8DXF7WC6PKLOM8IXD5P9","A1AKL5YH9NLD2V","3XUSYT70ITN3RRKBJPNBFGD6FGOD06","","img/practice/S1.jpg","83","1","practice","83","true","","","",""
"null","","html-keyboard-response","60","99574","0.0-2.0-1.19","3A9AA95ATX8DXF7WC6PKLOM8IXD5P9","A1AKL5YH9NLD2V","3XUSYT70ITN3RRKBJPNBFGD6FGOD06","","<img src=""img/practice/S1.jpg"" width=""540"" height = ""360"" style=""border:16px solid orange"">","null","","","","","","","",""
"null","","html-keyboard-response","61","99576","0.0-2.0-2.19","3A9AA95ATX8DXF7WC6PKLOM8IXD5P9","A1AKL5YH9NLD2V","3XUSYT70ITN3RRKBJPNBFGD6FGOD06","","","null","","","","","","","",""
"736.5","","image-keyboard-response","62","100314","0.0-2.0-0.20","3A9AA95ATX8DXF7WC6PKLOM8IXD5P9","A1AKL5YH9NLD2V","3XUSYT70ITN3RRKBJPNBFGD6FGOD06","","img/practice/S3.jpg","74","3","practice","72","false","","","",""
"null","","html-keyboard-response","63","100615","0.0-2.0-1.20","3A9AA95ATX8DXF7WC6PKLOM8IXD5P9","A1AKL5YH9NLD2V","3XUSYT70ITN3RRKBJPNBFGD6FGOD06","","<img src=""img/practice/S3.jpg"" width=""540"" height = ""360"">","null","","","","","","","",""
"null","","html-keyboard-response","64","100617","0.0-2.0-2.20","3A9AA95ATX8DXF7WC6PKLOM8IXD5P9","A1AKL5YH9NLD2V","3XUSYT70ITN3RRKBJPNBFGD6FGOD06","","","null","","","","","","","",""
"1110.699999999255","","image-keyboard-response","65","101729","0.0-2.0-0.21","3A9AA95ATX8DXF7WC6PKLOM8IXD5P9","A1AKL5YH9NLD2V","3XUSYT70ITN3RRKBJPNBFGD6FGOD06","","img/practice/S2.jpg","72","2","practice","68","false","","","",""
"null","","html-keyboard-response","66","102030","0.0-2.0-1.21","3A9AA95ATX8DXF7WC6PKLOM8IXD5P9","A1AKL5YH9NLD2V","3XUSYT70ITN3RRKBJPNBFGD6FGOD06","","<img src=""img/practice/S2.jpg"" width=""540"" height = ""360"">","null","","","","","","","",""
"null","","html-keyboard-response","67","102032","0.0-2.0-2.21","3A9AA95ATX8DXF7WC6PKLOM8IXD5P9","A1AKL5YH9NLD2V","3XUSYT70ITN3RRKBJPNBFGD6FGOD06","","","null","","","","","","","",""
"903.5999999996275","","image-keyboard-response","68","102937","0.0-2.0-0.22","3A9AA95ATX8DXF7WC6PKLOM8IXD5P9","A1AKL5YH9NLD2V","3XUSYT70ITN3RRKBJPNBFGD6FGOD06","","img/practice/S1.jpg","68","1","practice","83","false","","","",""
"null","","html-keyboard-response","69","103238","0.0-2.0-1.22","3A9AA95ATX8DXF7WC6PKLOM8IXD5P9","A1AKL5YH9NLD2V","3XUSYT70ITN3RRKBJPNBFGD6FGOD06","","<img src=""img/practice/S1.jpg"" width=""540"" height = ""360"">","null","","","","","","","",""
"null","","html-keyboard-response","70","103246","0.0-2.0-2.22","3A9AA95ATX8DXF7WC6PKLOM8IXD5P9","A1AKL5YH9NLD2V","3XUSYT70ITN3RRKBJPNBFGD6FGOD06","","","null","","","","","","","",""
"937.6999999992549","","image-keyboard-response","71","104185","0.0-2.0-0.23","3A9AA95ATX8DXF7WC6PKLOM8IXD5P9","A1AKL5YH9NLD2V","3XUSYT70ITN3RRKBJPNBFGD6FGOD06","","img/practice/S4.jpg","74","4","practice","74","true","","","",""
"null","","html-keyboard-response","72","104486","0.0-2.0-1.23","3A9AA95ATX8DXF7WC6PKLOM8IXD5P9","A1AKL5YH9NLD2V","3XUSYT70ITN3RRKBJPNBFGD6FGOD06","","<img src=""img/practice/S4.jpg"" width=""540"" height = ""360"" style=""border:16px solid orange"">","null","","","","","","","",""
"null","","html-keyboard-response","73","104488","0.0-2.0-2.23","3A9AA95ATX8DXF7WC6PKLOM8IXD5P9","A1AKL5YH9NLD2V","3XUSYT70ITN3RRKBJPNBFGD6FGOD06","","","null","","","","","","","",""
"251625.3999999985","","instructions","74","356079","0.0-3.0","3A9AA95ATX8DXF7WC6PKLOM8IXD5P9","A1AKL5YH9NLD2V","3XUSYT70ITN3RRKBJPNBFGD6FGOD06","[{""page_index"":0,""viewing_time"":251624.59999999963}]","","","","","","","","","",""
"6533.89999999851","","instructions","75","362614","0.0-4.0","3A9AA95ATX8DXF7WC6PKLOM8IXD5P9","A1AKL5YH9NLD2V","3XUSYT70ITN3RRKBJPNBFGD6FGOD06","[{""page_index"":0,""viewing_time"":6533.5999999996275}]","","","","","","","","","",""
"6335.4000000003725","","instructions","76","368950","0.0-5.0","3A9AA95ATX8DXF7WC6PKLOM8IXD5P9","A1AKL5YH9NLD2V","3XUSYT70ITN3RRKBJPNBFGD6FGOD06","[{""page_index"":0,""viewing_time"":6335}]","","","","","","","","","",""
"659.3000000007451","","image-keyboard-response","77","369611","0.0-6.0","3A9AA95ATX8DXF7WC6PKLOM8IXD5P9","A1AKL5YH9NLD2V","3XUSYT70ITN3RRKBJPNBFGD6FGOD06","","img/set1/S1.jpg","83","1","random","83","true","random,structured_normal,structured_incentive","1,2,2,3","",""
"null","","html-keyboard-response","78","369963","0.0-7.0","3A9AA95ATX8DXF7WC6PKLOM8IXD5P9","A1AKL5YH9NLD2V","3XUSYT70ITN3RRKBJPNBFGD6FGOD06","","<img src=""img/set1/S1.jpg"" width=""540"" height = ""360"" style=""border:16px solid orange"">","null","","","","","","","",""
"null","","html-keyboard-response","79","369964","0.0-8.0","3A9AA95ATX8DXF7WC6PKLOM8IXD5P9","A1AKL5YH9NLD2V","3XUSYT70ITN3RRKBJPNBFGD6FGOD06","","","null","","","","","","","",""
"693.3000000007451","","image-keyboard-response","80","370659","0.0-9.0","3A9AA95ATX8DXF7WC6PKLOM8IXD5P9","A1AKL5YH9NLD2V","3XUSYT70ITN3RRKBJPNBFGD6FGOD06","","img/set1/S4.jpg","68","4","random","74","false","random,structured_normal,structured_incentive","1,2,2,3","",""
"null","","html-keyboard-response","81","371024","0.0-10.0","3A9AA95ATX8DXF7WC6PKLOM8IXD5P9","A1AKL5YH9NLD2V","3XUSYT70ITN3RRKBJPNBFGD6FGOD06","","<img src=""img/set1/S4.jpg"" width=""540"" height = ""360"">","null","","","","","","","",""
"null","","html-keyboard-response","82","371026","0.0-11.0","3A9AA95ATX8DXF7WC6PKLOM8IXD5P9","A1AKL5YH9NLD2V","3XUSYT70ITN3RRKBJPNBFGD6FGOD06","","","null","","","","","","","",""
"911.5999999996275","","image-keyboard-response","83","371939","0.0-12.0","3A9AA95ATX8DXF7WC6PKLOM8IXD5P9","A1AKL5YH9NLD2V","3XUSYT70ITN3RRKBJPNBFGD6FGOD06","","img/set1/S2.jpg","68","2","random","68","true","random,structured_normal,structured_incentive","1,2,2,3","",""
"null","","html-keyboard-response","84","372292","0.0-13.0","3A9AA95ATX8DXF7WC6PKLOM8IXD5P9","A1AKL5YH9NLD2V","3XUSYT70ITN3RRKBJPNBFGD6FGOD06","","<img src=""img/set1/S2.jpg"" width=""540"" height = ""360"" style=""border:16px solid orange"">","null","","","","","","","",""
"null","","html-keyboard-response","85","372294","0.0-14.0","3A9AA95ATX8DXF7WC6PKLOM8IXD5P9","A1AKL5YH9NLD2V","3XUSYT70ITN3RRKBJPNBFGD6FGOD06","","","null","","","","","","","",""
"812.4000000003725","","image-keyboard-response","86","373107","0.0-15.0","3A9AA95ATX8DXF7WC6PKLOM8IXD5P9","A1AKL5YH9NLD2V","3XUSYT70ITN3RRKBJPNBFGD6FGOD06","","img/set1/S1.jpg","74","1","random","83","false","random,structured_normal,structured_incentive","1,2,2,3","",""
"null","","html-keyboard-response","87","373459","0.0-16.0","3A9AA95ATX8DXF7WC6PKLOM8IXD5P9","A1AKL5YH9NLD2V","3XUSYT70ITN3RRKBJPNBFGD6FGOD06","","<img src=""img/set1/S1.jpg"" width=""540"" height = ""360"">","null","","","","","","","",""
"null","","html-keyboard-response","88","373461","0.0-17.0","3A9AA95ATX8DXF7WC6PKLOM8IXD5P9","A1AKL5YH9NLD2V","3XUSYT70ITN3RRKBJPNBFGD6FGOD06","","","null","","","","","","","",""
"1607.2000000011176","","image-keyboard-response","89","375069","0.0-18.0","3A9AA95ATX8DXF7WC6PKLOM8IXD5P9","A1AKL5YH9NLD2V","3XUSYT70ITN3RRKBJPNBFGD6FGOD06","","img/set1/S1.jpg","72","1","random","83","false","random,structured_normal,structured_incentive","1,2,2,3","",""
"null","","html-keyboard-response","90","375421","0.0-19.0","3A9AA95ATX8DXF7WC6PKLOM8IXD5P9","A1AKL5YH9NLD2V","3XUSYT70ITN3RRKBJPNBFGD6FGOD06","","<img src=""img/set1/S1.jpg"" width=""540"" height = ""360"">","null","","","","","","","",""
"null","","html-keyboard-response","91","375423","0.0-20.0","3A9AA95ATX8DXF7WC6PKLOM8IXD5P9","A1AKL5YH9NLD2V","3XUSYT70ITN3RRKBJPNBFGD6FGOD06","","","null","","","","","","","",""
"1119.0999999996275","","image-keyboard-response","92","376543","0.0-21.0","3A9AA95ATX8DXF7WC6PKLOM8IXD5P9","A1AKL5YH9NLD2V","3XUSYT70ITN3RRKBJPNBFGD6FGOD06","","img/set1/S4.jpg","68","4","random","74","false","random,structured_normal,structured_incentive","1,2,2,3","",""
"null","","html-keyboard-response","93","376899","0.0-22.0","3A9AA95ATX8DXF7WC6PKLOM8IXD5P9","A1AKL5YH9NLD2V","3XUSYT70ITN3RRKBJPNBFGD6FGOD06","","<img src=""img/set1/S4.jpg"" width=""540"" height = ""360"">","null","","","","","","","",""
"null","","html-keyboard-response","94","376901","0.0-23.0","3A9AA95ATX8DXF7WC6PKLOM8IXD5P9","A1AKL5YH9NLD2V","3XUSYT70ITN3RRKBJPNBFGD6FGOD06","","","null","","","","","","","",""
"756.7000000011176","","image-keyboard-response","95","377659","0.0-24.0","3A9AA95ATX8DXF7WC6PKLOM8IXD5P9","A1AKL5YH9NLD2V","3XUSYT70ITN3RRKBJPNBFGD6FGOD06","","img/set1/S2.jpg","68","2","random","68","true","random,structured_normal,structured_incentive","1,2,2,3","",""
"null","","html-keyboard-response","96","378010","0.0-25.0","3A9AA95ATX8DXF7WC6PKLOM8IXD5P9","A1AKL5YH9NLD2V","3XUSYT70ITN3RRKBJPNBFGD6FGOD06","","<img src=""img/set1/S2.jpg"" width=""540"" height = ""360"" style=""border:16px solid orange"">","null","","","","","","","",""
"null","","html-keyboard-response","97","378012","0.0-26.0","3A9AA95ATX8DXF7WC6PKLOM8IXD5P9","A1AKL5YH9NLD2V","3XUSYT70ITN3RRKBJPNBFGD6FGOD06","","","null","","","","","","","",""
"797.5","","image-keyboard-response","98","378810","0.0-27.0","3A9AA95ATX8DXF7WC6PKLOM8IXD5P9","A1AKL5YH9NLD2V","3XUSYT70ITN3RRKBJPNBFGD6FGOD06","","img/set1/S4.jpg","72","4","random","74","false","random,structured_normal,structured_incentive","1,2,2,3","",""
"null","","html-keyboard-response","99","379163","0.0-28.0","3A9AA95ATX8DXF7WC6PKLOM8IXD5P9","A1AKL5YH9NLD2V","3XUSYT70ITN3RRKBJPNBFGD6FGOD06","","<img src=""img/set1/S4.jpg"" width=""540"" height = ""360"">","null","","","","","","","",""
"null","","html-keyboard-response","100","379166","0.0-29.0","3A9AA95ATX8DXF7WC6PKLOM8IXD5P9","A1AKL5YH9NLD2V","3XUSYT70ITN3RRKBJPNBFGD6FGOD06","","","null","","","","","","","",""
"1499.8999999985099","","image-keyboard-response","101","380666","0.0-30.0","3A9AA95ATX8DXF7WC6PKLOM8IXD5P9","A1AKL5YH9NLD2V","3XUSYT70ITN3RRKBJPNBFGD6FGOD06","","img/set1/S1.jpg","83","1","random","83","true","random,structured_normal,structured_incentive","1,2,2,3","",""
"null","","html-keyboard-response","102","381018","0.0-31.0","3A9AA95ATX8DXF7WC6PKLOM8IXD5P9","A1AKL5YH9NLD2V","3XUSYT70ITN3RRKBJPNBFGD6FGOD06","","<img src=""img/set1/S1.jpg"" width=""540"" height = ""360"" style=""border:16px solid orange"">","null","","","","","","","",""
"null","","html-keyboard-response","103","381020","0.0-32.0","3A9AA95ATX8DXF7WC6PKLOM8IXD5P9","A1AKL5YH9NLD2V","3XUSYT70ITN3RRKBJPNBFGD6FGOD06","","","null","","","","","","","",""
"821.2999999988824","","image-keyboard-response","104","381842","0.0-33.0","3A9AA95ATX8DXF7WC6PKLOM8IXD5P9","A1AKL5YH9NLD2V","3XUSYT70ITN3RRKBJPNBFGD6FGOD06","","img/set1/S4.jpg","68","4","random","74","false","random,structured_normal,structured_incentive","1,2,2,3","",""
"null","","html-keyboard-response","105","382194","0.0-34.0","3A9AA95ATX8DXF7WC6PKLOM8IXD5P9","A1AKL5YH9NLD2V","3XUSYT70ITN3RRKBJPNBFGD6FGOD06","","<img src=""img/set1/S4.jpg"" width=""540"" height = ""360"">","null","","","","","","","",""
"null","","html-keyboard-response","106","382196","0.0-35.0","3A9AA95ATX8DXF7WC6PKLOM8IXD5P9","A1AKL5YH9NLD2V","3XUSYT70ITN3RRKBJPNBFGD6FGOD06","","","null","","","","","","","",""
"829.1999999992549","","image-keyboard-response","107","383026","0.0-36.0","3A9AA95ATX8DXF7WC6PKLOM8IXD5P9","A1AKL5YH9NLD2V","3XUSYT70ITN3RRKBJPNBFGD6FGOD06","","img/set1/S3.jpg","72","3","random","72","true","random,structured_normal,structured_incentive","1,2,2,3","",""
"null","","html-keyboard-response","108","383378","0.0-37.0","3A9AA95ATX8DXF7WC6PKLOM8IXD5P9","A1AKL5YH9NLD2V","3XUSYT70ITN3RRKBJPNBFGD6FGOD06","","<img src=""img/set1/S3.jpg"" width=""540"" height = ""360"" style=""border:16px solid orange"">","null","","","","","","","",""
"null","","html-keyboard-response","109","383380","0.0-38.0","3A9AA95ATX8DXF7WC6PKLOM8IXD5P9","A1AKL5YH9NLD2V","3XUSYT70ITN3RRKBJPNBFGD6FGOD06","","","null","","","","","","","",""
"926.0999999996275","","image-keyboard-response","110","384307","0.0-39.0","3A9AA95ATX8DXF7WC6PKLOM8IXD5P9","A1AKL5YH9NLD2V","3XUSYT70ITN3RRKBJPNBFGD6FGOD06","","img/set1/S1.jpg","72","1","random","83","false","random,structured_normal,structured_incentive","1,2,2,3","",""
"null","","html-keyboard-response","111","384659","0.0-40.0","3A9AA95ATX8DXF7WC6PKLOM8IXD5P9","A1AKL5YH9NLD2V","3XUSYT70ITN3RRKBJPNBFGD6FGOD06","","<img src=""img/set1/S1.jpg"" width=""540"" height = ""360"">","null","","","","","","","",""
"null","","html-keyboard-response","112","384661","0.0-41.0","3A9AA95ATX8DXF7WC6PKLOM8IXD5P9","A1AKL5YH9NLD2V","3XUSYT70ITN3RRKBJPNBFGD6FGOD06","","","null","","","","","","","",""
"764.5","","image-keyboard-response","113","385426","0.0-42.0","3A9AA95ATX8DXF7WC6PKLOM8IXD5P9","A1AKL5YH9NLD2V","3XUSYT70ITN3RRKBJPNBFGD6FGOD06","","img/set1/S4.jpg","72","4","random","74","false","random,structured_normal,structured_incentive","1,2,2,3","",""
"null","","html-keyboard-response","114","385778","0.0-43.0","3A9AA95ATX8DXF7WC6PKLOM8IXD5P9","A1AKL5YH9NLD2V","3XUSYT70ITN3RRKBJPNBFGD6FGOD06","","<img src=""img/set1/S4.jpg"" width=""540"" height = ""360"">","null","","","","","","","",""
"null","","html-keyboard-response","115","385780","0.0-44.0","3A9AA95ATX8DXF7WC6PKLOM8IXD5P9","A1AKL5YH9NLD2V","3XUSYT70ITN3RRKBJPNBFGD6FGOD06","","","null","","","","","","","",""
"803.7999999988824","","image-keyboard-response","116","386587","0.0-45.0","3A9AA95ATX8DXF7WC6PKLOM8IXD5P9","A1AKL5YH9NLD2V","3XUSYT70ITN3RRKBJPNBFGD6FGOD06","","img/set1/S1.jpg","72","1","random","83","false","random,structured_normal,structured_incentive","1,2,2,3","",""
"null","","html-keyboard-response","117","386938","0.0-46.0","3A9AA95ATX8DXF7WC6PKLOM8IXD5P9","A1AKL5YH9NLD2V","3XUSYT70ITN3RRKBJPNBFGD6FGOD06","","<img src=""img/set1/S1.jpg"" width=""540"" height = ""360"">","null","","","","","","","",""
"null","","html-keyboard-response","118","386940","0.0-47.0","3A9AA95ATX8DXF7WC6PKLOM8IXD5P9","A1AKL5YH9NLD2V","3XUSYT70ITN3RRKBJPNBFGD6FGOD06","","","null","","","","","","","",""
"613.7999999988824","","image-keyboard-response","119","387554","0.0-48.0","3A9AA95ATX8DXF7WC6PKLOM8IXD5P9","A1AKL5YH9NLD2V","3XUSYT70ITN3RRKBJPNBFGD6FGOD06","","img/set1/S4.jpg","68","4","random","74","false","random,structured_normal,structured_incentive","1,2,2,3","",""
"null","","html-keyboard-response","120","387906","0.0-49.0","3A9AA95ATX8DXF7WC6PKLOM8IXD5P9","A1AKL5YH9NLD2V","3XUSYT70ITN3RRKBJPNBFGD6FGOD06","","<img src=""img/set1/S4.jpg"" width=""540"" height = ""360"">","null","","","","","","","",""
"null","","html-keyboard-response","121","387908","0.0-50.0","3A9AA95ATX8DXF7WC6PKLOM8IXD5P9","A1AKL5YH9NLD2V","3XUSYT70ITN3RRKBJPNBFGD6FGOD06","","","null","","","","","","","",""
"949.8000000007451","","image-keyboard-response","122","388859","0.0-51.0","3A9AA95ATX8DXF7WC6PKLOM8IXD5P9","A1AKL5YH9NLD2V","3XUSYT70ITN3RRKBJPNBFGD6FGOD06","","img/set1/S1.jpg","74","1","random","83","false","random,structured_normal,structured_incentive","1,2,2,3","",""
"null","","html-keyboard-response","123","389212","0.0-52.0","3A9AA95ATX8DXF7WC6PKLOM8IXD5P9","A1AKL5YH9NLD2V","3XUSYT70ITN3RRKBJPNBFGD6FGOD06","","<img src=""img/set1/S1.jpg"" width=""540"" height = ""360"">","null","","","","","","","",""
"null","","html-keyboard-response","124","389215","0.0-53.0","3A9AA95ATX8DXF7WC6PKLOM8IXD5P9","A1AKL5YH9NLD2V","3XUSYT70ITN3RRKBJPNBFGD6FGOD06","","","null","","","","","","","",""
"954.6999999992549","","image-keyboard-response","125","390170","0.0-54.0","3A9AA95ATX8DXF7WC6PKLOM8IXD5P9","A1AKL5YH9NLD2V","3XUSYT70ITN3RRKBJPNBFGD6FGOD06","","img/set1/S2.jpg","74","2","random","68","false","random,structured_normal,structured_incentive","1,2,2,3","",""
"null","","html-keyboard-response","126","390522","0.0-55.0","3A9AA95ATX8DXF7WC6PKLOM8IXD5P9","A1AKL5YH9NLD2V","3XUSYT70ITN3RRKBJPNBFGD6FGOD06","","<img src=""img/set1/S2.jpg"" width=""540"" height = ""360"">","null","","","","","","","",""
"null","","html-keyboard-response","127","390524","0.0-56.0","3A9AA95ATX8DXF7WC6PKLOM8IXD5P9","A1AKL5YH9NLD2V","3XUSYT70ITN3RRKBJPNBFGD6FGOD06","","","null","","","","","","","",""
"837.5","","image-keyboard-response","128","391363","0.0-57.0","3A9AA95ATX8DXF7WC6PKLOM8IXD5P9","A1AKL5YH9NLD2V","3XUSYT70ITN3RRKBJPNBFGD6FGOD06","","img/set1/S1.jpg","72","1","random","83","false","random,structured_normal,structured_incentive","1,2,2,3","",""
"null","","html-keyboard-response","129","391714","0.0-58.0","3A9AA95ATX8DXF7WC6PKLOM8IXD5P9","A1AKL5YH9NLD2V","3XUSYT70ITN3RRKBJPNBFGD6FGOD06","","<img src=""img/set1/S1.jpg"" width=""540"" height = ""360"">","null","","","","","","","",""
"null","","html-keyboard-response","130","391716","0.0-59.0","3A9AA95ATX8DXF7WC6PKLOM8IXD5P9","A1AKL5YH9NLD2V","3XUSYT70ITN3RRKBJPNBFGD6FGOD06","","","null","","","","","","","",""
"637.1999999992549","","image-keyboard-response","131","392354","0.0-60.0","3A9AA95ATX8DXF7WC6PKLOM8IXD5P9","A1AKL5YH9NLD2V","3XUSYT70ITN3RRKBJPNBFGD6FGOD06","","img/set1/S2.jpg","68","2","random","68","true","random,structured_normal,structured_incentive","1,2,2,3","",""
"null","","html-keyboard-response","132","392706","0.0-61.0","3A9AA95ATX8DXF7WC6PKLOM8IXD5P9","A1AKL5YH9NLD2V","3XUSYT70ITN3RRKBJPNBFGD6FGOD06","","<img src=""img/set1/S2.jpg"" width=""540"" height = ""360"" style=""border:16px solid orange"">","null","","","","","","","",""
"null","","html-keyboard-response","133","392708","0.0-62.0","3A9AA95ATX8DXF7WC6PKLOM8IXD5P9","A1AKL5YH9NLD2V","3XUSYT70ITN3RRKBJPNBFGD6FGOD06","","","null","","","","","","","",""
"1037.2999999988824","","image-keyboard-response","134","393746","0.0-63.0","3A9AA95ATX8DXF7WC6PKLOM8IXD5P9","A1AKL5YH9NLD2V","3XUSYT70ITN3RRKBJPNBFGD6FGOD06","","img/set1/S1.jpg","74","1","random","83","false","random,structured_normal,structured_incentive","1,2,2,3","",""
"null","","html-keyboard-response","135","394098","0.0-64.0","3A9AA95ATX8DXF7WC6PKLOM8IXD5P9","A1AKL5YH9NLD2V","3XUSYT70ITN3RRKBJPNBFGD6FGOD06","","<img src=""img/set1/S1.jpg"" width=""540"" height = ""360"">","null","","","","","","","",""
"null","","html-keyboard-response","136","394100","0.0-65.0","3A9AA95ATX8DXF7WC6PKLOM8IXD5P9","A1AKL5YH9NLD2V","3XUSYT70ITN3RRKBJPNBFGD6FGOD06","","","null","","","","","","","",""
"749.5999999996275","","image-keyboard-response","137","394851","0.0-66.0","3A9AA95ATX8DXF7WC6PKLOM8IXD5P9","A1AKL5YH9NLD2V","3XUSYT70ITN3RRKBJPNBFGD6FGOD06","","img/set1/S4.jpg","72","4","random","74","false","random,structured_normal,structured_incentive","1,2,2,3","",""
"null","","html-keyboard-response","138","395202","0.0-67.0","3A9AA95ATX8DXF7WC6PKLOM8IXD5P9","A1AKL5YH9NLD2V","3XUSYT70ITN3RRKBJPNBFGD6FGOD06","","<img src=""img/set1/S4.jpg"" width=""540"" height = ""360"">","null","","","","","","","",""
"null","","html-keyboard-response","139","395205","0.0-68.0","3A9AA95ATX8DXF7WC6PKLOM8IXD5P9","A1AKL5YH9NLD2V","3XUSYT70ITN3RRKBJPNBFGD6FGOD06","","","null","","","","","","","",""
"717","","image-keyboard-response","140","395922","0.0-69.0","3A9AA95ATX8DXF7WC6PKLOM8IXD5P9","A1AKL5YH9NLD2V","3XUSYT70ITN3RRKBJPNBFGD6FGOD06","","img/set1/S4.jpg","83","4","random","74","false","random,structured_normal,structured_incentive","1,2,2,3","",""
"null","","html-keyboard-response","141","396275","0.0-70.0","3A9AA95ATX8DXF7WC6PKLOM8IXD5P9","A1AKL5YH9NLD2V","3XUSYT70ITN3RRKBJPNBFGD6FGOD06","","<img src=""img/set1/S4.jpg"" width=""540"" height = ""360"">","null","","","","","","","",""
"null","","html-keyboard-response","142","396277","0.0-71.0","3A9AA95ATX8DXF7WC6PKLOM8IXD5P9","A1AKL5YH9NLD2V","3XUSYT70ITN3RRKBJPNBFGD6FGOD06","","","null","","","","","","","",""
"476.30000000074506","","image-keyboard-response","143","396754","0.0-72.0","3A9AA95ATX8DXF7WC6PKLOM8IXD5P9","A1AKL5YH9NLD2V","3XUSYT70ITN3RRKBJPNBFGD6FGOD06","","img/set1/S4.jpg","68","4","random","74","false","random,structured_normal,structured_incentive","1,2,2,3","",""
"null","","html-keyboard-response","144","397107","0.0-73.0","3A9AA95ATX8DXF7WC6PKLOM8IXD5P9","A1AKL5YH9NLD2V","3XUSYT70ITN3RRKBJPNBFGD6FGOD06","","<img src=""img/set1/S4.jpg"" width=""540"" height = ""360"">","null","","","","","","","",""
"null","","html-keyboard-response","145","397108","0.0-74.0","3A9AA95ATX8DXF7WC6PKLOM8IXD5P9","A1AKL5YH9NLD2V","3XUSYT70ITN3RRKBJPNBFGD6FGOD06","","","null","","","","","","","",""
"925.5999999996275","","image-keyboard-response","146","398035","0.0-75.0","3A9AA95ATX8DXF7WC6PKLOM8IXD5P9","A1AKL5YH9NLD2V","3XUSYT70ITN3RRKBJPNBFGD6FGOD06","","img/set1/S2.jpg","72","2","random","68","false","random,structured_normal,structured_incentive","1,2,2,3","",""
"null","","html-keyboard-response","147","398389","0.0-76.0","3A9AA95ATX8DXF7WC6PKLOM8IXD5P9","A1AKL5YH9NLD2V","3XUSYT70ITN3RRKBJPNBFGD6FGOD06","","<img src=""img/set1/S2.jpg"" width=""540"" height = ""360"">","null","","","","","","","",""
"null","","html-keyboard-response","148","398390","0.0-77.0","3A9AA95ATX8DXF7WC6PKLOM8IXD5P9","A1AKL5YH9NLD2V","3XUSYT70ITN3RRKBJPNBFGD6FGOD06","","","null","","","","","","","",""
"819","","image-keyboard-response","149","399211","0.0-78.0","3A9AA95ATX8DXF7WC6PKLOM8IXD5P9","A1AKL5YH9NLD2V","3XUSYT70ITN3RRKBJPNBFGD6FGOD06","","img/set1/S3.jpg","74","3","random","72","false","random,structured_normal,structured_incentive","1,2,2,3","",""
"null","","html-keyboard-response","150","399563","0.0-79.0","3A9AA95ATX8DXF7WC6PKLOM8IXD5P9","A1AKL5YH9NLD2V","3XUSYT70ITN3RRKBJPNBFGD6FGOD06","","<img src=""img/set1/S3.jpg"" width=""540"" height = ""360"">","null","","","","","","","",""
"null","","html-keyboard-response","151","399565","0.0-80.0","3A9AA95ATX8DXF7WC6PKLOM8IXD5P9","A1AKL5YH9NLD2V","3XUSYT70ITN3RRKBJPNBFGD6FGOD06","","","null","","","","","","","",""
"828.5999999996275","","image-keyboard-response","152","400394","0.0-81.0","3A9AA95ATX8DXF7WC6PKLOM8IXD5P9","A1AKL5YH9NLD2V","3XUSYT70ITN3RRKBJPNBFGD6FGOD06","","img/set1/S2.jpg","72","2","random","68","false","random,structured_normal,structured_incentive","1,2,2,3","",""
"null","","html-keyboard-response","153","400747","0.0-82.0","3A9AA95ATX8DXF7WC6PKLOM8IXD5P9","A1AKL5YH9NLD2V","3XUSYT70ITN3RRKBJPNBFGD6FGOD06","","<img src=""img/set1/S2.jpg"" width=""540"" height = ""360"">","null","","","","","","","",""
"null","","html-keyboard-response","154","400750","0.0-83.0","3A9AA95ATX8DXF7WC6PKLOM8IXD5P9","A1AKL5YH9NLD2V","3XUSYT70ITN3RRKBJPNBFGD6FGOD06","","","null","","","","","","","",""
"427.09999999962747","","image-keyboard-response","155","401178","0.0-84.0","3A9AA95ATX8DXF7WC6PKLOM8IXD5P9","A1AKL5YH9NLD2V","3XUSYT70ITN3RRKBJPNBFGD6FGOD06","","img/set1/S2.jpg","68","2","random","68","true","random,structured_normal,structured_incentive","1,2,2,3","",""
"null","","html-keyboard-response","156","401531","0.0-85.0","3A9AA95ATX8DXF7WC6PKLOM8IXD5P9","A1AKL5YH9NLD2V","3XUSYT70ITN3RRKBJPNBFGD6FGOD06","","<img src=""img/set1/S2.jpg"" width=""540"" height = ""360"" style=""border:16px solid orange"">","null","","","","","","","",""
"null","","html-keyboard-response","157","401533","0.0-86.0","3A9AA95ATX8DXF7WC6PKLOM8IXD5P9","A1AKL5YH9NLD2V","3XUSYT70ITN3RRKBJPNBFGD6FGOD06","","","null","","","","","","","",""
"1052.5","","image-keyboard-response","158","402586","0.0-87.0","3A9AA95ATX8DXF7WC6PKLOM8IXD5P9","A1AKL5YH9NLD2V","3XUSYT70ITN3RRKBJPNBFGD6FGOD06","","img/set1/S4.jpg","68","4","random","74","false","random,structured_normal,structured_incentive","1,2,2,3","",""
"null","","html-keyboard-response","159","402938","0.0-88.0","3A9AA95ATX8DXF7WC6PKLOM8IXD5P9","A1AKL5YH9NLD2V","3XUSYT70ITN3RRKBJPNBFGD6FGOD06","","<img src=""img/set1/S4.jpg"" width=""540"" height = ""360"">","null","","","","","","","",""
"null","","html-keyboard-response","160","402944","0.0-89.0","3A9AA95ATX8DXF7WC6PKLOM8IXD5P9","A1AKL5YH9NLD2V","3XUSYT70ITN3RRKBJPNBFGD6FGOD06","","","null","","","","","","","",""
"761.6999999992549","","image-keyboard-response","161","403706","0.0-90.0","3A9AA95ATX8DXF7WC6PKLOM8IXD5P9","A1AKL5YH9NLD2V","3XUSYT70ITN3RRKBJPNBFGD6FGOD06","","img/set1/S3.jpg","72","3","random","72","true","random,structured_normal,structured_incentive","1,2,2,3","",""
"null","","html-keyboard-response","162","404059","0.0-91.0","3A9AA95ATX8DXF7WC6PKLOM8IXD5P9","A1AKL5YH9NLD2V","3XUSYT70ITN3RRKBJPNBFGD6FGOD06","","<img src=""img/set1/S3.jpg"" width=""540"" height = ""360"" style=""border:16px solid orange"">","null","","","","","","","",""
"null","","html-keyboard-response","163","404075","0.0-92.0","3A9AA95ATX8DXF7WC6PKLOM8IXD5P9","A1AKL5YH9NLD2V","3XUSYT70ITN3RRKBJPNBFGD6FGOD06","","","null","","","","","","","",""
"645.9000000003725","","image-keyboard-response","164","404722","0.0-93.0","3A9AA95ATX8DXF7WC6PKLOM8IXD5P9","A1AKL5YH9NLD2V","3XUSYT70ITN3RRKBJPNBFGD6FGOD06","","img/set1/S3.jpg","72","3","random","72","true","random,structured_normal,structured_incentive","1,2,2,3","",""
"null","","html-keyboard-response","165","405075","0.0-94.0","3A9AA95ATX8DXF7WC6PKLOM8IXD5P9","A1AKL5YH9NLD2V","3XUSYT70ITN3RRKBJPNBFGD6FGOD06","","<img src=""img/set1/S3.jpg"" width=""540"" height = ""360"" style=""border:16px solid orange"">","null","","","","","","","",""
"null","","html-keyboard-response","166","405076","0.0-95.0","3A9AA95ATX8DXF7WC6PKLOM8IXD5P9","A1AKL5YH9NLD2V","3XUSYT70ITN3RRKBJPNBFGD6FGOD06","","","null","","","","","","","",""
"749.3000000007451","","image-keyboard-response","167","405827","0.0-96.0","3A9AA95ATX8DXF7WC6PKLOM8IXD5P9","A1AKL5YH9NLD2V","3XUSYT70ITN3RRKBJPNBFGD6FGOD06","","img/set1/S2.jpg","72","2","random","68","false","random,structured_normal,structured_incentive","1,2,2,3","",""
"null","","html-keyboard-response","168","406178","0.0-97.0","3A9AA95ATX8DXF7WC6PKLOM8IXD5P9","A1AKL5YH9NLD2V","3XUSYT70ITN3RRKBJPNBFGD6FGOD06","","<img src=""img/set1/S2.jpg"" width=""540"" height = ""360"">","null","","","","","","","",""
"null","","html-keyboard-response","169","406180","0.0-98.0","3A9AA95ATX8DXF7WC6PKLOM8IXD5P9","A1AKL5YH9NLD2V","3XUSYT70ITN3RRKBJPNBFGD6FGOD06","","","null","","","","","","","",""
"877.3000000007451","","image-keyboard-response","170","407058","0.0-99.0","3A9AA95ATX8DXF7WC6PKLOM8IXD5P9","A1AKL5YH9NLD2V","3XUSYT70ITN3RRKBJPNBFGD6FGOD06","","img/set1/S1.jpg","72","1","random","83","false","random,structured_normal,structured_incentive","1,2,2,3","",""
"null","","html-keyboard-response","171","407410","0.0-100.0","3A9AA95ATX8DXF7WC6PKLOM8IXD5P9","A1AKL5YH9NLD2V","3XUSYT70ITN3RRKBJPNBFGD6FGOD06","","<img src=""img/set1/S1.jpg"" width=""540"" height = ""360"">","null","","","","","","","",""
"null","","html-keyboard-response","172","407412","0.0-101.0","3A9AA95ATX8DXF7WC6PKLOM8IXD5P9","A1AKL5YH9NLD2V","3XUSYT70ITN3RRKBJPNBFGD6FGOD06","","","null","","","","","","","",""
"797","","image-keyboard-response","173","408210","0.0-102.0","3A9AA95ATX8DXF7WC6PKLOM8IXD5P9","A1AKL5YH9NLD2V","3XUSYT70ITN3RRKBJPNBFGD6FGOD06","","img/set1/S4.jpg","68","4","random","74","false","random,structured_normal,structured_incentive","1,2,2,3","",""
"null","","html-keyboard-response","174","408562","0.0-103.0","3A9AA95ATX8DXF7WC6PKLOM8IXD5P9","A1AKL5YH9NLD2V","3XUSYT70ITN3RRKBJPNBFGD6FGOD06","","<img src=""img/set1/S4.jpg"" width=""540"" height = ""360"">","null","","","","","","","",""
"null","","html-keyboard-response","175","408564","0.0-104.0","3A9AA95ATX8DXF7WC6PKLOM8IXD5P9","A1AKL5YH9NLD2V","3XUSYT70ITN3RRKBJPNBFGD6FGOD06","","","null","","","","","","","",""
"589.0999999996275","","image-keyboard-response","176","409154","0.0-105.0","3A9AA95ATX8DXF7WC6PKLOM8IXD5P9","A1AKL5YH9NLD2V","3XUSYT70ITN3RRKBJPNBFGD6FGOD06","","img/set1/S4.jpg","74","4","random","74","true","random,structured_normal,structured_incentive","1,2,2,3","",""
"null","","html-keyboard-response","177","409506","0.0-106.0","3A9AA95ATX8DXF7WC6PKLOM8IXD5P9","A1AKL5YH9NLD2V","3XUSYT70ITN3RRKBJPNBFGD6FGOD06","","<img src=""img/set1/S4.jpg"" width=""540"" height = ""360"" style=""border:16px solid orange"">","null","","","","","","","",""
"null","","html-keyboard-response","178","409507","0.0-107.0","3A9AA95ATX8DXF7WC6PKLOM8IXD5P9","A1AKL5YH9NLD2V","3XUSYT70ITN3RRKBJPNBFGD6FGOD06","","","null","","","","","","","",""
"1269.5","","image-keyboard-response","179","410778","0.0-108.0","3A9AA95ATX8DXF7WC6PKLOM8IXD5P9","A1AKL5YH9NLD2V","3XUSYT70ITN3RRKBJPNBFGD6FGOD06","","img/set1/S1.jpg","74","1","random","83","false","random,structured_normal,structured_incentive","1,2,2,3","",""
"null","","html-keyboard-response","180","411130","0.0-109.0","3A9AA95ATX8DXF7WC6PKLOM8IXD5P9","A1AKL5YH9NLD2V","3XUSYT70ITN3RRKBJPNBFGD6FGOD06","","<img src=""img/set1/S1.jpg"" width=""540"" height = ""360"">","null","","","","","","","",""
"null","","html-keyboard-response","181","411132","0.0-110.0","3A9AA95ATX8DXF7WC6PKLOM8IXD5P9","A1AKL5YH9NLD2V","3XUSYT70ITN3RRKBJPNBFGD6FGOD06","","","null","","","","","","","",""
"765","","image-keyboard-response","182","411898","0.0-111.0","3A9AA95ATX8DXF7WC6PKLOM8IXD5P9","A1AKL5YH9NLD2V","3XUSYT70ITN3RRKBJPNBFGD6FGOD06","","img/set1/S2.jpg","72","2","random","68","false","random,structured_normal,structured_incentive","1,2,2,3","",""
"null","","html-keyboard-response","183","412250","0.0-112.0","3A9AA95ATX8DXF7WC6PKLOM8IXD5P9","A1AKL5YH9NLD2V","3XUSYT70ITN3RRKBJPNBFGD6FGOD06","","<img src=""img/set1/S2.jpg"" width=""540"" height = ""360"">","null","","","","","","","",""
"null","","html-keyboard-response","184","412252","0.0-113.0","3A9AA95ATX8DXF7WC6PKLOM8IXD5P9","A1AKL5YH9NLD2V","3XUSYT70ITN3RRKBJPNBFGD6FGOD06","","","null","","","","","","","",""
"373.2000000011176","","image-keyboard-response","185","412626","0.0-114.0","3A9AA95ATX8DXF7WC6PKLOM8IXD5P9","A1AKL5YH9NLD2V","3XUSYT70ITN3RRKBJPNBFGD6FGOD06","","img/set1/S2.jpg","68","2","random","68","true","random,structured_normal,structured_incentive","1,2,2,3","",""
"null","","html-keyboard-response","186","412978","0.0-115.0","3A9AA95ATX8DXF7WC6PKLOM8IXD5P9","A1AKL5YH9NLD2V","3XUSYT70ITN3RRKBJPNBFGD6FGOD06","","<img src=""img/set1/S2.jpg"" width=""540"" height = ""360"" style=""border:16px solid orange"">","null","","","","","","","",""
"null","","html-keyboard-response","187","412980","0.0-116.0","3A9AA95ATX8DXF7WC6PKLOM8IXD5P9","A1AKL5YH9NLD2V","3XUSYT70ITN3RRKBJPNBFGD6FGOD06","","","null","","","","","","","",""
"829","","image-keyboard-response","188","413810","0.0-117.0","3A9AA95ATX8DXF7WC6PKLOM8IXD5P9","A1AKL5YH9NLD2V","3XUSYT70ITN3RRKBJPNBFGD6FGOD06","","img/set1/S1.jpg","74","1","random","83","false","random,structured_normal,structured_incentive","1,2,2,3","",""
"null","","html-keyboard-response","189","414162","0.0-118.0","3A9AA95ATX8DXF7WC6PKLOM8IXD5P9","A1AKL5YH9NLD2V","3XUSYT70ITN3RRKBJPNBFGD6FGOD06","","<img src=""img/set1/S1.jpg"" width=""540"" height = ""360"">","null","","","","","","","",""
"null","","html-keyboard-response","190","414164","0.0-119.0","3A9AA95ATX8DXF7WC6PKLOM8IXD5P9","A1AKL5YH9NLD2V","3XUSYT70ITN3RRKBJPNBFGD6FGOD06","","","null","","","","","","","",""
"840.8999999985099","","image-keyboard-response","191","415006","0.0-120.0","3A9AA95ATX8DXF7WC6PKLOM8IXD5P9","A1AKL5YH9NLD2V","3XUSYT70ITN3RRKBJPNBFGD6FGOD06","","img/set1/S3.jpg","72","3","random","72","true","random,structured_normal,structured_incentive","1,2,2,3","",""
"null","","html-keyboard-response","192","415351","0.0-121.0","3A9AA95ATX8DXF7WC6PKLOM8IXD5P9","A1AKL5YH9NLD2V","3XUSYT70ITN3RRKBJPNBFGD6FGOD06","","<img src=""img/set1/S3.jpg"" width=""540"" height = ""360"" style=""border:16px solid orange"">","null","","","","","","","",""
"null","","html-keyboard-response","193","415353","0.0-122.0","3A9AA95ATX8DXF7WC6PKLOM8IXD5P9","A1AKL5YH9NLD2V","3XUSYT70ITN3RRKBJPNBFGD6FGOD06","","","null","","","","","","","",""
"482.30000000074506","","image-keyboard-response","194","415836","0.0-123.0","3A9AA95ATX8DXF7WC6PKLOM8IXD5P9","A1AKL5YH9NLD2V","3XUSYT70ITN3RRKBJPNBFGD6FGOD06","","img/set1/S3.jpg","72","3","random","72","true","random,structured_normal,structured_incentive","1,2,2,3","",""
"null","","html-keyboard-response","195","416188","0.0-124.0","3A9AA95ATX8DXF7WC6PKLOM8IXD5P9","A1AKL5YH9NLD2V","3XUSYT70ITN3RRKBJPNBFGD6FGOD06","","<img src=""img/set1/S3.jpg"" width=""540"" height = ""360"" style=""border:16px solid orange"">","null","","","","","","","",""
"null","","html-keyboard-response","196","416202","0.0-125.0","3A9AA95ATX8DXF7WC6PKLOM8IXD5P9","A1AKL5YH9NLD2V","3XUSYT70ITN3RRKBJPNBFGD6FGOD06","","","null","","","","","","","",""
"976.3000000007451","","image-keyboard-response","197","417180","0.0-126.0","3A9AA95ATX8DXF7WC6PKLOM8IXD5P9","A1AKL5YH9NLD2V","3XUSYT70ITN3RRKBJPNBFGD6FGOD06","","img/set1/S4.jpg","74","4","random","74","true","random,structured_normal,structured_incentive","1,2,2,3","",""
"null","","html-keyboard-response","198","417533","0.0-127.0","3A9AA95ATX8DXF7WC6PKLOM8IXD5P9","A1AKL5YH9NLD2V","3XUSYT70ITN3RRKBJPNBFGD6FGOD06","","<img src=""img/set1/S4.jpg"" width=""540"" height = ""360"" style=""border:16px solid orange"">","null","","","","","","","",""
"null","","html-keyboard-response","199","417536","0.0-128.0","3A9AA95ATX8DXF7WC6PKLOM8IXD5P9","A1AKL5YH9NLD2V","3XUSYT70ITN3RRKBJPNBFGD6FGOD06","","","null","","","","","","","",""
"883.0999999996275","","image-keyboard-response","200","418420","0.0-129.0","3A9AA95ATX8DXF7WC6PKLOM8IXD5P9","A1AKL5YH9NLD2V","3XUSYT70ITN3RRKBJPNBFGD6FGOD06","","img/set1/S2.jpg","68","2","random","68","true","random,structured_normal,structured_incentive","1,2,2,3","",""
"null","","html-keyboard-response","201","418772","0.0-130.0","3A9AA95ATX8DXF7WC6PKLOM8IXD5P9","A1AKL5YH9NLD2V","3XUSYT70ITN3RRKBJPNBFGD6FGOD06","","<img src=""img/set1/S2.jpg"" width=""540"" height = ""360"" style=""border:16px solid orange"">","null","","","","","","","",""
"null","","html-keyboard-response","202","418773","0.0-131.0","3A9AA95ATX8DXF7WC6PKLOM8IXD5P9","A1AKL5YH9NLD2V","3XUSYT70ITN3RRKBJPNBFGD6FGOD06","","","null","","","","","","","",""
"741.7000000011176","","image-keyboard-response","203","419516","0.0-132.0","3A9AA95ATX8DXF7WC6PKLOM8IXD5P9","A1AKL5YH9NLD2V","3XUSYT70ITN3RRKBJPNBFGD6FGOD06","","img/set1/S1.jpg","68","1","random","83","false","random,structured_normal,structured_incentive","1,2,2,3","",""
"null","","html-keyboard-response","204","419869","0.0-133.0","3A9AA95ATX8DXF7WC6PKLOM8IXD5P9","A1AKL5YH9NLD2V","3XUSYT70ITN3RRKBJPNBFGD6FGOD06","","<img src=""img/set1/S1.jpg"" width=""540"" height = ""360"">","null","","","","","","","",""
"null","","html-keyboard-response","205","419918","0.0-134.0","3A9AA95ATX8DXF7WC6PKLOM8IXD5P9","A1AKL5YH9NLD2V","3XUSYT70ITN3RRKBJPNBFGD6FGOD06","","","null","","","","","","","",""
"532.9000000003725","","image-keyboard-response","206","420452","0.0-135.0","3A9AA95ATX8DXF7WC6PKLOM8IXD5P9","A1AKL5YH9NLD2V","3XUSYT70ITN3RRKBJPNBFGD6FGOD06","","img/set1/S1.jpg","72","1","random","83","false","random,structured_normal,structured_incentive","1,2,2,3","",""
"null","","html-keyboard-response","207","420820","0.0-136.0","3A9AA95ATX8DXF7WC6PKLOM8IXD5P9","A1AKL5YH9NLD2V","3XUSYT70ITN3RRKBJPNBFGD6FGOD06","","<img src=""img/set1/S1.jpg"" width=""540"" height = ""360"">","null","","","","","","","",""
"null","","html-keyboard-response","208","420866","0.0-137.0","3A9AA95ATX8DXF7WC6PKLOM8IXD5P9","A1AKL5YH9NLD2V","3XUSYT70ITN3RRKBJPNBFGD6FGOD06","","","null","","","","","","","",""
"506.6000000014901","","image-keyboard-response","209","421374","0.0-138.0","3A9AA95ATX8DXF7WC6PKLOM8IXD5P9","A1AKL5YH9NLD2V","3XUSYT70ITN3RRKBJPNBFGD6FGOD06","","img/set1/S1.jpg","74","1","random","83","false","random,structured_normal,structured_incentive","1,2,2,3","",""
"null","","html-keyboard-response","210","421726","0.0-139.0","3A9AA95ATX8DXF7WC6PKLOM8IXD5P9","A1AKL5YH9NLD2V","3XUSYT70ITN3RRKBJPNBFGD6FGOD06","","<img src=""img/set1/S1.jpg"" width=""540"" height = ""360"">","null","","","","","","","",""
"null","","html-keyboard-response","211","421729","0.0-140.0","3A9AA95ATX8DXF7WC6PKLOM8IXD5P9","A1AKL5YH9NLD2V","3XUSYT70ITN3RRKBJPNBFGD6FGOD06","","","null","","","","","","","",""
"434.09999999962747","","image-keyboard-response","212","422164","0.0-141.0","3A9AA95ATX8DXF7WC6PKLOM8IXD5P9","A1AKL5YH9NLD2V","3XUSYT70ITN3RRKBJPNBFGD6FGOD06","","img/set1/S1.jpg","68","1","random","83","false","random,structured_normal,structured_incentive","1,2,2,3","",""
"null","","html-keyboard-response","213","422516","0.0-142.0","3A9AA95ATX8DXF7WC6PKLOM8IXD5P9","A1AKL5YH9NLD2V","3XUSYT70ITN3RRKBJPNBFGD6FGOD06","","<img src=""img/set1/S1.jpg"" width=""540"" height = ""360"">","null","","","","","","","",""
"null","","html-keyboard-response","214","422520","0.0-143.0","3A9AA95ATX8DXF7WC6PKLOM8IXD5P9","A1AKL5YH9NLD2V","3XUSYT70ITN3RRKBJPNBFGD6FGOD06","","","null","","","","","","","",""
"1122.9000000003725","","image-keyboard-response","215","423644","0.0-144.0","3A9AA95ATX8DXF7WC6PKLOM8IXD5P9","A1AKL5YH9NLD2V","3XUSYT70ITN3RRKBJPNBFGD6FGOD06","","img/set1/S3.jpg","72","3","random","72","true","random,structured_normal,structured_incentive","1,2,2,3","",""
"null","","html-keyboard-response","216","423996","0.0-145.0","3A9AA95ATX8DXF7WC6PKLOM8IXD5P9","A1AKL5YH9NLD2V","3XUSYT70ITN3RRKBJPNBFGD6FGOD06","","<img src=""img/set1/S3.jpg"" width=""540"" height = ""360"" style=""border:16px solid orange"">","null","","","","","","","",""
"null","","html-keyboard-response","217","423998","0.0-146.0","3A9AA95ATX8DXF7WC6PKLOM8IXD5P9","A1AKL5YH9NLD2V","3XUSYT70ITN3RRKBJPNBFGD6FGOD06","","","null","","","","","","","",""
"516.9000000003725","","image-keyboard-response","218","424516","0.0-147.0","3A9AA95ATX8DXF7WC6PKLOM8IXD5P9","A1AKL5YH9NLD2V","3XUSYT70ITN3RRKBJPNBFGD6FGOD06","","img/set1/S3.jpg","72","3","random","72","true","random,structured_normal,structured_incentive","1,2,2,3","",""
"null","","html-keyboard-response","219","424870","0.0-148.0","3A9AA95ATX8DXF7WC6PKLOM8IXD5P9","A1AKL5YH9NLD2V","3XUSYT70ITN3RRKBJPNBFGD6FGOD06","","<img src=""img/set1/S3.jpg"" width=""540"" height = ""360"" style=""border:16px solid orange"">","null","","","","","","","",""
"null","","html-keyboard-response","220","424875","0.0-149.0","3A9AA95ATX8DXF7WC6PKLOM8IXD5P9","A1AKL5YH9NLD2V","3XUSYT70ITN3RRKBJPNBFGD6FGOD06","","","null","","","","","","","",""
"647.5","","image-keyboard-response","221","425523","0.0-150.0","3A9AA95ATX8DXF7WC6PKLOM8IXD5P9","A1AKL5YH9NLD2V","3XUSYT70ITN3RRKBJPNBFGD6FGOD06","","img/set1/S2.jpg","74","2","random","68","false","random,structured_normal,structured_incentive","1,2,2,3","",""
"null","","html-keyboard-response","222","425887","0.0-151.0","3A9AA95ATX8DXF7WC6PKLOM8IXD5P9","A1AKL5YH9NLD2V","3XUSYT70ITN3RRKBJPNBFGD6FGOD06","","<img src=""img/set1/S2.jpg"" width=""540"" height = ""360"">","null","","","","","","","",""
"null","","html-keyboard-response","223","425900","0.0-152.0","3A9AA95ATX8DXF7WC6PKLOM8IXD5P9","A1AKL5YH9NLD2V","3XUSYT70ITN3RRKBJPNBFGD6FGOD06","","","null","","","","","","","",""
"782.7000000011176","","image-keyboard-response","224","426684","0.0-153.0","3A9AA95ATX8DXF7WC6PKLOM8IXD5P9","A1AKL5YH9NLD2V","3XUSYT70ITN3RRKBJPNBFGD6FGOD06","","img/set1/S3.jpg","72","3","random","72","true","random,structured_normal,structured_incentive","1,2,2,3","",""
"null","","html-keyboard-response","225","427036","0.0-154.0","3A9AA95ATX8DXF7WC6PKLOM8IXD5P9","A1AKL5YH9NLD2V","3XUSYT70ITN3RRKBJPNBFGD6FGOD06","","<img src=""img/set1/S3.jpg"" width=""540"" height = ""360"" style=""border:16px solid orange"">","null","","","","","","","",""
"null","","html-keyboard-response","226","427038","0.0-155.0","3A9AA95ATX8DXF7WC6PKLOM8IXD5P9","A1AKL5YH9NLD2V","3XUSYT70ITN3RRKBJPNBFGD6FGOD06","","","null","","","","","","","",""
"996.8000000007451","","image-keyboard-response","227","428036","0.0-156.0","3A9AA95ATX8DXF7WC6PKLOM8IXD5P9","A1AKL5YH9NLD2V","3XUSYT70ITN3RRKBJPNBFGD6FGOD06","","img/set1/S1.jpg","83","1","random","83","true","random,structured_normal,structured_incentive","1,2,2,3","",""
"null","","html-keyboard-response","228","428401","0.0-157.0","3A9AA95ATX8DXF7WC6PKLOM8IXD5P9","A1AKL5YH9NLD2V","3XUSYT70ITN3RRKBJPNBFGD6FGOD06","","<img src=""img/set1/S1.jpg"" width=""540"" height = ""360"" style=""border:16px solid orange"">","null","","","","","","","",""
"null","","html-keyboard-response","229","428406","0.0-158.0","3A9AA95ATX8DXF7WC6PKLOM8IXD5P9","A1AKL5YH9NLD2V","3XUSYT70ITN3RRKBJPNBFGD6FGOD06","","","null","","","","","","","",""
"652.6999999992549","","image-keyboard-response","230","429059","0.0-159.0","3A9AA95ATX8DXF7WC6PKLOM8IXD5P9","A1AKL5YH9NLD2V","3XUSYT70ITN3RRKBJPNBFGD6FGOD06","","img/set1/S2.jpg","74","2","random","68","false","random,structured_normal,structured_incentive","1,2,2,3","",""
"null","","html-keyboard-response","231","429423","0.0-160.0","3A9AA95ATX8DXF7WC6PKLOM8IXD5P9","A1AKL5YH9NLD2V","3XUSYT70ITN3RRKBJPNBFGD6FGOD06","","<img src=""img/set1/S2.jpg"" width=""540"" height = ""360"">","null","","","","","","","",""
"null","","html-keyboard-response","232","429425","0.0-161.0","3A9AA95ATX8DXF7WC6PKLOM8IXD5P9","A1AKL5YH9NLD2V","3XUSYT70ITN3RRKBJPNBFGD6FGOD06","","","null","","","","","","","",""
"673.8000000007451","","image-keyboard-response","233","430100","0.0-162.0","3A9AA95ATX8DXF7WC6PKLOM8IXD5P9","A1AKL5YH9NLD2V","3XUSYT70ITN3RRKBJPNBFGD6FGOD06","","img/set1/S3.jpg","72","3","random","72","true","random,structured_normal,structured_incentive","1,2,2,3","",""
"null","","html-keyboard-response","234","430473","0.0-163.0","3A9AA95ATX8DXF7WC6PKLOM8IXD5P9","A1AKL5YH9NLD2V","3XUSYT70ITN3RRKBJPNBFGD6FGOD06","","<img src=""img/set1/S3.jpg"" width=""540"" height = ""360"" style=""border:16px solid orange"">","null","","","","","","","",""
"null","","html-keyboard-response","235","430475","0.0-164.0","3A9AA95ATX8DXF7WC6PKLOM8IXD5P9","A1AKL5YH9NLD2V","3XUSYT70ITN3RRKBJPNBFGD6FGOD06","","","null","","","","","","","",""
"512.9000000003725","","image-keyboard-response","236","430989","0.0-165.0","3A9AA95ATX8DXF7WC6PKLOM8IXD5P9","A1AKL5YH9NLD2V","3XUSYT70ITN3RRKBJPNBFGD6FGOD06","","img/set1/S3.jpg","72","3","random","72","true","random,structured_normal,structured_incentive","1,2,2,3","",""
"null","","html-keyboard-response","237","431341","0.0-166.0","3A9AA95ATX8DXF7WC6PKLOM8IXD5P9","A1AKL5YH9NLD2V","3XUSYT70ITN3RRKBJPNBFGD6FGOD06","","<img src=""img/set1/S3.jpg"" width=""540"" height = ""360"" style=""border:16px solid orange"">","null","","","","","","","",""
"null","","html-keyboard-response","238","431374","0.0-167.0","3A9AA95ATX8DXF7WC6PKLOM8IXD5P9","A1AKL5YH9NLD2V","3XUSYT70ITN3RRKBJPNBFGD6FGOD06","","","null","","","","","","","",""
"855","","image-keyboard-response","239","432230","0.0-168.0","3A9AA95ATX8DXF7WC6PKLOM8IXD5P9","A1AKL5YH9NLD2V","3XUSYT70ITN3RRKBJPNBFGD6FGOD06","","img/set1/S2.jpg","74","2","random","68","false","random,structured_normal,structured_incentive","1,2,2,3","",""
"null","","html-keyboard-response","240","432582","0.0-169.0","3A9AA95ATX8DXF7WC6PKLOM8IXD5P9","A1AKL5YH9NLD2V","3XUSYT70ITN3RRKBJPNBFGD6FGOD06","","<img src=""img/set1/S2.jpg"" width=""540"" height = ""360"">","null","","","","","","","",""
"null","","html-keyboard-response","241","432584","0.0-170.0","3A9AA95ATX8DXF7WC6PKLOM8IXD5P9","A1AKL5YH9NLD2V","3XUSYT70ITN3RRKBJPNBFGD6FGOD06","","","null","","","","","","","",""
"707.2000000011176","","image-keyboard-response","242","433292","0.0-171.0","3A9AA95ATX8DXF7WC6PKLOM8IXD5P9","A1AKL5YH9NLD2V","3XUSYT70ITN3RRKBJPNBFGD6FGOD06","","img/set1/S4.jpg","68","4","random","74","false","random,structured_normal,structured_incentive","1,2,2,3","",""
"null","","html-keyboard-response","243","433645","0.0-172.0","3A9AA95ATX8DXF7WC6PKLOM8IXD5P9","A1AKL5YH9NLD2V","3XUSYT70ITN3RRKBJPNBFGD6FGOD06","","<img src=""img/set1/S4.jpg"" width=""540"" height = ""360"">","null","","","","","","","",""
"null","","html-keyboard-response","244","433646","0.0-173.0","3A9AA95ATX8DXF7WC6PKLOM8IXD5P9","A1AKL5YH9NLD2V","3XUSYT70ITN3RRKBJPNBFGD6FGOD06","","","null","","","","","","","",""
"1044.1000000014901","","image-keyboard-response","245","434692","0.0-174.0","3A9AA95ATX8DXF7WC6PKLOM8IXD5P9","A1AKL5YH9NLD2V","3XUSYT70ITN3RRKBJPNBFGD6FGOD06","","img/set1/S3.jpg","72","3","random","72","true","random,structured_normal,structured_incentive","1,2,2,3","",""
"null","","html-keyboard-response","246","435043","0.0-175.0","3A9AA95ATX8DXF7WC6PKLOM8IXD5P9","A1AKL5YH9NLD2V","3XUSYT70ITN3RRKBJPNBFGD6FGOD06","","<img src=""img/set1/S3.jpg"" width=""540"" height = ""360"" style=""border:16px solid orange"">","null","","","","","","","",""
"null","","html-keyboard-response","247","435047","0.0-176.0","3A9AA95ATX8DXF7WC6PKLOM8IXD5P9","A1AKL5YH9NLD2V","3XUSYT70ITN3RRKBJPNBFGD6FGOD06","","","null","","","","","","","",""
"819.1999999992549","","image-keyboard-response","248","435868","0.0-177.0","3A9AA95ATX8DXF7WC6PKLOM8IXD5P9","A1AKL5YH9NLD2V","3XUSYT70ITN3RRKBJPNBFGD6FGOD06","","img/set1/S1.jpg","83","1","random","83","true","random,structured_normal,structured_incentive","1,2,2,3","",""
"null","","html-keyboard-response","249","436219","0.0-178.0","3A9AA95ATX8DXF7WC6PKLOM8IXD5P9","A1AKL5YH9NLD2V","3XUSYT70ITN3RRKBJPNBFGD6FGOD06","","<img src=""img/set1/S1.jpg"" width=""540"" height = ""360"" style=""border:16px solid orange"">","null","","","","","","","",""
"null","","html-keyboard-response","250","436221","0.0-179.0","3A9AA95ATX8DXF7WC6PKLOM8IXD5P9","A1AKL5YH9NLD2V","3XUSYT70ITN3RRKBJPNBFGD6FGOD06","","","null","","","","","","","",""
"428.90000000037253","","image-keyboard-response","251","436651","0.0-180.0","3A9AA95ATX8DXF7WC6PKLOM8IXD5P9","A1AKL5YH9NLD2V","3XUSYT70ITN3RRKBJPNBFGD6FGOD06","","img/set1/S1.jpg","83","1","random","83","true","random,structured_normal,structured_incentive","1,2,2,3","",""
"null","","html-keyboard-response","252","437004","0.0-181.0","3A9AA95ATX8DXF7WC6PKLOM8IXD5P9","A1AKL5YH9NLD2V","3XUSYT70ITN3RRKBJPNBFGD6FGOD06","","<img src=""img/set1/S1.jpg"" width=""540"" height = ""360"" style=""border:16px solid orange"">","null","","","","","","","",""
"null","","html-keyboard-response","253","437007","0.0-182.0","3A9AA95ATX8DXF7WC6PKLOM8IXD5P9","A1AKL5YH9NLD2V","3XUSYT70ITN3RRKBJPNBFGD6FGOD06","","","null","","","","","","","",""
"1276","","image-keyboard-response","254","438284","0.0-183.0","3A9AA95ATX8DXF7WC6PKLOM8IXD5P9","A1AKL5YH9NLD2V","3XUSYT70ITN3RRKBJPNBFGD6FGOD06","","img/set1/S2.jpg","68","2","random","68","true","random,structured_normal,structured_incentive","1,2,2,3","",""
"null","","html-keyboard-response","255","438637","0.0-184.0","3A9AA95ATX8DXF7WC6PKLOM8IXD5P9","A1AKL5YH9NLD2V","3XUSYT70ITN3RRKBJPNBFGD6FGOD06","","<img src=""img/set1/S2.jpg"" width=""540"" height = ""360"" style=""border:16px solid orange"">","null","","","","","","","",""
"null","","html-keyboard-response","256","438639","0.0-185.0","3A9AA95ATX8DXF7WC6PKLOM8IXD5P9","A1AKL5YH9NLD2V","3XUSYT70ITN3RRKBJPNBFGD6FGOD06","","","null","","","","","","","",""
"611.9000000003725","","image-keyboard-response","257","439252","0.0-186.0","3A9AA95ATX8DXF7WC6PKLOM8IXD5P9","A1AKL5YH9NLD2V","3XUSYT70ITN3RRKBJPNBFGD6FGOD06","","img/set1/S1.jpg","83","1","random","83","true","random,structured_normal,structured_incentive","1,2,2,3","",""
"null","","html-keyboard-response","258","439604","0.0-187.0","3A9AA95ATX8DXF7WC6PKLOM8IXD5P9","A1AKL5YH9NLD2V","3XUSYT70ITN3RRKBJPNBFGD6FGOD06","","<img src=""img/set1/S1.jpg"" width=""540"" height = ""360"" style=""border:16px solid orange"">","null","","","","","","","",""
"null","","html-keyboard-response","259","439606","0.0-188.0","3A9AA95ATX8DXF7WC6PKLOM8IXD5P9","A1AKL5YH9NLD2V","3XUSYT70ITN3RRKBJPNBFGD6FGOD06","","","null","","","","","","","",""
"436.3999999985099","","image-keyboard-response","260","440043","0.0-189.0","3A9AA95ATX8DXF7WC6PKLOM8IXD5P9","A1AKL5YH9NLD2V","3XUSYT70ITN3RRKBJPNBFGD6FGOD06","","img/set1/S2.jpg","68","2","random","68","true","random,structured_normal,structured_incentive","1,2,2,3","",""
"null","","html-keyboard-response","261","440402","0.0-190.0","3A9AA95ATX8DXF7WC6PKLOM8IXD5P9","A1AKL5YH9NLD2V","3XUSYT70ITN3RRKBJPNBFGD6FGOD06","","<img src=""img/set1/S2.jpg"" width=""540"" height = ""360"" style=""border:16px solid orange"">","null","","","","","","","",""
"null","","html-keyboard-response","262","440404","0.0-191.0","3A9AA95ATX8DXF7WC6PKLOM8IXD5P9","A1AKL5YH9NLD2V","3XUSYT70ITN3RRKBJPNBFGD6FGOD06","","","null","","","","","","","",""
"565.9000000003725","","image-keyboard-response","263","440971","0.0-192.0","3A9AA95ATX8DXF7WC6PKLOM8IXD5P9","A1AKL5YH9NLD2V","3XUSYT70ITN3RRKBJPNBFGD6FGOD06","","img/set1/S1.jpg","83","1","random","83","true","random,structured_normal,structured_incentive","1,2,2,3","",""
"null","","html-keyboard-response","264","441324","0.0-193.0","3A9AA95ATX8DXF7WC6PKLOM8IXD5P9","A1AKL5YH9NLD2V","3XUSYT70ITN3RRKBJPNBFGD6FGOD06","","<img src=""img/set1/S1.jpg"" width=""540"" height = ""360"" style=""border:16px solid orange"">","null","","","","","","","",""
"null","","html-keyboard-response","265","441326","0.0-194.0","3A9AA95ATX8DXF7WC6PKLOM8IXD5P9","A1AKL5YH9NLD2V","3XUSYT70ITN3RRKBJPNBFGD6FGOD06","","","null","","","","","","","",""
"1141.300000000745","","image-keyboard-response","266","442468","0.0-195.0","3A9AA95ATX8DXF7WC6PKLOM8IXD5P9","A1AKL5YH9NLD2V","3XUSYT70ITN3RRKBJPNBFGD6FGOD06","","img/set1/S4.jpg","74","4","random","74","true","random,structured_normal,structured_incentive","1,2,2,3","",""
"null","","html-keyboard-response","267","442822","0.0-196.0","3A9AA95ATX8DXF7WC6PKLOM8IXD5P9","A1AKL5YH9NLD2V","3XUSYT70ITN3RRKBJPNBFGD6FGOD06","","<img src=""img/set1/S4.jpg"" width=""540"" height = ""360"" style=""border:16px solid orange"">","null","","","","","","","",""
"null","","html-keyboard-response","268","442825","0.0-197.0","3A9AA95ATX8DXF7WC6PKLOM8IXD5P9","A1AKL5YH9NLD2V","3XUSYT70ITN3RRKBJPNBFGD6FGOD06","","","null","","","","","","","",""
"465.5","","image-keyboard-response","269","443291","0.0-198.0","3A9AA95ATX8DXF7WC6PKLOM8IXD5P9","A1AKL5YH9NLD2V","3XUSYT70ITN3RRKBJPNBFGD6FGOD06","","img/set1/S4.jpg","74","4","random","74","true","random,structured_normal,structured_incentive","1,2,2,3","",""
"null","","html-keyboard-response","270","443643","0.0-199.0","3A9AA95ATX8DXF7WC6PKLOM8IXD5P9","A1AKL5YH9NLD2V","3XUSYT70ITN3RRKBJPNBFGD6FGOD06","","<img src=""img/set1/S4.jpg"" width=""540"" height = ""360"" style=""border:16px solid orange"">","null","","","","","","","",""
"null","","html-keyboard-response","271","443645","0.0-200.0","3A9AA95ATX8DXF7WC6PKLOM8IXD5P9","A1AKL5YH9NLD2V","3XUSYT70ITN3RRKBJPNBFGD6FGOD06","","","null","","","","","","","",""
"653","","image-keyboard-response","272","444299","0.0-201.0","3A9AA95ATX8DXF7WC6PKLOM8IXD5P9","A1AKL5YH9NLD2V","3XUSYT70ITN3RRKBJPNBFGD6FGOD06","","img/set1/S3.jpg","72","3","random","72","true","random,structured_normal,structured_incentive","1,2,2,3","",""
"null","","html-keyboard-response","273","444653","0.0-202.0","3A9AA95ATX8DXF7WC6PKLOM8IXD5P9","A1AKL5YH9NLD2V","3XUSYT70ITN3RRKBJPNBFGD6FGOD06","","<img src=""img/set1/S3.jpg"" width=""540"" height = ""360"" style=""border:16px solid orange"">","null","","","","","","","",""
"null","","html-keyboard-response","274","444655","0.0-203.0","3A9AA95ATX8DXF7WC6PKLOM8IXD5P9","A1AKL5YH9NLD2V","3XUSYT70ITN3RRKBJPNBFGD6FGOD06","","","null","","","","","","","",""
"675.0999999996275","","image-keyboard-response","275","445331","0.0-204.0","3A9AA95ATX8DXF7WC6PKLOM8IXD5P9","A1AKL5YH9NLD2V","3XUSYT70ITN3RRKBJPNBFGD6FGOD06","","img/set1/S1.jpg","83","1","random","83","true","random,structured_normal,structured_incentive","1,2,2,3","",""
"null","","html-keyboard-response","276","445684","0.0-205.0","3A9AA95ATX8DXF7WC6PKLOM8IXD5P9","A1AKL5YH9NLD2V","3XUSYT70ITN3RRKBJPNBFGD6FGOD06","","<img src=""img/set1/S1.jpg"" width=""540"" height = ""360"" style=""border:16px solid orange"">","null","","","","","","","",""
"null","","html-keyboard-response","277","445686","0.0-206.0","3A9AA95ATX8DXF7WC6PKLOM8IXD5P9","A1AKL5YH9NLD2V","3XUSYT70ITN3RRKBJPNBFGD6FGOD06","","","null","","","","","","","",""
"780.1999999992549","","image-keyboard-response","278","446467","0.0-207.0","3A9AA95ATX8DXF7WC6PKLOM8IXD5P9","A1AKL5YH9NLD2V","3XUSYT70ITN3RRKBJPNBFGD6FGOD06","","img/set1/S4.jpg","74","4","random","74","true","random,structured_normal,structured_incentive","1,2,2,3","",""
"null","","html-keyboard-response","279","446819","0.0-208.0","3A9AA95ATX8DXF7WC6PKLOM8IXD5P9","A1AKL5YH9NLD2V","3XUSYT70ITN3RRKBJPNBFGD6FGOD06","","<img src=""img/set1/S4.jpg"" width=""540"" height = ""360"" style=""border:16px solid orange"">","null","","","","","","","",""
"null","","html-keyboard-response","280","446862","0.0-209.0","3A9AA95ATX8DXF7WC6PKLOM8IXD5P9","A1AKL5YH9NLD2V","3XUSYT70ITN3RRKBJPNBFGD6FGOD06","","","null","","","","","","","",""
"476","","image-keyboard-response","281","447339","0.0-210.0","3A9AA95ATX8DXF7WC6PKLOM8IXD5P9","A1AKL5YH9NLD2V","3XUSYT70ITN3RRKBJPNBFGD6FGOD06","","img/set1/S4.jpg","74","4","random","74","true","random,structured_normal,structured_incentive","1,2,2,3","",""
"null","","html-keyboard-response","282","447704","0.0-211.0","3A9AA95ATX8DXF7WC6PKLOM8IXD5P9","A1AKL5YH9NLD2V","3XUSYT70ITN3RRKBJPNBFGD6FGOD06","","<img src=""img/set1/S4.jpg"" width=""540"" height = ""360"" style=""border:16px solid orange"">","null","","","","","","","",""
"null","","html-keyboard-response","283","447708","0.0-212.0","3A9AA95ATX8DXF7WC6PKLOM8IXD5P9","A1AKL5YH9NLD2V","3XUSYT70ITN3RRKBJPNBFGD6FGOD06","","","null","","","","","","","",""
"670.6999999992549","","image-keyboard-response","284","448380","0.0-213.0","3A9AA95ATX8DXF7WC6PKLOM8IXD5P9","A1AKL5YH9NLD2V","3XUSYT70ITN3RRKBJPNBFGD6FGOD06","","img/set1/S3.jpg","72","3","random","72","true","random,structured_normal,structured_incentive","1,2,2,3","",""
"null","","html-keyboard-response","285","448732","0.0-214.0","3A9AA95ATX8DXF7WC6PKLOM8IXD5P9","A1AKL5YH9NLD2V","3XUSYT70ITN3RRKBJPNBFGD6FGOD06","","<img src=""img/set1/S3.jpg"" width=""540"" height = ""360"" style=""border:16px solid orange"">","null","","","","","","","",""
"null","","html-keyboard-response","286","448735","0.0-215.0","3A9AA95ATX8DXF7WC6PKLOM8IXD5P9","A1AKL5YH9NLD2V","3XUSYT70ITN3RRKBJPNBFGD6FGOD06","","","null","","","","","","","",""
"760.1000000014901","","image-keyboard-response","287","449496","0.0-216.0","3A9AA95ATX8DXF7WC6PKLOM8IXD5P9","A1AKL5YH9NLD2V","3XUSYT70ITN3RRKBJPNBFGD6FGOD06","","img/set1/S1.jpg","83","1","random","83","true","random,structured_normal,structured_incentive","1,2,2,3","",""
"null","","html-keyboard-response","288","449855","0.0-217.0","3A9AA95ATX8DXF7WC6PKLOM8IXD5P9","A1AKL5YH9NLD2V","3XUSYT70ITN3RRKBJPNBFGD6FGOD06","","<img src=""img/set1/S1.jpg"" width=""540"" height = ""360"" style=""border:16px solid orange"">","null","","","","","","","",""
"null","","html-keyboard-response","289","449856","0.0-218.0","3A9AA95ATX8DXF7WC6PKLOM8IXD5P9","A1AKL5YH9NLD2V","3XUSYT70ITN3RRKBJPNBFGD6FGOD06","","","null","","","","","","","",""
"475.59999999962747","","image-keyboard-response","290","450333","0.0-219.0","3A9AA95ATX8DXF7WC6PKLOM8IXD5P9","A1AKL5YH9NLD2V","3XUSYT70ITN3RRKBJPNBFGD6FGOD06","","img/set1/S1.jpg","83","1","random","83","true","random,structured_normal,structured_incentive","1,2,2,3","",""
"null","","html-keyboard-response","291","450684","0.0-220.0","3A9AA95ATX8DXF7WC6PKLOM8IXD5P9","A1AKL5YH9NLD2V","3XUSYT70ITN3RRKBJPNBFGD6FGOD06","","<img src=""img/set1/S1.jpg"" width=""540"" height = ""360"" style=""border:16px solid orange"">","null","","","","","","","",""
"null","","html-keyboard-response","292","450687","0.0-221.0","3A9AA95ATX8DXF7WC6PKLOM8IXD5P9","A1AKL5YH9NLD2V","3XUSYT70ITN3RRKBJPNBFGD6FGOD06","","","null","","","","","","","",""
"1163.699999999255","","image-keyboard-response","293","451851","0.0-222.0","3A9AA95ATX8DXF7WC6PKLOM8IXD5P9","A1AKL5YH9NLD2V","3XUSYT70ITN3RRKBJPNBFGD6FGOD06","","img/set1/S2.jpg","68","2","random","68","true","random,structured_normal,structured_incentive","1,2,2,3","",""
"null","","html-keyboard-response","294","452207","0.0-223.0","3A9AA95ATX8DXF7WC6PKLOM8IXD5P9","A1AKL5YH9NLD2V","3XUSYT70ITN3RRKBJPNBFGD6FGOD06","","<img src=""img/set1/S2.jpg"" width=""540"" height = ""360"" style=""border:16px solid orange"">","null","","","","","","","",""
"null","","html-keyboard-response","295","452209","0.0-224.0","3A9AA95ATX8DXF7WC6PKLOM8IXD5P9","A1AKL5YH9NLD2V","3XUSYT70ITN3RRKBJPNBFGD6FGOD06","","","null","","","","","","","",""
"665.2999999988824","","image-keyboard-response","296","452875","0.0-225.0","3A9AA95ATX8DXF7WC6PKLOM8IXD5P9","A1AKL5YH9NLD2V","3XUSYT70ITN3RRKBJPNBFGD6FGOD06","","img/set1/S3.jpg","72","3","random","72","true","random,structured_normal,structured_incentive","1,2,2,3","",""
"null","","html-keyboard-response","297","453229","0.0-226.0","3A9AA95ATX8DXF7WC6PKLOM8IXD5P9","A1AKL5YH9NLD2V","3XUSYT70ITN3RRKBJPNBFGD6FGOD06","","<img src=""img/set1/S3.jpg"" width=""540"" height = ""360"" style=""border:16px solid orange"">","null","","","","","","","",""
"null","","html-keyboard-response","298","453231","0.0-227.0","3A9AA95ATX8DXF7WC6PKLOM8IXD5P9","A1AKL5YH9NLD2V","3XUSYT70ITN3RRKBJPNBFGD6FGOD06","","","null","","","","","","","",""
"715.3000000007451","","image-keyboard-response","299","453947","0.0-228.0","3A9AA95ATX8DXF7WC6PKLOM8IXD5P9","A1AKL5YH9NLD2V","3XUSYT70ITN3RRKBJPNBFGD6FGOD06","","img/set1/S1.jpg","83","1","random","83","true","random,structured_normal,structured_incentive","1,2,2,3","",""
"null","","html-keyboard-response","300","454299","0.0-229.0","3A9AA95ATX8DXF7WC6PKLOM8IXD5P9","A1AKL5YH9NLD2V","3XUSYT70ITN3RRKBJPNBFGD6FGOD06","","<img src=""img/set1/S1.jpg"" width=""540"" height = ""360"" style=""border:16px solid orange"">","null","","","","","","","",""
"null","","html-keyboard-response","301","454301","0.0-230.0","3A9AA95ATX8DXF7WC6PKLOM8IXD5P9","A1AKL5YH9NLD2V","3XUSYT70ITN3RRKBJPNBFGD6FGOD06","","","null","","","","","","","",""
"741.5999999996275","","image-keyboard-response","302","455043","0.0-231.0","3A9AA95ATX8DXF7WC6PKLOM8IXD5P9","A1AKL5YH9NLD2V","3XUSYT70ITN3RRKBJPNBFGD6FGOD06","","img/set1/S3.jpg","72","3","random","72","true","random,structured_normal,structured_incentive","1,2,2,3","",""
"null","","html-keyboard-response","303","455395","0.0-232.0","3A9AA95ATX8DXF7WC6PKLOM8IXD5P9","A1AKL5YH9NLD2V","3XUSYT70ITN3RRKBJPNBFGD6FGOD06","","<img src=""img/set1/S3.jpg"" width=""540"" height = ""360"" style=""border:16px solid orange"">","null","","","","","","","",""
"null","","html-keyboard-response","304","455397","0.0-233.0","3A9AA95ATX8DXF7WC6PKLOM8IXD5P9","A1AKL5YH9NLD2V","3XUSYT70ITN3RRKBJPNBFGD6FGOD06","","","null","","","","","","","",""
"468.90000000037253","","image-keyboard-response","305","455867","0.0-234.0","3A9AA95ATX8DXF7WC6PKLOM8IXD5P9","A1AKL5YH9NLD2V","3XUSYT70ITN3RRKBJPNBFGD6FGOD06","","img/set1/S3.jpg","72","3","random","72","true","random,structured_normal,structured_incentive","1,2,2,3","",""
"null","","html-keyboard-response","306","456219","0.0-235.0","3A9AA95ATX8DXF7WC6PKLOM8IXD5P9","A1AKL5YH9NLD2V","3XUSYT70ITN3RRKBJPNBFGD6FGOD06","","<img src=""img/set1/S3.jpg"" width=""540"" height = ""360"" style=""border:16px solid orange"">","null","","","","","","","",""
"null","","html-keyboard-response","307","456221","0.0-236.0","3A9AA95ATX8DXF7WC6PKLOM8IXD5P9","A1AKL5YH9NLD2V","3XUSYT70ITN3RRKBJPNBFGD6FGOD06","","","null","","","","","","","",""
"1385","","image-keyboard-response","308","457607","0.0-237.0","3A9AA95ATX8DXF7WC6PKLOM8IXD5P9","A1AKL5YH9NLD2V","3XUSYT70ITN3RRKBJPNBFGD6FGOD06","","img/set1/S4.jpg","74","4","random","74","true","random,structured_normal,structured_incentive","1,2,2,3","",""
"null","","html-keyboard-response","309","457959","0.0-238.0","3A9AA95ATX8DXF7WC6PKLOM8IXD5P9","A1AKL5YH9NLD2V","3XUSYT70ITN3RRKBJPNBFGD6FGOD06","","<img src=""img/set1/S4.jpg"" width=""540"" height = ""360"" style=""border:16px solid orange"">","null","","","","","","","",""
"null","","html-keyboard-response","310","457961","0.0-239.0","3A9AA95ATX8DXF7WC6PKLOM8IXD5P9","A1AKL5YH9NLD2V","3XUSYT70ITN3RRKBJPNBFGD6FGOD06","","","null","","","","","","","",""
"601.6999999992549","","image-keyboard-response","311","458564","0.0-240.0","3A9AA95ATX8DXF7WC6PKLOM8IXD5P9","A1AKL5YH9NLD2V","3XUSYT70ITN3RRKBJPNBFGD6FGOD06","","img/set1/S3.jpg","72","3","random","72","true","random,structured_normal,structured_incentive","1,2,2,3","",""
"null","","html-keyboard-response","312","458916","0.0-241.0","3A9AA95ATX8DXF7WC6PKLOM8IXD5P9","A1AKL5YH9NLD2V","3XUSYT70ITN3RRKBJPNBFGD6FGOD06","","<img src=""img/set1/S3.jpg"" width=""540"" height = ""360"" style=""border:16px solid orange"">","null","","","","","","","",""
"null","","html-keyboard-response","313","458918","0.0-242.0","3A9AA95ATX8DXF7WC6PKLOM8IXD5P9","A1AKL5YH9NLD2V","3XUSYT70ITN3RRKBJPNBFGD6FGOD06","","","null","","","","","","","",""
"628.1999999992549","","image-keyboard-response","314","459547","0.0-243.0","3A9AA95ATX8DXF7WC6PKLOM8IXD5P9","A1AKL5YH9NLD2V","3XUSYT70ITN3RRKBJPNBFGD6FGOD06","","img/set1/S1.jpg","83","1","random","83","true","random,structured_normal,structured_incentive","1,2,2,3","",""
"null","","html-keyboard-response","315","459900","0.0-244.0","3A9AA95ATX8DXF7WC6PKLOM8IXD5P9","A1AKL5YH9NLD2V","3XUSYT70ITN3RRKBJPNBFGD6FGOD06","","<img src=""img/set1/S1.jpg"" width=""540"" height = ""360"" style=""border:16px solid orange"">","null","","","","","","","",""
"null","","html-keyboard-response","316","459903","0.0-245.0","3A9AA95ATX8DXF7WC6PKLOM8IXD5P9","A1AKL5YH9NLD2V","3XUSYT70ITN3RRKBJPNBFGD6FGOD06","","","null","","","","","","","",""
"579.5","","image-keyboard-response","317","460483","0.0-246.0","3A9AA95ATX8DXF7WC6PKLOM8IXD5P9","A1AKL5YH9NLD2V","3XUSYT70ITN3RRKBJPNBFGD6FGOD06","","img/set1/S2.jpg","68","2","random","68","true","random,structured_normal,structured_incentive","1,2,2,3","",""
"null","","html-keyboard-response","318","460835","0.0-247.0","3A9AA95ATX8DXF7WC6PKLOM8IXD5P9","A1AKL5YH9NLD2V","3XUSYT70ITN3RRKBJPNBFGD6FGOD06","","<img src=""img/set1/S2.jpg"" width=""540"" height = ""360"" style=""border:16px solid orange"">","null","","","","","","","",""
"null","","html-keyboard-response","319","460837","0.0-248.0","3A9AA95ATX8DXF7WC6PKLOM8IXD5P9","A1AKL5YH9NLD2V","3XUSYT70ITN3RRKBJPNBFGD6FGOD06","","","null","","","","","","","",""
"1189.699999999255","","image-keyboard-response","320","462028","0.0-249.0","3A9AA95ATX8DXF7WC6PKLOM8IXD5P9","A1AKL5YH9NLD2V","3XUSYT70ITN3RRKBJPNBFGD6FGOD06","","img/set1/S3.jpg","72","3","random","72","true","random,structured_normal,structured_incentive","1,2,2,3","",""
"null","","html-keyboard-response","321","462380","0.0-250.0","3A9AA95ATX8DXF7WC6PKLOM8IXD5P9","A1AKL5YH9NLD2V","3XUSYT70ITN3RRKBJPNBFGD6FGOD06","","<img src=""img/set1/S3.jpg"" width=""540"" height = ""360"" style=""border:16px solid orange"">","null","","","","","","","",""
"null","","html-keyboard-response","322","462385","0.0-251.0","3A9AA95ATX8DXF7WC6PKLOM8IXD5P9","A1AKL5YH9NLD2V","3XUSYT70ITN3RRKBJPNBFGD6FGOD06","","","null","","","","","","","",""
"641.6999999992549","","image-keyboard-response","323","463027","0.0-252.0","3A9AA95ATX8DXF7WC6PKLOM8IXD5P9","A1AKL5YH9NLD2V","3XUSYT70ITN3RRKBJPNBFGD6FGOD06","","img/set1/S1.jpg","83","1","random","83","true","random,structured_normal,structured_incentive","1,2,2,3","",""
"null","","html-keyboard-response","324","463379","0.0-253.0","3A9AA95ATX8DXF7WC6PKLOM8IXD5P9","A1AKL5YH9NLD2V","3XUSYT70ITN3RRKBJPNBFGD6FGOD06","","<img src=""img/set1/S1.jpg"" width=""540"" height = ""360"" style=""border:16px solid orange"">","null","","","","","","","",""
"null","","html-keyboard-response","325","463381","0.0-254.0","3A9AA95ATX8DXF7WC6PKLOM8IXD5P9","A1AKL5YH9NLD2V","3XUSYT70ITN3RRKBJPNBFGD6FGOD06","","","null","","","","","","","",""
"1604.699999999255","","image-keyboard-response","326","464991","0.0-255.0","3A9AA95ATX8DXF7WC6PKLOM8IXD5P9","A1AKL5YH9NLD2V","3XUSYT70ITN3RRKBJPNBFGD6FGOD06","","img/set1/S4.jpg","74","4","random","74","true","random,structured_normal,structured_incentive","1,2,2,3","",""
"null","","html-keyboard-response","327","465343","0.0-256.0","3A9AA95ATX8DXF7WC6PKLOM8IXD5P9","A1AKL5YH9NLD2V","3XUSYT70ITN3RRKBJPNBFGD6FGOD06","","<img src=""img/set1/S4.jpg"" width=""540"" height = ""360"" style=""border:16px solid orange"">","null","","","","","","","",""
"null","","html-keyboard-response","328","465344","0.0-257.0","3A9AA95ATX8DXF7WC6PKLOM8IXD5P9","A1AKL5YH9NLD2V","3XUSYT70ITN3RRKBJPNBFGD6FGOD06","","","null","","","","","","","",""
"705.9000000003725","","image-keyboard-response","329","466051","0.0-258.0","3A9AA95ATX8DXF7WC6PKLOM8IXD5P9","A1AKL5YH9NLD2V","3XUSYT70ITN3RRKBJPNBFGD6FGOD06","","img/set1/S2.jpg","68","2","random","68","true","random,structured_normal,structured_incentive","1,2,2,3","",""
"null","","html-keyboard-response","330","466404","0.0-259.0","3A9AA95ATX8DXF7WC6PKLOM8IXD5P9","A1AKL5YH9NLD2V","3XUSYT70ITN3RRKBJPNBFGD6FGOD06","","<img src=""img/set1/S2.jpg"" width=""540"" height = ""360"" style=""border:16px solid orange"">","null","","","","","","","",""
"null","","html-keyboard-response","331","466405","0.0-260.0","3A9AA95ATX8DXF7WC6PKLOM8IXD5P9","A1AKL5YH9NLD2V","3XUSYT70ITN3RRKBJPNBFGD6FGOD06","","","null","","","","","","","",""
"444.09999999962747","","image-keyboard-response","332","466851","0.0-261.0","3A9AA95ATX8DXF7WC6PKLOM8IXD5P9","A1AKL5YH9NLD2V","3XUSYT70ITN3RRKBJPNBFGD6FGOD06","","img/set1/S2.jpg","68","2","random","68","true","random,structured_normal,structured_incentive","1,2,2,3","",""
"null","","html-keyboard-response","333","467204","0.0-262.0","3A9AA95ATX8DXF7WC6PKLOM8IXD5P9","A1AKL5YH9NLD2V","3XUSYT70ITN3RRKBJPNBFGD6FGOD06","","<img src=""img/set1/S2.jpg"" width=""540"" height = ""360"" style=""border:16px solid orange"">","null","","","","","","","",""
"null","","html-keyboard-response","334","467205","0.0-263.0","3A9AA95ATX8DXF7WC6PKLOM8IXD5P9","A1AKL5YH9NLD2V","3XUSYT70ITN3RRKBJPNBFGD6FGOD06","","","null","","","","","","","",""
"484.59999999962747","","image-keyboard-response","335","467691","0.0-264.0","3A9AA95ATX8DXF7WC6PKLOM8IXD5P9","A1AKL5YH9NLD2V","3XUSYT70ITN3RRKBJPNBFGD6FGOD06","","img/set1/S4.jpg","74","4","random","74","true","random,structured_normal,structured_incentive","1,2,2,3","",""
"null","","html-keyboard-response","336","468046","0.0-265.0","3A9AA95ATX8DXF7WC6PKLOM8IXD5P9","A1AKL5YH9NLD2V","3XUSYT70ITN3RRKBJPNBFGD6FGOD06","","<img src=""img/set1/S4.jpg"" width=""540"" height = ""360"" style=""border:16px solid orange"">","null","","","","","","","",""
"null","","html-keyboard-response","337","468048","0.0-266.0","3A9AA95ATX8DXF7WC6PKLOM8IXD5P9","A1AKL5YH9NLD2V","3XUSYT70ITN3RRKBJPNBFGD6FGOD06","","","null","","","","","","","",""
"730.9000000003725","","image-keyboard-response","338","468780","0.0-267.0","3A9AA95ATX8DXF7WC6PKLOM8IXD5P9","A1AKL5YH9NLD2V","3XUSYT70ITN3RRKBJPNBFGD6FGOD06","","img/set1/S2.jpg","68","2","random","68","true","random,structured_normal,structured_incentive","1,2,2,3","",""
"null","","html-keyboard-response","339","469133","0.0-268.0","3A9AA95ATX8DXF7WC6PKLOM8IXD5P9","A1AKL5YH9NLD2V","3XUSYT70ITN3RRKBJPNBFGD6FGOD06","","<img src=""img/set1/S2.jpg"" width=""540"" height = ""360"" style=""border:16px solid orange"">","null","","","","","","","",""
"null","","html-keyboard-response","340","469141","0.0-269.0","3A9AA95ATX8DXF7WC6PKLOM8IXD5P9","A1AKL5YH9NLD2V","3XUSYT70ITN3RRKBJPNBFGD6FGOD06","","","null","","","","","","","",""
"405.2999999988824","","image-keyboard-response","341","469547","0.0-270.0","3A9AA95ATX8DXF7WC6PKLOM8IXD5P9","A1AKL5YH9NLD2V","3XUSYT70ITN3RRKBJPNBFGD6FGOD06","","img/set1/S2.jpg","68","2","random","68","true","random,structured_normal,structured_incentive","1,2,2,3","",""
"null","","html-keyboard-response","342","469900","0.0-271.0","3A9AA95ATX8DXF7WC6PKLOM8IXD5P9","A1AKL5YH9NLD2V","3XUSYT70ITN3RRKBJPNBFGD6FGOD06","","<img src=""img/set1/S2.jpg"" width=""540"" height = ""360"" style=""border:16px solid orange"">","null","","","","","","","",""
"null","","html-keyboard-response","343","469928","0.0-272.0","3A9AA95ATX8DXF7WC6PKLOM8IXD5P9","A1AKL5YH9NLD2V","3XUSYT70ITN3RRKBJPNBFGD6FGOD06","","","null","","","","","","","",""
"689.4000000003725","","image-keyboard-response","344","470619","0.0-273.0","3A9AA95ATX8DXF7WC6PKLOM8IXD5P9","A1AKL5YH9NLD2V","3XUSYT70ITN3RRKBJPNBFGD6FGOD06","","img/set1/S4.jpg","74","4","random","74","true","random,structured_normal,structured_incentive","1,2,2,3","",""
"null","","html-keyboard-response","345","470971","0.0-274.0","3A9AA95ATX8DXF7WC6PKLOM8IXD5P9","A1AKL5YH9NLD2V","3XUSYT70ITN3RRKBJPNBFGD6FGOD06","","<img src=""img/set1/S4.jpg"" width=""540"" height = ""360"" style=""border:16px solid orange"">","null","","","","","","","",""
"null","","html-keyboard-response","346","470973","0.0-275.0","3A9AA95ATX8DXF7WC6PKLOM8IXD5P9","A1AKL5YH9NLD2V","3XUSYT70ITN3RRKBJPNBFGD6FGOD06","","","null","","","","","","","",""
"613.0999999996275","","image-keyboard-response","347","471587","0.0-276.0","3A9AA95ATX8DXF7WC6PKLOM8IXD5P9","A1AKL5YH9NLD2V","3XUSYT70ITN3RRKBJPNBFGD6FGOD06","","img/set1/S3.jpg","72","3","random","72","true","random,structured_normal,structured_incentive","1,2,2,3","",""
"null","","html-keyboard-response","348","471939","0.0-277.0","3A9AA95ATX8DXF7WC6PKLOM8IXD5P9","A1AKL5YH9NLD2V","3XUSYT70ITN3RRKBJPNBFGD6FGOD06","","<img src=""img/set1/S3.jpg"" width=""540"" height = ""360"" style=""border:16px solid orange"">","null","","","","","","","",""
"null","","html-keyboard-response","349","471941","0.0-278.0","3A9AA95ATX8DXF7WC6PKLOM8IXD5P9","A1AKL5YH9NLD2V","3XUSYT70ITN3RRKBJPNBFGD6FGOD06","","","null","","","","","","","",""
"565.4000000003725","","image-keyboard-response","350","472507","0.0-279.0","3A9AA95ATX8DXF7WC6PKLOM8IXD5P9","A1AKL5YH9NLD2V","3XUSYT70ITN3RRKBJPNBFGD6FGOD06","","img/set1/S1.jpg","83","1","random","83","true","random,structured_normal,structured_incentive","1,2,2,3","",""
"null","","html-keyboard-response","351","472859","0.0-280.0","3A9AA95ATX8DXF7WC6PKLOM8IXD5P9","A1AKL5YH9NLD2V","3XUSYT70ITN3RRKBJPNBFGD6FGOD06","","<img src=""img/set1/S1.jpg"" width=""540"" height = ""360"" style=""border:16px solid orange"">","null","","","","","","","",""
"null","","html-keyboard-response","352","472863","0.0-281.0","3A9AA95ATX8DXF7WC6PKLOM8IXD5P9","A1AKL5YH9NLD2V","3XUSYT70ITN3RRKBJPNBFGD6FGOD06","","","null","","","","","","","",""
"1378.800000000745","","image-keyboard-response","353","474243","0.0-282.0","3A9AA95ATX8DXF7WC6PKLOM8IXD5P9","A1AKL5YH9NLD2V","3XUSYT70ITN3RRKBJPNBFGD6FGOD06","","img/set1/S2.jpg","68","2","random","68","true","random,structured_normal,structured_incentive","1,2,2,3","",""
"null","","html-keyboard-response","354","474605","0.0-283.0","3A9AA95ATX8DXF7WC6PKLOM8IXD5P9","A1AKL5YH9NLD2V","3XUSYT70ITN3RRKBJPNBFGD6FGOD06","","<img src=""img/set1/S2.jpg"" width=""540"" height = ""360"" style=""border:16px solid orange"">","null","","","","","","","",""
"null","","html-keyboard-response","355","474609","0.0-284.0","3A9AA95ATX8DXF7WC6PKLOM8IXD5P9","A1AKL5YH9NLD2V","3XUSYT70ITN3RRKBJPNBFGD6FGOD06","","","null","","","","","","","",""
"616.5999999996275","","image-keyboard-response","356","475227","0.0-285.0","3A9AA95ATX8DXF7WC6PKLOM8IXD5P9","A1AKL5YH9NLD2V","3XUSYT70ITN3RRKBJPNBFGD6FGOD06","","img/set1/S4.jpg","74","4","random","74","true","random,structured_normal,structured_incentive","1,2,2,3","",""
"null","","html-keyboard-response","357","475588","0.0-286.0","3A9AA95ATX8DXF7WC6PKLOM8IXD5P9","A1AKL5YH9NLD2V","3XUSYT70ITN3RRKBJPNBFGD6FGOD06","","<img src=""img/set1/S4.jpg"" width=""540"" height = ""360"" style=""border:16px solid orange"">","null","","","","","","","",""
"null","","html-keyboard-response","358","475591","0.0-287.0","3A9AA95ATX8DXF7WC6PKLOM8IXD5P9","A1AKL5YH9NLD2V","3XUSYT70ITN3RRKBJPNBFGD6FGOD06","","","null","","","","","","","",""
"571.2000000011176","","image-keyboard-response","359","476163","0.0-288.0","3A9AA95ATX8DXF7WC6PKLOM8IXD5P9","A1AKL5YH9NLD2V","3XUSYT70ITN3RRKBJPNBFGD6FGOD06","","img/set1/S3.jpg","72","3","random","72","true","random,structured_normal,structured_incentive","1,2,2,3","",""
"null","","html-keyboard-response","360","476515","0.0-289.0","3A9AA95ATX8DXF7WC6PKLOM8IXD5P9","A1AKL5YH9NLD2V","3XUSYT70ITN3RRKBJPNBFGD6FGOD06","","<img src=""img/set1/S3.jpg"" width=""540"" height = ""360"" style=""border:16px solid orange"">","null","","","","","","","",""
"null","","html-keyboard-response","361","476516","0.0-290.0","3A9AA95ATX8DXF7WC6PKLOM8IXD5P9","A1AKL5YH9NLD2V","3XUSYT70ITN3RRKBJPNBFGD6FGOD06","","","null","","","","","","","",""
"733.9000000003725","","image-keyboard-response","362","477251","0.0-291.0","3A9AA95ATX8DXF7WC6PKLOM8IXD5P9","A1AKL5YH9NLD2V","3XUSYT70ITN3RRKBJPNBFGD6FGOD06","","img/set1/S4.jpg","68","4","random","74","false","random,structured_normal,structured_incentive","1,2,2,3","",""
"null","","html-keyboard-response","363","477615","0.0-292.0","3A9AA95ATX8DXF7WC6PKLOM8IXD5P9","A1AKL5YH9NLD2V","3XUSYT70ITN3RRKBJPNBFGD6FGOD06","","<img src=""img/set1/S4.jpg"" width=""540"" height = ""360"">","null","","","","","","","",""
"null","","html-keyboard-response","364","477634","0.0-293.0","3A9AA95ATX8DXF7WC6PKLOM8IXD5P9","A1AKL5YH9NLD2V","3XUSYT70ITN3RRKBJPNBFGD6FGOD06","","","null","","","","","","","",""
"919.8000000007451","","image-keyboard-response","365","478555","0.0-294.0","3A9AA95ATX8DXF7WC6PKLOM8IXD5P9","A1AKL5YH9NLD2V","3XUSYT70ITN3RRKBJPNBFGD6FGOD06","","img/set1/S1.jpg","83","1","random","83","true","random,structured_normal,structured_incentive","1,2,2,3","",""
"null","","html-keyboard-response","366","478907","0.0-295.0","3A9AA95ATX8DXF7WC6PKLOM8IXD5P9","A1AKL5YH9NLD2V","3XUSYT70ITN3RRKBJPNBFGD6FGOD06","","<img src=""img/set1/S1.jpg"" width=""540"" height = ""360"" style=""border:16px solid orange"">","null","","","","","","","",""
"null","","html-keyboard-response","367","478921","0.0-296.0","3A9AA95ATX8DXF7WC6PKLOM8IXD5P9","A1AKL5YH9NLD2V","3XUSYT70ITN3RRKBJPNBFGD6FGOD06","","","null","","","","","","","",""
"576.5999999996275","","image-keyboard-response","368","479500","0.0-297.0","3A9AA95ATX8DXF7WC6PKLOM8IXD5P9","A1AKL5YH9NLD2V","3XUSYT70ITN3RRKBJPNBFGD6FGOD06","","img/set1/S1.jpg","83","1","random","83","true","random,structured_normal,structured_incentive","1,2,2,3","",""
"null","","html-keyboard-response","369","479852","0.0-298.0","3A9AA95ATX8DXF7WC6PKLOM8IXD5P9","A1AKL5YH9NLD2V","3XUSYT70ITN3RRKBJPNBFGD6FGOD06","","<img src=""img/set1/S1.jpg"" width=""540"" height = ""360"" style=""border:16px solid orange"">","null","","","","","","","",""
"null","","html-keyboard-response","370","479853","0.0-299.0","3A9AA95ATX8DXF7WC6PKLOM8IXD5P9","A1AKL5YH9NLD2V","3XUSYT70ITN3RRKBJPNBFGD6FGOD06","","","null","","","","","","","",""
"622.0999999996275","","image-keyboard-response","371","480477","0.0-300.0","3A9AA95ATX8DXF7WC6PKLOM8IXD5P9","A1AKL5YH9NLD2V","3XUSYT70ITN3RRKBJPNBFGD6FGOD06","","img/set1/S3.jpg","72","3","random","72","true","random,structured_normal,structured_incentive","1,2,2,3","",""
"null","","html-keyboard-response","372","480828","0.0-301.0","3A9AA95ATX8DXF7WC6PKLOM8IXD5P9","A1AKL5YH9NLD2V","3XUSYT70ITN3RRKBJPNBFGD6FGOD06","","<img src=""img/set1/S3.jpg"" width=""540"" height = ""360"" style=""border:16px solid orange"">","null","","","","","","","",""
"null","","html-keyboard-response","373","480831","0.0-302.0","3A9AA95ATX8DXF7WC6PKLOM8IXD5P9","A1AKL5YH9NLD2V","3XUSYT70ITN3RRKBJPNBFGD6FGOD06","","","null","","","","","","","",""
"722.0999999996275","","image-keyboard-response","374","481554","0.0-303.0","3A9AA95ATX8DXF7WC6PKLOM8IXD5P9","A1AKL5YH9NLD2V","3XUSYT70ITN3RRKBJPNBFGD6FGOD06","","img/set1/S1.jpg","83","1","random","83","true","random,structured_normal,structured_incentive","1,2,2,3","",""
"null","","html-keyboard-response","375","481934","0.0-304.0","3A9AA95ATX8DXF7WC6PKLOM8IXD5P9","A1AKL5YH9NLD2V","3XUSYT70ITN3RRKBJPNBFGD6FGOD06","","<img src=""img/set1/S1.jpg"" width=""540"" height = ""360"" style=""border:16px solid orange"">","null","","","","","","","",""
"null","","html-keyboard-response","376","481938","0.0-305.0","3A9AA95ATX8DXF7WC6PKLOM8IXD5P9","A1AKL5YH9NLD2V","3XUSYT70ITN3RRKBJPNBFGD6FGOD06","","","null","","","","","","","",""
"632.5","","image-keyboard-response","377","482571","0.0-306.0","3A9AA95ATX8DXF7WC6PKLOM8IXD5P9","A1AKL5YH9NLD2V","3XUSYT70ITN3RRKBJPNBFGD6FGOD06","","img/set1/S2.jpg","74","2","random","68","false","random,structured_normal,structured_incentive","1,2,2,3","",""
"null","","html-keyboard-response","378","482924","0.0-307.0","3A9AA95ATX8DXF7WC6PKLOM8IXD5P9","A1AKL5YH9NLD2V","3XUSYT70ITN3RRKBJPNBFGD6FGOD06","","<img src=""img/set1/S2.jpg"" width=""540"" height = ""360"">","null","","","","","","","",""
"null","","html-keyboard-response","379","482926","0.0-308.0","3A9AA95ATX8DXF7WC6PKLOM8IXD5P9","A1AKL5YH9NLD2V","3XUSYT70ITN3RRKBJPNBFGD6FGOD06","","","null","","","","","","","",""
"580.2999999988824","","image-keyboard-response","380","483507","0.0-309.0","3A9AA95ATX8DXF7WC6PKLOM8IXD5P9","A1AKL5YH9NLD2V","3XUSYT70ITN3RRKBJPNBFGD6FGOD06","","img/set1/S1.jpg","83","1","random","83","true","random,structured_normal,structured_incentive","1,2,2,3","",""
"null","","html-keyboard-response","381","483859","0.0-310.0","3A9AA95ATX8DXF7WC6PKLOM8IXD5P9","A1AKL5YH9NLD2V","3XUSYT70ITN3RRKBJPNBFGD6FGOD06","","<img src=""img/set1/S1.jpg"" width=""540"" height = ""360"" style=""border:16px solid orange"">","null","","","","","","","",""
"null","","html-keyboard-response","382","483871","0.0-311.0","3A9AA95ATX8DXF7WC6PKLOM8IXD5P9","A1AKL5YH9NLD2V","3XUSYT70ITN3RRKBJPNBFGD6FGOD06","","","null","","","","","","","",""
"722.6999999992549","","image-keyboard-response","383","484595","0.0-312.0","3A9AA95ATX8DXF7WC6PKLOM8IXD5P9","A1AKL5YH9NLD2V","3XUSYT70ITN3RRKBJPNBFGD6FGOD06","","img/set1/S2.jpg","68","2","random","68","true","random,structured_normal,structured_incentive","1,2,2,3","",""
"null","","html-keyboard-response","384","484948","0.0-313.0","3A9AA95ATX8DXF7WC6PKLOM8IXD5P9","A1AKL5YH9NLD2V","3XUSYT70ITN3RRKBJPNBFGD6FGOD06","","<img src=""img/set1/S2.jpg"" width=""540"" height = ""360"" style=""border:16px solid orange"">","null","","","","","","","",""
"null","","html-keyboard-response","385","484949","0.0-314.0","3A9AA95ATX8DXF7WC6PKLOM8IXD5P9","A1AKL5YH9NLD2V","3XUSYT70ITN3RRKBJPNBFGD6FGOD06","","","null","","","","","","","",""
"508.2999999988824","","image-keyboard-response","386","485459","0.0-315.0","3A9AA95ATX8DXF7WC6PKLOM8IXD5P9","A1AKL5YH9NLD2V","3XUSYT70ITN3RRKBJPNBFGD6FGOD06","","img/set1/S2.jpg","68","2","random","68","true","random,structured_normal,structured_incentive","1,2,2,3","",""
"null","","html-keyboard-response","387","485815","0.0-316.0","3A9AA95ATX8DXF7WC6PKLOM8IXD5P9","A1AKL5YH9NLD2V","3XUSYT70ITN3RRKBJPNBFGD6FGOD06","","<img src=""img/set1/S2.jpg"" width=""540"" height = ""360"" style=""border:16px solid orange"">","null","","","","","","","",""
"null","","html-keyboard-response","388","485825","0.0-317.0","3A9AA95ATX8DXF7WC6PKLOM8IXD5P9","A1AKL5YH9NLD2V","3XUSYT70ITN3RRKBJPNBFGD6FGOD06","","","null","","","","","","","",""
"808.9000000003725","","image-keyboard-response","389","486635","0.0-318.0","3A9AA95ATX8DXF7WC6PKLOM8IXD5P9","A1AKL5YH9NLD2V","3XUSYT70ITN3RRKBJPNBFGD6FGOD06","","img/set1/S4.jpg","74","4","random","74","true","random,structured_normal,structured_incentive","1,2,2,3","",""
"null","","html-keyboard-response","390","486987","0.0-319.0","3A9AA95ATX8DXF7WC6PKLOM8IXD5P9","A1AKL5YH9NLD2V","3XUSYT70ITN3RRKBJPNBFGD6FGOD06","","<img src=""img/set1/S4.jpg"" width=""540"" height = ""360"" style=""border:16px solid orange"">","null","","","","","","","",""
"null","","html-keyboard-response","391","487012","0.0-320.0","3A9AA95ATX8DXF7WC6PKLOM8IXD5P9","A1AKL5YH9NLD2V","3XUSYT70ITN3RRKBJPNBFGD6FGOD06","","","null","","","","","","","",""
"853.6999999992549","","image-keyboard-response","392","487867","0.0-321.0","3A9AA95ATX8DXF7WC6PKLOM8IXD5P9","A1AKL5YH9NLD2V","3XUSYT70ITN3RRKBJPNBFGD6FGOD06","","img/set1/S2.jpg","68","2","random","68","true","random,structured_normal,structured_incentive","1,2,2,3","",""
"null","","html-keyboard-response","393","488223","0.0-322.0","3A9AA95ATX8DXF7WC6PKLOM8IXD5P9","A1AKL5YH9NLD2V","3XUSYT70ITN3RRKBJPNBFGD6FGOD06","","<img src=""img/set1/S2.jpg"" width=""540"" height = ""360"" style=""border:16px solid orange"">","null","","","","","","","",""
"null","","html-keyboard-response","394","488255","0.0-323.0","3A9AA95ATX8DXF7WC6PKLOM8IXD5P9","A1AKL5YH9NLD2V","3XUSYT70ITN3RRKBJPNBFGD6FGOD06","","","null","","","","","","","",""
"467.80000000074506","","image-keyboard-response","395","488723","0.0-324.0","3A9AA95ATX8DXF7WC6PKLOM8IXD5P9","A1AKL5YH9NLD2V","3XUSYT70ITN3RRKBJPNBFGD6FGOD06","","img/set1/S2.jpg","68","2","random","68","true","random,structured_normal,structured_incentive","1,2,2,3","",""
"null","","html-keyboard-response","396","489076","0.0-325.0","3A9AA95ATX8DXF7WC6PKLOM8IXD5P9","A1AKL5YH9NLD2V","3XUSYT70ITN3RRKBJPNBFGD6FGOD06","","<img src=""img/set1/S2.jpg"" width=""540"" height = ""360"" style=""border:16px solid orange"">","null","","","","","","","",""
"null","","html-keyboard-response","397","489078","0.0-326.0","3A9AA95ATX8DXF7WC6PKLOM8IXD5P9","A1AKL5YH9NLD2V","3XUSYT70ITN3RRKBJPNBFGD6FGOD06","","","null","","","","","","","",""
"661.0999999996275","","image-keyboard-response","398","489740","0.0-327.0","3A9AA95ATX8DXF7WC6PKLOM8IXD5P9","A1AKL5YH9NLD2V","3XUSYT70ITN3RRKBJPNBFGD6FGOD06","","img/set1/S3.jpg","72","3","random","72","true","random,structured_normal,structured_incentive","1,2,2,3","",""
"null","","html-keyboard-response","399","490092","0.0-328.0","3A9AA95ATX8DXF7WC6PKLOM8IXD5P9","A1AKL5YH9NLD2V","3XUSYT70ITN3RRKBJPNBFGD6FGOD06","","<img src=""img/set1/S3.jpg"" width=""540"" height = ""360"" style=""border:16px solid orange"">","null","","","","","","","",""
"null","","html-keyboard-response","400","490125","0.0-329.0","3A9AA95ATX8DXF7WC6PKLOM8IXD5P9","A1AKL5YH9NLD2V","3XUSYT70ITN3RRKBJPNBFGD6FGOD06","","","null","","","","","","","",""
"853.0999999996275","","image-keyboard-response","401","490979","0.0-330.0","3A9AA95ATX8DXF7WC6PKLOM8IXD5P9","A1AKL5YH9NLD2V","3XUSYT70ITN3RRKBJPNBFGD6FGOD06","","img/set1/S4.jpg","74","4","random","74","true","random,structured_normal,structured_incentive","1,2,2,3","",""
"null","","html-keyboard-response","402","491333","0.0-331.0","3A9AA95ATX8DXF7WC6PKLOM8IXD5P9","A1AKL5YH9NLD2V","3XUSYT70ITN3RRKBJPNBFGD6FGOD06","","<img src=""img/set1/S4.jpg"" width=""540"" height = ""360"" style=""border:16px solid orange"">","null","","","","","","","",""
"null","","html-keyboard-response","403","491335","0.0-332.0","3A9AA95ATX8DXF7WC6PKLOM8IXD5P9","A1AKL5YH9NLD2V","3XUSYT70ITN3RRKBJPNBFGD6FGOD06","","","null","","","","","","","",""
"643.5999999996275","","image-keyboard-response","404","491979","0.0-333.0","3A9AA95ATX8DXF7WC6PKLOM8IXD5P9","A1AKL5YH9NLD2V","3XUSYT70ITN3RRKBJPNBFGD6FGOD06","","img/set1/S2.jpg","68","2","random","68","true","random,structured_normal,structured_incentive","1,2,2,3","",""
"null","","html-keyboard-response","405","492332","0.0-334.0","3A9AA95ATX8DXF7WC6PKLOM8IXD5P9","A1AKL5YH9NLD2V","3XUSYT70ITN3RRKBJPNBFGD6FGOD06","","<img src=""img/set1/S2.jpg"" width=""540"" height = ""360"" style=""border:16px solid orange"">","null","","","","","","","",""
"null","","html-keyboard-response","406","492334","0.0-335.0","3A9AA95ATX8DXF7WC6PKLOM8IXD5P9","A1AKL5YH9NLD2V","3XUSYT70ITN3RRKBJPNBFGD6FGOD06","","","null","","","","","","","",""
"812.6000000014901","","image-keyboard-response","407","493147","0.0-336.0","3A9AA95ATX8DXF7WC6PKLOM8IXD5P9","A1AKL5YH9NLD2V","3XUSYT70ITN3RRKBJPNBFGD6FGOD06","","img/set1/S4.jpg","74","4","random","74","true","random,structured_normal,structured_incentive","1,2,2,3","",""
"null","","html-keyboard-response","408","493503","0.0-337.0","3A9AA95ATX8DXF7WC6PKLOM8IXD5P9","A1AKL5YH9NLD2V","3XUSYT70ITN3RRKBJPNBFGD6FGOD06","","<img src=""img/set1/S4.jpg"" width=""540"" height = ""360"" style=""border:16px solid orange"">","null","","","","","","","",""
"null","","html-keyboard-response","409","493507","0.0-338.0","3A9AA95ATX8DXF7WC6PKLOM8IXD5P9","A1AKL5YH9NLD2V","3XUSYT70ITN3RRKBJPNBFGD6FGOD06","","","null","","","","","","","",""
"607.8000000007451","","image-keyboard-response","410","494116","0.0-339.0","3A9AA95ATX8DXF7WC6PKLOM8IXD5P9","A1AKL5YH9NLD2V","3XUSYT70ITN3RRKBJPNBFGD6FGOD06","","img/set1/S2.jpg","68","2","random","68","true","random,structured_normal,structured_incentive","1,2,2,3","",""
"null","","html-keyboard-response","411","494468","0.0-340.0","3A9AA95ATX8DXF7WC6PKLOM8IXD5P9","A1AKL5YH9NLD2V","3XUSYT70ITN3RRKBJPNBFGD6FGOD06","","<img src=""img/set1/S2.jpg"" width=""540"" height = ""360"" style=""border:16px solid orange"">","null","","","","","","","",""
"null","","html-keyboard-response","412","494470","0.0-341.0","3A9AA95ATX8DXF7WC6PKLOM8IXD5P9","A1AKL5YH9NLD2V","3XUSYT70ITN3RRKBJPNBFGD6FGOD06","","","null","","","","","","","",""
"756.7000000011176","","image-keyboard-response","413","495227","0.0-342.0","3A9AA95ATX8DXF7WC6PKLOM8IXD5P9","A1AKL5YH9NLD2V","3XUSYT70ITN3RRKBJPNBFGD6FGOD06","","img/set1/S4.jpg","74","4","random","74","true","random,structured_normal,structured_incentive","1,2,2,3","",""
"null","","html-keyboard-response","414","495584","0.0-343.0","3A9AA95ATX8DXF7WC6PKLOM8IXD5P9","A1AKL5YH9NLD2V","3XUSYT70ITN3RRKBJPNBFGD6FGOD06","","<img src=""img/set1/S4.jpg"" width=""540"" height = ""360"" style=""border:16px solid orange"">","null","","","","","","","",""
"null","","html-keyboard-response","415","495588","0.0-344.0","3A9AA95ATX8DXF7WC6PKLOM8IXD5P9","A1AKL5YH9NLD2V","3XUSYT70ITN3RRKBJPNBFGD6FGOD06","","","null","","","","","","","",""
"614.2999999988824","","image-keyboard-response","416","496203","0.0-345.0","3A9AA95ATX8DXF7WC6PKLOM8IXD5P9","A1AKL5YH9NLD2V","3XUSYT70ITN3RRKBJPNBFGD6FGOD06","","img/set1/S1.jpg","83","1","random","83","true","random,structured_normal,structured_incentive","1,2,2,3","",""
"null","","html-keyboard-response","417","496556","0.0-346.0","3A9AA95ATX8DXF7WC6PKLOM8IXD5P9","A1AKL5YH9NLD2V","3XUSYT70ITN3RRKBJPNBFGD6FGOD06","","<img src=""img/set1/S1.jpg"" width=""540"" height = ""360"" style=""border:16px solid orange"">","null","","","","","","","",""
