"rt","url","trial_type","trial_index","time_elapsed","internal_node_id","assignmentID","mturkID","hitID","view_history","stimulus","key_press","state","test_part","correct_response","correct","order_block","order_chunk","bonus","responses"
"5725.100000023842","consent.html","external-html","0","5810","0.0-0.0","30LB5CDZNDW8GCN129HAVRSVBO90Z4","A1HFY6TQD2GBZA","3R5LWXWHR0UE010DORDQUF3E2FPGXE","","","","","","","","","","",""
"896365.3000000715","","instructions","1","902180","0.0-1.0","30LB5CDZNDW8GCN129HAVRSVBO90Z4","A1HFY6TQD2GBZA","3R5LWXWHR0UE010DORDQUF3E2FPGXE","[{""page_index"":0,""viewing_time"":28049.100000023842},{""page_index"":1,""viewing_time"":9022.800000071526},{""page_index"":2,""viewing_time"":24942.099999904633},{""page_index"":3,""viewing_time"":131042.10000002384},{""page_index"":4,""viewing_time"":15641.700000047684},{""page_index"":5,""viewing_time"":113407.69999992847},{""page_index"":6,""viewing_time"":470776.10000002384},{""page_index"":7,""viewing_time"":103483.30000007153}]","","","","","","","","","",""
"null","","image-keyboard-response","2","904684","0.0-2.0-0.0","30LB5CDZNDW8GCN129HAVRSVBO90Z4","A1HFY6TQD2GBZA","3R5LWXWHR0UE010DORDQUF3E2FPGXE","","img/practice/S4.jpg","null","4","practice","74","false","","","",""
"null","","html-keyboard-response","3","904987","0.0-2.0-1.0","30LB5CDZNDW8GCN129HAVRSVBO90Z4","A1HFY6TQD2GBZA","3R5LWXWHR0UE010DORDQUF3E2FPGXE","","<img src=""img/practice/S4.jpg"" width=""540"" height = ""360"">","null","","","","","","","",""
"null","","html-keyboard-response","4","904989","0.0-2.0-2.0","30LB5CDZNDW8GCN129HAVRSVBO90Z4","A1HFY6TQD2GBZA","3R5LWXWHR0UE010DORDQUF3E2FPGXE","","","null","","","","","","","",""
"1777.1000000238419","","image-keyboard-response","5","906767","0.0-2.0-0.1","30LB5CDZNDW8GCN129HAVRSVBO90Z4","A1HFY6TQD2GBZA","3R5LWXWHR0UE010DORDQUF3E2FPGXE","","img/practice/S3.jpg","83","3","practice","72","false","","","",""
"null","","html-keyboard-response","6","907069","0.0-2.0-1.1","30LB5CDZNDW8GCN129HAVRSVBO90Z4","A1HFY6TQD2GBZA","3R5LWXWHR0UE010DORDQUF3E2FPGXE","","<img src=""img/practice/S3.jpg"" width=""540"" height = ""360"">","null","","","","","","","",""
"null","","html-keyboard-response","7","907071","0.0-2.0-2.1","30LB5CDZNDW8GCN129HAVRSVBO90Z4","A1HFY6TQD2GBZA","3R5LWXWHR0UE010DORDQUF3E2FPGXE","","","null","","","","","","","",""
"629.5","","image-keyboard-response","8","907701","0.0-2.0-0.2","30LB5CDZNDW8GCN129HAVRSVBO90Z4","A1HFY6TQD2GBZA","3R5LWXWHR0UE010DORDQUF3E2FPGXE","","img/practice/S2.jpg","72","2","practice","68","false","","","",""
"null","","html-keyboard-response","9","908003","0.0-2.0-1.2","30LB5CDZNDW8GCN129HAVRSVBO90Z4","A1HFY6TQD2GBZA","3R5LWXWHR0UE010DORDQUF3E2FPGXE","","<img src=""img/practice/S2.jpg"" width=""540"" height = ""360"">","null","","","","","","","",""
"null","","html-keyboard-response","10","908005","0.0-2.0-2.2","30LB5CDZNDW8GCN129HAVRSVBO90Z4","A1HFY6TQD2GBZA","3R5LWXWHR0UE010DORDQUF3E2FPGXE","","","null","","","","","","","",""
"342","","image-keyboard-response","11","908347","0.0-2.0-0.3","30LB5CDZNDW8GCN129HAVRSVBO90Z4","A1HFY6TQD2GBZA","3R5LWXWHR0UE010DORDQUF3E2FPGXE","","img/practice/S1.jpg","68","1","practice","83","false","","","",""
"null","","html-keyboard-response","12","908649","0.0-2.0-1.3","30LB5CDZNDW8GCN129HAVRSVBO90Z4","A1HFY6TQD2GBZA","3R5LWXWHR0UE010DORDQUF3E2FPGXE","","<img src=""img/practice/S1.jpg"" width=""540"" height = ""360"">","null","","","","","","","",""
"null","","html-keyboard-response","13","908651","0.0-2.0-2.3","30LB5CDZNDW8GCN129HAVRSVBO90Z4","A1HFY6TQD2GBZA","3R5LWXWHR0UE010DORDQUF3E2FPGXE","","","null","","","","","","","",""
"341.59999990463257","","image-keyboard-response","14","908993","0.0-2.0-0.4","30LB5CDZNDW8GCN129HAVRSVBO90Z4","A1HFY6TQD2GBZA","3R5LWXWHR0UE010DORDQUF3E2FPGXE","","img/practice/S3.jpg","74","3","practice","72","false","","","",""
"null","","html-keyboard-response","15","909294","0.0-2.0-1.4","30LB5CDZNDW8GCN129HAVRSVBO90Z4","A1HFY6TQD2GBZA","3R5LWXWHR0UE010DORDQUF3E2FPGXE","","<img src=""img/practice/S3.jpg"" width=""540"" height = ""360"">","null","","","","","","","",""
"null","","html-keyboard-response","16","909296","0.0-2.0-2.4","30LB5CDZNDW8GCN129HAVRSVBO90Z4","A1HFY6TQD2GBZA","3R5LWXWHR0UE010DORDQUF3E2FPGXE","","","null","","","","","","","",""
"377.89999997615814","","image-keyboard-response","17","909675","0.0-2.0-0.5","30LB5CDZNDW8GCN129HAVRSVBO90Z4","A1HFY6TQD2GBZA","3R5LWXWHR0UE010DORDQUF3E2FPGXE","","img/practice/S4.jpg","83","4","practice","74","false","","","",""
"null","","html-keyboard-response","18","909977","0.0-2.0-1.5","30LB5CDZNDW8GCN129HAVRSVBO90Z4","A1HFY6TQD2GBZA","3R5LWXWHR0UE010DORDQUF3E2FPGXE","","<img src=""img/practice/S4.jpg"" width=""540"" height = ""360"">","null","","","","","","","",""
"null","","html-keyboard-response","19","909980","0.0-2.0-2.5","30LB5CDZNDW8GCN129HAVRSVBO90Z4","A1HFY6TQD2GBZA","3R5LWXWHR0UE010DORDQUF3E2FPGXE","","","null","","","","","","","",""
"375.2000000476837","","image-keyboard-response","20","910356","0.0-2.0-0.6","30LB5CDZNDW8GCN129HAVRSVBO90Z4","A1HFY6TQD2GBZA","3R5LWXWHR0UE010DORDQUF3E2FPGXE","","img/practice/S2.jpg","72","2","practice","68","false","","","",""
"null","","html-keyboard-response","21","910657","0.0-2.0-1.6","30LB5CDZNDW8GCN129HAVRSVBO90Z4","A1HFY6TQD2GBZA","3R5LWXWHR0UE010DORDQUF3E2FPGXE","","<img src=""img/practice/S2.jpg"" width=""540"" height = ""360"">","null","","","","","","","",""
"null","","html-keyboard-response","22","910659","0.0-2.0-2.6","30LB5CDZNDW8GCN129HAVRSVBO90Z4","A1HFY6TQD2GBZA","3R5LWXWHR0UE010DORDQUF3E2FPGXE","","","null","","","","","","","",""
"342.5","","image-keyboard-response","23","911002","0.0-2.0-0.7","30LB5CDZNDW8GCN129HAVRSVBO90Z4","A1HFY6TQD2GBZA","3R5LWXWHR0UE010DORDQUF3E2FPGXE","","img/practice/S1.jpg","68","1","practice","83","false","","","",""
"null","","html-keyboard-response","24","911304","0.0-2.0-1.7","30LB5CDZNDW8GCN129HAVRSVBO90Z4","A1HFY6TQD2GBZA","3R5LWXWHR0UE010DORDQUF3E2FPGXE","","<img src=""img/practice/S1.jpg"" width=""540"" height = ""360"">","null","","","","","","","",""
"null","","html-keyboard-response","25","911306","0.0-2.0-2.7","30LB5CDZNDW8GCN129HAVRSVBO90Z4","A1HFY6TQD2GBZA","3R5LWXWHR0UE010DORDQUF3E2FPGXE","","","null","","","","","","","",""
"272.7000000476837","","image-keyboard-response","26","911580","0.0-2.0-0.8","30LB5CDZNDW8GCN129HAVRSVBO90Z4","A1HFY6TQD2GBZA","3R5LWXWHR0UE010DORDQUF3E2FPGXE","","img/practice/S1.jpg","74","1","practice","83","false","","","",""
"null","","html-keyboard-response","27","911883","0.0-2.0-1.8","30LB5CDZNDW8GCN129HAVRSVBO90Z4","A1HFY6TQD2GBZA","3R5LWXWHR0UE010DORDQUF3E2FPGXE","","<img src=""img/practice/S1.jpg"" width=""540"" height = ""360"">","null","","","","","","","",""
"null","","html-keyboard-response","28","911885","0.0-2.0-2.8","30LB5CDZNDW8GCN129HAVRSVBO90Z4","A1HFY6TQD2GBZA","3R5LWXWHR0UE010DORDQUF3E2FPGXE","","","null","","","","","","","",""
"272.5","","image-keyboard-response","29","912158","0.0-2.0-0.9","30LB5CDZNDW8GCN129HAVRSVBO90Z4","A1HFY6TQD2GBZA","3R5LWXWHR0UE010DORDQUF3E2FPGXE","","img/practice/S3.jpg","83","3","practice","72","false","","","",""
"null","","html-keyboard-response","30","912459","0.0-2.0-1.9","30LB5CDZNDW8GCN129HAVRSVBO90Z4","A1HFY6TQD2GBZA","3R5LWXWHR0UE010DORDQUF3E2FPGXE","","<img src=""img/practice/S3.jpg"" width=""540"" height = ""360"">","null","","","","","","","",""
"null","","html-keyboard-response","31","912461","0.0-2.0-2.9","30LB5CDZNDW8GCN129HAVRSVBO90Z4","A1HFY6TQD2GBZA","3R5LWXWHR0UE010DORDQUF3E2FPGXE","","","null","","","","","","","",""
"261.3000000715256","","image-keyboard-response","32","912724","0.0-2.0-0.10","30LB5CDZNDW8GCN129HAVRSVBO90Z4","A1HFY6TQD2GBZA","3R5LWXWHR0UE010DORDQUF3E2FPGXE","","img/practice/S2.jpg","72","2","practice","68","false","","","",""
"null","","html-keyboard-response","33","913025","0.0-2.0-1.10","30LB5CDZNDW8GCN129HAVRSVBO90Z4","A1HFY6TQD2GBZA","3R5LWXWHR0UE010DORDQUF3E2FPGXE","","<img src=""img/practice/S2.jpg"" width=""540"" height = ""360"">","null","","","","","","","",""
"null","","html-keyboard-response","34","913027","0.0-2.0-2.10","30LB5CDZNDW8GCN129HAVRSVBO90Z4","A1HFY6TQD2GBZA","3R5LWXWHR0UE010DORDQUF3E2FPGXE","","","null","","","","","","","",""
"254.79999995231628","","image-keyboard-response","35","913282","0.0-2.0-0.11","30LB5CDZNDW8GCN129HAVRSVBO90Z4","A1HFY6TQD2GBZA","3R5LWXWHR0UE010DORDQUF3E2FPGXE","","img/practice/S4.jpg","68","4","practice","74","false","","","",""
"null","","html-keyboard-response","36","913583","0.0-2.0-1.11","30LB5CDZNDW8GCN129HAVRSVBO90Z4","A1HFY6TQD2GBZA","3R5LWXWHR0UE010DORDQUF3E2FPGXE","","<img src=""img/practice/S4.jpg"" width=""540"" height = ""360"">","null","","","","","","","",""
"null","","html-keyboard-response","37","913585","0.0-2.0-2.11","30LB5CDZNDW8GCN129HAVRSVBO90Z4","A1HFY6TQD2GBZA","3R5LWXWHR0UE010DORDQUF3E2FPGXE","","","null","","","","","","","",""
"685.7000000476837","","image-keyboard-response","38","914272","0.0-2.0-0.12","30LB5CDZNDW8GCN129HAVRSVBO90Z4","A1HFY6TQD2GBZA","3R5LWXWHR0UE010DORDQUF3E2FPGXE","","img/practice/S4.jpg","74","4","practice","74","true","","","",""
"null","","html-keyboard-response","39","914585","0.0-2.0-1.12","30LB5CDZNDW8GCN129HAVRSVBO90Z4","A1HFY6TQD2GBZA","3R5LWXWHR0UE010DORDQUF3E2FPGXE","","<img src=""img/practice/S4.jpg"" width=""540"" height = ""360"" style=""border:16px solid orange"">","null","","","","","","","",""
"null","","html-keyboard-response","40","914587","0.0-2.0-2.12","30LB5CDZNDW8GCN129HAVRSVBO90Z4","A1HFY6TQD2GBZA","3R5LWXWHR0UE010DORDQUF3E2FPGXE","","","null","","","","","","","",""
"1352.5","","image-keyboard-response","41","915940","0.0-2.0-0.13","30LB5CDZNDW8GCN129HAVRSVBO90Z4","A1HFY6TQD2GBZA","3R5LWXWHR0UE010DORDQUF3E2FPGXE","","img/practice/S1.jpg","83","1","practice","83","true","","","",""
"null","","html-keyboard-response","42","916241","0.0-2.0-1.13","30LB5CDZNDW8GCN129HAVRSVBO90Z4","A1HFY6TQD2GBZA","3R5LWXWHR0UE010DORDQUF3E2FPGXE","","<img src=""img/practice/S1.jpg"" width=""540"" height = ""360"" style=""border:16px solid orange"">","null","","","","","","","",""
"null","","html-keyboard-response","43","916243","0.0-2.0-2.13","30LB5CDZNDW8GCN129HAVRSVBO90Z4","A1HFY6TQD2GBZA","3R5LWXWHR0UE010DORDQUF3E2FPGXE","","","null","","","","","","","",""
"309.2000000476837","","image-keyboard-response","44","916552","0.0-2.0-0.14","30LB5CDZNDW8GCN129HAVRSVBO90Z4","A1HFY6TQD2GBZA","3R5LWXWHR0UE010DORDQUF3E2FPGXE","","img/practice/S2.jpg","72","2","practice","68","false","","","",""
"null","","html-keyboard-response","45","916858","0.0-2.0-1.14","30LB5CDZNDW8GCN129HAVRSVBO90Z4","A1HFY6TQD2GBZA","3R5LWXWHR0UE010DORDQUF3E2FPGXE","","<img src=""img/practice/S2.jpg"" width=""540"" height = ""360"">","null","","","","","","","",""
"null","","html-keyboard-response","46","916861","0.0-2.0-2.14","30LB5CDZNDW8GCN129HAVRSVBO90Z4","A1HFY6TQD2GBZA","3R5LWXWHR0UE010DORDQUF3E2FPGXE","","","null","","","","","","","",""
"388.60000002384186","","image-keyboard-response","47","917250","0.0-2.0-0.15","30LB5CDZNDW8GCN129HAVRSVBO90Z4","A1HFY6TQD2GBZA","3R5LWXWHR0UE010DORDQUF3E2FPGXE","","img/practice/S3.jpg","83","3","practice","72","false","","","",""
"null","","html-keyboard-response","48","917551","0.0-2.0-1.15","30LB5CDZNDW8GCN129HAVRSVBO90Z4","A1HFY6TQD2GBZA","3R5LWXWHR0UE010DORDQUF3E2FPGXE","","<img src=""img/practice/S3.jpg"" width=""540"" height = ""360"">","null","","","","","","","",""
"null","","html-keyboard-response","49","917553","0.0-2.0-2.15","30LB5CDZNDW8GCN129HAVRSVBO90Z4","A1HFY6TQD2GBZA","3R5LWXWHR0UE010DORDQUF3E2FPGXE","","","null","","","","","","","",""
"276.8000000715256","","image-keyboard-response","50","917831","0.0-2.0-0.16","30LB5CDZNDW8GCN129HAVRSVBO90Z4","A1HFY6TQD2GBZA","3R5LWXWHR0UE010DORDQUF3E2FPGXE","","img/practice/S1.jpg","74","1","practice","83","false","","","",""
"null","","html-keyboard-response","51","918132","0.0-2.0-1.16","30LB5CDZNDW8GCN129HAVRSVBO90Z4","A1HFY6TQD2GBZA","3R5LWXWHR0UE010DORDQUF3E2FPGXE","","<img src=""img/practice/S1.jpg"" width=""540"" height = ""360"">","null","","","","","","","",""
"null","","html-keyboard-response","52","918134","0.0-2.0-2.16","30LB5CDZNDW8GCN129HAVRSVBO90Z4","A1HFY6TQD2GBZA","3R5LWXWHR0UE010DORDQUF3E2FPGXE","","","null","","","","","","","",""
"256.7000000476837","","image-keyboard-response","53","918391","0.0-2.0-0.17","30LB5CDZNDW8GCN129HAVRSVBO90Z4","A1HFY6TQD2GBZA","3R5LWXWHR0UE010DORDQUF3E2FPGXE","","img/practice/S4.jpg","68","4","practice","74","false","","","",""
"null","","html-keyboard-response","54","918695","0.0-2.0-1.17","30LB5CDZNDW8GCN129HAVRSVBO90Z4","A1HFY6TQD2GBZA","3R5LWXWHR0UE010DORDQUF3E2FPGXE","","<img src=""img/practice/S4.jpg"" width=""540"" height = ""360"">","null","","","","","","","",""
"null","","html-keyboard-response","55","918697","0.0-2.0-2.17","30LB5CDZNDW8GCN129HAVRSVBO90Z4","A1HFY6TQD2GBZA","3R5LWXWHR0UE010DORDQUF3E2FPGXE","","","null","","","","","","","",""
"289.39999997615814","","image-keyboard-response","56","918987","0.0-2.0-0.18","30LB5CDZNDW8GCN129HAVRSVBO90Z4","A1HFY6TQD2GBZA","3R5LWXWHR0UE010DORDQUF3E2FPGXE","","img/practice/S3.jpg","83","3","practice","72","false","","","",""
"null","","html-keyboard-response","57","919288","0.0-2.0-1.18","30LB5CDZNDW8GCN129HAVRSVBO90Z4","A1HFY6TQD2GBZA","3R5LWXWHR0UE010DORDQUF3E2FPGXE","","<img src=""img/practice/S3.jpg"" width=""540"" height = ""360"">","null","","","","","","","",""
"null","","html-keyboard-response","58","919291","0.0-2.0-2.18","30LB5CDZNDW8GCN129HAVRSVBO90Z4","A1HFY6TQD2GBZA","3R5LWXWHR0UE010DORDQUF3E2FPGXE","","","null","","","","","","","",""
"259.39999997615814","","image-keyboard-response","59","919550","0.0-2.0-0.19","30LB5CDZNDW8GCN129HAVRSVBO90Z4","A1HFY6TQD2GBZA","3R5LWXWHR0UE010DORDQUF3E2FPGXE","","img/practice/S2.jpg","72","2","practice","68","false","","","",""
"null","","html-keyboard-response","60","919851","0.0-2.0-1.19","30LB5CDZNDW8GCN129HAVRSVBO90Z4","A1HFY6TQD2GBZA","3R5LWXWHR0UE010DORDQUF3E2FPGXE","","<img src=""img/practice/S2.jpg"" width=""540"" height = ""360"">","null","","","","","","","",""
"null","","html-keyboard-response","61","919853","0.0-2.0-2.19","30LB5CDZNDW8GCN129HAVRSVBO90Z4","A1HFY6TQD2GBZA","3R5LWXWHR0UE010DORDQUF3E2FPGXE","","","null","","","","","","","",""
"274.59999990463257","","image-keyboard-response","62","920128","0.0-2.0-0.20","30LB5CDZNDW8GCN129HAVRSVBO90Z4","A1HFY6TQD2GBZA","3R5LWXWHR0UE010DORDQUF3E2FPGXE","","img/practice/S3.jpg","74","3","practice","72","false","","","",""
"null","","html-keyboard-response","63","920430","0.0-2.0-1.20","30LB5CDZNDW8GCN129HAVRSVBO90Z4","A1HFY6TQD2GBZA","3R5LWXWHR0UE010DORDQUF3E2FPGXE","","<img src=""img/practice/S3.jpg"" width=""540"" height = ""360"">","null","","","","","","","",""
"null","","html-keyboard-response","64","920432","0.0-2.0-2.20","30LB5CDZNDW8GCN129HAVRSVBO90Z4","A1HFY6TQD2GBZA","3R5LWXWHR0UE010DORDQUF3E2FPGXE","","","null","","","","","","","",""
"1091.3999999761581","","image-keyboard-response","65","921524","0.0-2.0-0.21","30LB5CDZNDW8GCN129HAVRSVBO90Z4","A1HFY6TQD2GBZA","3R5LWXWHR0UE010DORDQUF3E2FPGXE","","img/practice/S1.jpg","83","1","practice","83","true","","","",""
"null","","html-keyboard-response","66","921825","0.0-2.0-1.21","30LB5CDZNDW8GCN129HAVRSVBO90Z4","A1HFY6TQD2GBZA","3R5LWXWHR0UE010DORDQUF3E2FPGXE","","<img src=""img/practice/S1.jpg"" width=""540"" height = ""360"" style=""border:16px solid orange"">","null","","","","","","","",""
"null","","html-keyboard-response","67","921827","0.0-2.0-2.21","30LB5CDZNDW8GCN129HAVRSVBO90Z4","A1HFY6TQD2GBZA","3R5LWXWHR0UE010DORDQUF3E2FPGXE","","","null","","","","","","","",""
"1706.7000000476837","","image-keyboard-response","68","923534","0.0-2.0-0.22","30LB5CDZNDW8GCN129HAVRSVBO90Z4","A1HFY6TQD2GBZA","3R5LWXWHR0UE010DORDQUF3E2FPGXE","","img/practice/S4.jpg","74","4","practice","74","true","","","",""
"null","","html-keyboard-response","69","923837","0.0-2.0-1.22","30LB5CDZNDW8GCN129HAVRSVBO90Z4","A1HFY6TQD2GBZA","3R5LWXWHR0UE010DORDQUF3E2FPGXE","","<img src=""img/practice/S4.jpg"" width=""540"" height = ""360"" style=""border:16px solid orange"">","null","","","","","","","",""
"null","","html-keyboard-response","70","923843","0.0-2.0-2.22","30LB5CDZNDW8GCN129HAVRSVBO90Z4","A1HFY6TQD2GBZA","3R5LWXWHR0UE010DORDQUF3E2FPGXE","","","null","","","","","","","",""
"863.2000000476837","","image-keyboard-response","71","924707","0.0-2.0-0.23","30LB5CDZNDW8GCN129HAVRSVBO90Z4","A1HFY6TQD2GBZA","3R5LWXWHR0UE010DORDQUF3E2FPGXE","","img/practice/S2.jpg","68","2","practice","68","true","","","",""
"null","","html-keyboard-response","72","925008","0.0-2.0-1.23","30LB5CDZNDW8GCN129HAVRSVBO90Z4","A1HFY6TQD2GBZA","3R5LWXWHR0UE010DORDQUF3E2FPGXE","","<img src=""img/practice/S2.jpg"" width=""540"" height = ""360"" style=""border:16px solid orange"">","null","","","","","","","",""
"null","","html-keyboard-response","73","925010","0.0-2.0-2.23","30LB5CDZNDW8GCN129HAVRSVBO90Z4","A1HFY6TQD2GBZA","3R5LWXWHR0UE010DORDQUF3E2FPGXE","","","null","","","","","","","",""
"4116.399999976158","","instructions","74","929127","0.0-3.0","30LB5CDZNDW8GCN129HAVRSVBO90Z4","A1HFY6TQD2GBZA","3R5LWXWHR0UE010DORDQUF3E2FPGXE","[{""page_index"":0,""viewing_time"":4116.300000071526}]","","","","","","","","","",""
"18915.099999904633","","instructions","75","948042","0.0-4.0","30LB5CDZNDW8GCN129HAVRSVBO90Z4","A1HFY6TQD2GBZA","3R5LWXWHR0UE010DORDQUF3E2FPGXE","[{""page_index"":0,""viewing_time"":18914.899999976158}]","","","","","","","","","",""
"1065.6999999284744","","instructions","76","949108","0.0-5.0","30LB5CDZNDW8GCN129HAVRSVBO90Z4","A1HFY6TQD2GBZA","3R5LWXWHR0UE010DORDQUF3E2FPGXE","[{""page_index"":0,""viewing_time"":1065.5}]","","","","","","","","","",""
"1783.8999999761581","","image-keyboard-response","77","950893","0.0-6.0","30LB5CDZNDW8GCN129HAVRSVBO90Z4","A1HFY6TQD2GBZA","3R5LWXWHR0UE010DORDQUF3E2FPGXE","","img/set1/S2.jpg","83","2","random","68","false","random,structured_incentive,structured_normal","1,2,2,3","",""
"null","","html-keyboard-response","78","951248","0.0-7.0","30LB5CDZNDW8GCN129HAVRSVBO90Z4","A1HFY6TQD2GBZA","3R5LWXWHR0UE010DORDQUF3E2FPGXE","","<img src=""img/set1/S2.jpg"" width=""540"" height = ""360"">","null","","","","","","","",""
"null","","html-keyboard-response","79","951250","0.0-8.0","30LB5CDZNDW8GCN129HAVRSVBO90Z4","A1HFY6TQD2GBZA","3R5LWXWHR0UE010DORDQUF3E2FPGXE","","","null","","","","","","","",""
"1121.3999999761581","","image-keyboard-response","80","952373","0.0-9.0","30LB5CDZNDW8GCN129HAVRSVBO90Z4","A1HFY6TQD2GBZA","3R5LWXWHR0UE010DORDQUF3E2FPGXE","","img/set1/S4.jpg","68","4","random","74","false","random,structured_incentive,structured_normal","1,2,2,3","",""
"null","","html-keyboard-response","81","952724","0.0-10.0","30LB5CDZNDW8GCN129HAVRSVBO90Z4","A1HFY6TQD2GBZA","3R5LWXWHR0UE010DORDQUF3E2FPGXE","","<img src=""img/set1/S4.jpg"" width=""540"" height = ""360"">","null","","","","","","","",""
"null","","html-keyboard-response","82","952726","0.0-11.0","30LB5CDZNDW8GCN129HAVRSVBO90Z4","A1HFY6TQD2GBZA","3R5LWXWHR0UE010DORDQUF3E2FPGXE","","","null","","","","","","","",""
"599.4000000953674","","image-keyboard-response","83","953326","0.0-12.0","30LB5CDZNDW8GCN129HAVRSVBO90Z4","A1HFY6TQD2GBZA","3R5LWXWHR0UE010DORDQUF3E2FPGXE","","img/set1/S1.jpg","72","1","random","83","false","random,structured_incentive,structured_normal","1,2,2,3","",""
"null","","html-keyboard-response","84","953678","0.0-13.0","30LB5CDZNDW8GCN129HAVRSVBO90Z4","A1HFY6TQD2GBZA","3R5LWXWHR0UE010DORDQUF3E2FPGXE","","<img src=""img/set1/S1.jpg"" width=""540"" height = ""360"">","null","","","","","","","",""
"null","","html-keyboard-response","85","953679","0.0-14.0","30LB5CDZNDW8GCN129HAVRSVBO90Z4","A1HFY6TQD2GBZA","3R5LWXWHR0UE010DORDQUF3E2FPGXE","","","null","","","","","","","",""
"430.7999999523163","","image-keyboard-response","86","954111","0.0-15.0","30LB5CDZNDW8GCN129HAVRSVBO90Z4","A1HFY6TQD2GBZA","3R5LWXWHR0UE010DORDQUF3E2FPGXE","","img/set1/S1.jpg","74","1","random","83","false","random,structured_incentive,structured_normal","1,2,2,3","",""
"null","","html-keyboard-response","87","954462","0.0-16.0","30LB5CDZNDW8GCN129HAVRSVBO90Z4","A1HFY6TQD2GBZA","3R5LWXWHR0UE010DORDQUF3E2FPGXE","","<img src=""img/set1/S1.jpg"" width=""540"" height = ""360"">","null","","","","","","","",""
"null","","html-keyboard-response","88","954464","0.0-17.0","30LB5CDZNDW8GCN129HAVRSVBO90Z4","A1HFY6TQD2GBZA","3R5LWXWHR0UE010DORDQUF3E2FPGXE","","","null","","","","","","","",""
"769.2999999523163","","image-keyboard-response","89","955234","0.0-18.0","30LB5CDZNDW8GCN129HAVRSVBO90Z4","A1HFY6TQD2GBZA","3R5LWXWHR0UE010DORDQUF3E2FPGXE","","img/set1/S1.jpg","72","1","random","83","false","random,structured_incentive,structured_normal","1,2,2,3","",""
"null","","html-keyboard-response","90","955587","0.0-19.0","30LB5CDZNDW8GCN129HAVRSVBO90Z4","A1HFY6TQD2GBZA","3R5LWXWHR0UE010DORDQUF3E2FPGXE","","<img src=""img/set1/S1.jpg"" width=""540"" height = ""360"">","null","","","","","","","",""
"null","","html-keyboard-response","91","955589","0.0-20.0","30LB5CDZNDW8GCN129HAVRSVBO90Z4","A1HFY6TQD2GBZA","3R5LWXWHR0UE010DORDQUF3E2FPGXE","","","null","","","","","","","",""
"632.1000000238419","","image-keyboard-response","92","956222","0.0-21.0","30LB5CDZNDW8GCN129HAVRSVBO90Z4","A1HFY6TQD2GBZA","3R5LWXWHR0UE010DORDQUF3E2FPGXE","","img/set1/S3.jpg","72","3","random","72","true","random,structured_incentive,structured_normal","1,2,2,3","",""
"null","","html-keyboard-response","93","956575","0.0-22.0","30LB5CDZNDW8GCN129HAVRSVBO90Z4","A1HFY6TQD2GBZA","3R5LWXWHR0UE010DORDQUF3E2FPGXE","","<img src=""img/set1/S3.jpg"" width=""540"" height = ""360"" style=""border:16px solid orange"">","null","","","","","","","",""
"null","","html-keyboard-response","94","956577","0.0-23.0","30LB5CDZNDW8GCN129HAVRSVBO90Z4","A1HFY6TQD2GBZA","3R5LWXWHR0UE010DORDQUF3E2FPGXE","","","null","","","","","","","",""
"2330.100000023842","","image-keyboard-response","95","958908","0.0-24.0","30LB5CDZNDW8GCN129HAVRSVBO90Z4","A1HFY6TQD2GBZA","3R5LWXWHR0UE010DORDQUF3E2FPGXE","","img/set1/S4.jpg","83","4","random","74","false","random,structured_incentive,structured_normal","1,2,2,3","",""
"null","","html-keyboard-response","96","959260","0.0-25.0","30LB5CDZNDW8GCN129HAVRSVBO90Z4","A1HFY6TQD2GBZA","3R5LWXWHR0UE010DORDQUF3E2FPGXE","","<img src=""img/set1/S4.jpg"" width=""540"" height = ""360"">","null","","","","","","","",""
"null","","html-keyboard-response","97","959263","0.0-26.0","30LB5CDZNDW8GCN129HAVRSVBO90Z4","A1HFY6TQD2GBZA","3R5LWXWHR0UE010DORDQUF3E2FPGXE","","","null","","","","","","","",""
"495.7999999523163","","image-keyboard-response","98","959759","0.0-27.0","30LB5CDZNDW8GCN129HAVRSVBO90Z4","A1HFY6TQD2GBZA","3R5LWXWHR0UE010DORDQUF3E2FPGXE","","img/set1/S2.jpg","68","2","random","68","true","random,structured_incentive,structured_normal","1,2,2,3","",""
"null","","html-keyboard-response","99","960111","0.0-28.0","30LB5CDZNDW8GCN129HAVRSVBO90Z4","A1HFY6TQD2GBZA","3R5LWXWHR0UE010DORDQUF3E2FPGXE","","<img src=""img/set1/S2.jpg"" width=""540"" height = ""360"" style=""border:16px solid orange"">","null","","","","","","","",""
"null","","html-keyboard-response","100","960113","0.0-29.0","30LB5CDZNDW8GCN129HAVRSVBO90Z4","A1HFY6TQD2GBZA","3R5LWXWHR0UE010DORDQUF3E2FPGXE","","","null","","","","","","","",""
"1212.0999999046326","","image-keyboard-response","101","961326","0.0-30.0","30LB5CDZNDW8GCN129HAVRSVBO90Z4","A1HFY6TQD2GBZA","3R5LWXWHR0UE010DORDQUF3E2FPGXE","","img/set1/S4.jpg","72","4","random","74","false","random,structured_incentive,structured_normal","1,2,2,3","",""
"null","","html-keyboard-response","102","961678","0.0-31.0","30LB5CDZNDW8GCN129HAVRSVBO90Z4","A1HFY6TQD2GBZA","3R5LWXWHR0UE010DORDQUF3E2FPGXE","","<img src=""img/set1/S4.jpg"" width=""540"" height = ""360"">","null","","","","","","","",""
"null","","html-keyboard-response","103","961680","0.0-32.0","30LB5CDZNDW8GCN129HAVRSVBO90Z4","A1HFY6TQD2GBZA","3R5LWXWHR0UE010DORDQUF3E2FPGXE","","","null","","","","","","","",""
"445.5","","image-keyboard-response","104","962127","0.0-33.0","30LB5CDZNDW8GCN129HAVRSVBO90Z4","A1HFY6TQD2GBZA","3R5LWXWHR0UE010DORDQUF3E2FPGXE","","img/set1/S1.jpg","74","1","random","83","false","random,structured_incentive,structured_normal","1,2,2,3","",""
"null","","html-keyboard-response","105","962478","0.0-34.0","30LB5CDZNDW8GCN129HAVRSVBO90Z4","A1HFY6TQD2GBZA","3R5LWXWHR0UE010DORDQUF3E2FPGXE","","<img src=""img/set1/S1.jpg"" width=""540"" height = ""360"">","null","","","","","","","",""
"null","","html-keyboard-response","106","962480","0.0-35.0","30LB5CDZNDW8GCN129HAVRSVBO90Z4","A1HFY6TQD2GBZA","3R5LWXWHR0UE010DORDQUF3E2FPGXE","","","null","","","","","","","",""
"648.1000000238419","","image-keyboard-response","107","963129","0.0-36.0","30LB5CDZNDW8GCN129HAVRSVBO90Z4","A1HFY6TQD2GBZA","3R5LWXWHR0UE010DORDQUF3E2FPGXE","","img/set1/S3.jpg","68","3","random","72","false","random,structured_incentive,structured_normal","1,2,2,3","",""
"null","","html-keyboard-response","108","963481","0.0-37.0","30LB5CDZNDW8GCN129HAVRSVBO90Z4","A1HFY6TQD2GBZA","3R5LWXWHR0UE010DORDQUF3E2FPGXE","","<img src=""img/set1/S3.jpg"" width=""540"" height = ""360"">","null","","","","","","","",""
"null","","html-keyboard-response","109","963483","0.0-38.0","30LB5CDZNDW8GCN129HAVRSVBO90Z4","A1HFY6TQD2GBZA","3R5LWXWHR0UE010DORDQUF3E2FPGXE","","","null","","","","","","","",""
"494.39999997615814","","image-keyboard-response","110","963978","0.0-39.0","30LB5CDZNDW8GCN129HAVRSVBO90Z4","A1HFY6TQD2GBZA","3R5LWXWHR0UE010DORDQUF3E2FPGXE","","img/set1/S1.jpg","72","1","random","83","false","random,structured_incentive,structured_normal","1,2,2,3","",""
"null","","html-keyboard-response","111","964330","0.0-40.0","30LB5CDZNDW8GCN129HAVRSVBO90Z4","A1HFY6TQD2GBZA","3R5LWXWHR0UE010DORDQUF3E2FPGXE","","<img src=""img/set1/S1.jpg"" width=""540"" height = ""360"">","null","","","","","","","",""
"null","","html-keyboard-response","112","964333","0.0-41.0","30LB5CDZNDW8GCN129HAVRSVBO90Z4","A1HFY6TQD2GBZA","3R5LWXWHR0UE010DORDQUF3E2FPGXE","","","null","","","","","","","",""
"497.7999999523163","","image-keyboard-response","113","964831","0.0-42.0","30LB5CDZNDW8GCN129HAVRSVBO90Z4","A1HFY6TQD2GBZA","3R5LWXWHR0UE010DORDQUF3E2FPGXE","","img/set1/S4.jpg","74","4","random","74","true","random,structured_incentive,structured_normal","1,2,2,3","",""
"null","","html-keyboard-response","114","965183","0.0-43.0","30LB5CDZNDW8GCN129HAVRSVBO90Z4","A1HFY6TQD2GBZA","3R5LWXWHR0UE010DORDQUF3E2FPGXE","","<img src=""img/set1/S4.jpg"" width=""540"" height = ""360"" style=""border:16px solid orange"">","null","","","","","","","",""
"null","","html-keyboard-response","115","965186","0.0-44.0","30LB5CDZNDW8GCN129HAVRSVBO90Z4","A1HFY6TQD2GBZA","3R5LWXWHR0UE010DORDQUF3E2FPGXE","","","null","","","","","","","",""
"2246.600000023842","","image-keyboard-response","116","967434","0.0-45.0","30LB5CDZNDW8GCN129HAVRSVBO90Z4","A1HFY6TQD2GBZA","3R5LWXWHR0UE010DORDQUF3E2FPGXE","","img/set1/S1.jpg","72","1","random","83","false","random,structured_incentive,structured_normal","1,2,2,3","",""
"null","","html-keyboard-response","117","967785","0.0-46.0","30LB5CDZNDW8GCN129HAVRSVBO90Z4","A1HFY6TQD2GBZA","3R5LWXWHR0UE010DORDQUF3E2FPGXE","","<img src=""img/set1/S1.jpg"" width=""540"" height = ""360"">","null","","","","","","","",""
"null","","html-keyboard-response","118","967787","0.0-47.0","30LB5CDZNDW8GCN129HAVRSVBO90Z4","A1HFY6TQD2GBZA","3R5LWXWHR0UE010DORDQUF3E2FPGXE","","","null","","","","","","","",""
"670","","image-keyboard-response","119","968458","0.0-48.0","30LB5CDZNDW8GCN129HAVRSVBO90Z4","A1HFY6TQD2GBZA","3R5LWXWHR0UE010DORDQUF3E2FPGXE","","img/set1/S2.jpg","83","2","random","68","false","random,structured_incentive,structured_normal","1,2,2,3","",""
"null","","html-keyboard-response","120","968810","0.0-49.0","30LB5CDZNDW8GCN129HAVRSVBO90Z4","A1HFY6TQD2GBZA","3R5LWXWHR0UE010DORDQUF3E2FPGXE","","<img src=""img/set1/S2.jpg"" width=""540"" height = ""360"">","null","","","","","","","",""
"null","","html-keyboard-response","121","968812","0.0-50.0","30LB5CDZNDW8GCN129HAVRSVBO90Z4","A1HFY6TQD2GBZA","3R5LWXWHR0UE010DORDQUF3E2FPGXE","","","null","","","","","","","",""
"375.40000009536743","","image-keyboard-response","122","969188","0.0-51.0","30LB5CDZNDW8GCN129HAVRSVBO90Z4","A1HFY6TQD2GBZA","3R5LWXWHR0UE010DORDQUF3E2FPGXE","","img/set1/S1.jpg","68","1","random","83","false","random,structured_incentive,structured_normal","1,2,2,3","",""
"null","","html-keyboard-response","123","969540","0.0-52.0","30LB5CDZNDW8GCN129HAVRSVBO90Z4","A1HFY6TQD2GBZA","3R5LWXWHR0UE010DORDQUF3E2FPGXE","","<img src=""img/set1/S1.jpg"" width=""540"" height = ""360"">","null","","","","","","","",""
"null","","html-keyboard-response","124","969542","0.0-53.0","30LB5CDZNDW8GCN129HAVRSVBO90Z4","A1HFY6TQD2GBZA","3R5LWXWHR0UE010DORDQUF3E2FPGXE","","","null","","","","","","","",""
"464.3000000715256","","image-keyboard-response","125","970006","0.0-54.0","30LB5CDZNDW8GCN129HAVRSVBO90Z4","A1HFY6TQD2GBZA","3R5LWXWHR0UE010DORDQUF3E2FPGXE","","img/set1/S2.jpg","68","2","random","68","true","random,structured_incentive,structured_normal","1,2,2,3","",""
"null","","html-keyboard-response","126","970357","0.0-55.0","30LB5CDZNDW8GCN129HAVRSVBO90Z4","A1HFY6TQD2GBZA","3R5LWXWHR0UE010DORDQUF3E2FPGXE","","<img src=""img/set1/S2.jpg"" width=""540"" height = ""360"" style=""border:16px solid orange"">","null","","","","","","","",""
"null","","html-keyboard-response","127","970359","0.0-56.0","30LB5CDZNDW8GCN129HAVRSVBO90Z4","A1HFY6TQD2GBZA","3R5LWXWHR0UE010DORDQUF3E2FPGXE","","","null","","","","","","","",""
"null","","image-keyboard-response","128","972861","0.0-57.0","30LB5CDZNDW8GCN129HAVRSVBO90Z4","A1HFY6TQD2GBZA","3R5LWXWHR0UE010DORDQUF3E2FPGXE","","img/set1/S4.jpg","null","4","random","74","false","random,structured_incentive,structured_normal","1,2,2,3","",""
"null","","html-keyboard-response","129","973212","0.0-58.0","30LB5CDZNDW8GCN129HAVRSVBO90Z4","A1HFY6TQD2GBZA","3R5LWXWHR0UE010DORDQUF3E2FPGXE","","<img src=""img/set1/S4.jpg"" width=""540"" height = ""360"">","null","","","","","","","",""
"null","","html-keyboard-response","130","973217","0.0-59.0","30LB5CDZNDW8GCN129HAVRSVBO90Z4","A1HFY6TQD2GBZA","3R5LWXWHR0UE010DORDQUF3E2FPGXE","","","null","","","","","","","",""
"296.3000000715256","","image-keyboard-response","131","973514","0.0-60.0","30LB5CDZNDW8GCN129HAVRSVBO90Z4","A1HFY6TQD2GBZA","3R5LWXWHR0UE010DORDQUF3E2FPGXE","","img/set1/S3.jpg","72","3","random","72","true","random,structured_incentive,structured_normal","1,2,2,3","",""
"null","","html-keyboard-response","132","973866","0.0-61.0","30LB5CDZNDW8GCN129HAVRSVBO90Z4","A1HFY6TQD2GBZA","3R5LWXWHR0UE010DORDQUF3E2FPGXE","","<img src=""img/set1/S3.jpg"" width=""540"" height = ""360"" style=""border:16px solid orange"">","null","","","","","","","",""
"null","","html-keyboard-response","133","973868","0.0-62.0","30LB5CDZNDW8GCN129HAVRSVBO90Z4","A1HFY6TQD2GBZA","3R5LWXWHR0UE010DORDQUF3E2FPGXE","","","null","","","","","","","",""
"393.8000000715256","","image-keyboard-response","134","974262","0.0-63.0","30LB5CDZNDW8GCN129HAVRSVBO90Z4","A1HFY6TQD2GBZA","3R5LWXWHR0UE010DORDQUF3E2FPGXE","","img/set1/S4.jpg","74","4","random","74","true","random,structured_incentive,structured_normal","1,2,2,3","",""
"null","","html-keyboard-response","135","974614","0.0-64.0","30LB5CDZNDW8GCN129HAVRSVBO90Z4","A1HFY6TQD2GBZA","3R5LWXWHR0UE010DORDQUF3E2FPGXE","","<img src=""img/set1/S4.jpg"" width=""540"" height = ""360"" style=""border:16px solid orange"">","null","","","","","","","",""
"null","","html-keyboard-response","136","974616","0.0-65.0","30LB5CDZNDW8GCN129HAVRSVBO90Z4","A1HFY6TQD2GBZA","3R5LWXWHR0UE010DORDQUF3E2FPGXE","","","null","","","","","","","",""
"342.5","","image-keyboard-response","137","974959","0.0-66.0","30LB5CDZNDW8GCN129HAVRSVBO90Z4","A1HFY6TQD2GBZA","3R5LWXWHR0UE010DORDQUF3E2FPGXE","","img/set1/S3.jpg","72","3","random","72","true","random,structured_incentive,structured_normal","1,2,2,3","",""
"null","","html-keyboard-response","138","975310","0.0-67.0","30LB5CDZNDW8GCN129HAVRSVBO90Z4","A1HFY6TQD2GBZA","3R5LWXWHR0UE010DORDQUF3E2FPGXE","","<img src=""img/set1/S3.jpg"" width=""540"" height = ""360"" style=""border:16px solid orange"">","null","","","","","","","",""
"null","","html-keyboard-response","139","975312","0.0-68.0","30LB5CDZNDW8GCN129HAVRSVBO90Z4","A1HFY6TQD2GBZA","3R5LWXWHR0UE010DORDQUF3E2FPGXE","","","null","","","","","","","",""
"514.1000000238419","","image-keyboard-response","140","975827","0.0-69.0","30LB5CDZNDW8GCN129HAVRSVBO90Z4","A1HFY6TQD2GBZA","3R5LWXWHR0UE010DORDQUF3E2FPGXE","","img/set1/S4.jpg","74","4","random","74","true","random,structured_incentive,structured_normal","1,2,2,3","",""
"null","","html-keyboard-response","141","976179","0.0-70.0","30LB5CDZNDW8GCN129HAVRSVBO90Z4","A1HFY6TQD2GBZA","3R5LWXWHR0UE010DORDQUF3E2FPGXE","","<img src=""img/set1/S4.jpg"" width=""540"" height = ""360"" style=""border:16px solid orange"">","null","","","","","","","",""
"null","","html-keyboard-response","142","976181","0.0-71.0","30LB5CDZNDW8GCN129HAVRSVBO90Z4","A1HFY6TQD2GBZA","3R5LWXWHR0UE010DORDQUF3E2FPGXE","","","null","","","","","","","",""
"344.2000000476837","","image-keyboard-response","143","976525","0.0-72.0","30LB5CDZNDW8GCN129HAVRSVBO90Z4","A1HFY6TQD2GBZA","3R5LWXWHR0UE010DORDQUF3E2FPGXE","","img/set1/S4.jpg","72","4","random","74","false","random,structured_incentive,structured_normal","1,2,2,3","",""
"null","","html-keyboard-response","144","976877","0.0-73.0","30LB5CDZNDW8GCN129HAVRSVBO90Z4","A1HFY6TQD2GBZA","3R5LWXWHR0UE010DORDQUF3E2FPGXE","","<img src=""img/set1/S4.jpg"" width=""540"" height = ""360"">","null","","","","","","","",""
"null","","html-keyboard-response","145","976880","0.0-74.0","30LB5CDZNDW8GCN129HAVRSVBO90Z4","A1HFY6TQD2GBZA","3R5LWXWHR0UE010DORDQUF3E2FPGXE","","","null","","","","","","","",""
"341.60000002384186","","image-keyboard-response","146","977222","0.0-75.0","30LB5CDZNDW8GCN129HAVRSVBO90Z4","A1HFY6TQD2GBZA","3R5LWXWHR0UE010DORDQUF3E2FPGXE","","img/set1/S4.jpg","74","4","random","74","true","random,structured_incentive,structured_normal","1,2,2,3","",""
"null","","html-keyboard-response","147","977574","0.0-76.0","30LB5CDZNDW8GCN129HAVRSVBO90Z4","A1HFY6TQD2GBZA","3R5LWXWHR0UE010DORDQUF3E2FPGXE","","<img src=""img/set1/S4.jpg"" width=""540"" height = ""360"" style=""border:16px solid orange"">","null","","","","","","","",""
"null","","html-keyboard-response","148","977575","0.0-77.0","30LB5CDZNDW8GCN129HAVRSVBO90Z4","A1HFY6TQD2GBZA","3R5LWXWHR0UE010DORDQUF3E2FPGXE","","","null","","","","","","","",""
"344.5","","image-keyboard-response","149","977920","0.0-78.0","30LB5CDZNDW8GCN129HAVRSVBO90Z4","A1HFY6TQD2GBZA","3R5LWXWHR0UE010DORDQUF3E2FPGXE","","img/set1/S2.jpg","72","2","random","68","false","random,structured_incentive,structured_normal","1,2,2,3","",""
"null","","html-keyboard-response","150","978271","0.0-79.0","30LB5CDZNDW8GCN129HAVRSVBO90Z4","A1HFY6TQD2GBZA","3R5LWXWHR0UE010DORDQUF3E2FPGXE","","<img src=""img/set1/S2.jpg"" width=""540"" height = ""360"">","null","","","","","","","",""
"null","","html-keyboard-response","151","978273","0.0-80.0","30LB5CDZNDW8GCN129HAVRSVBO90Z4","A1HFY6TQD2GBZA","3R5LWXWHR0UE010DORDQUF3E2FPGXE","","","null","","","","","","","",""
"309.10000002384186","","image-keyboard-response","152","978583","0.0-81.0","30LB5CDZNDW8GCN129HAVRSVBO90Z4","A1HFY6TQD2GBZA","3R5LWXWHR0UE010DORDQUF3E2FPGXE","","img/set1/S3.jpg","74","3","random","72","false","random,structured_incentive,structured_normal","1,2,2,3","",""
"null","","html-keyboard-response","153","978935","0.0-82.0","30LB5CDZNDW8GCN129HAVRSVBO90Z4","A1HFY6TQD2GBZA","3R5LWXWHR0UE010DORDQUF3E2FPGXE","","<img src=""img/set1/S3.jpg"" width=""540"" height = ""360"">","null","","","","","","","",""
"null","","html-keyboard-response","154","978937","0.0-83.0","30LB5CDZNDW8GCN129HAVRSVBO90Z4","A1HFY6TQD2GBZA","3R5LWXWHR0UE010DORDQUF3E2FPGXE","","","null","","","","","","","",""
"326.3000000715256","","image-keyboard-response","155","979264","0.0-84.0","30LB5CDZNDW8GCN129HAVRSVBO90Z4","A1HFY6TQD2GBZA","3R5LWXWHR0UE010DORDQUF3E2FPGXE","","img/set1/S3.jpg","72","3","random","72","true","random,structured_incentive,structured_normal","1,2,2,3","",""
"null","","html-keyboard-response","156","979616","0.0-85.0","30LB5CDZNDW8GCN129HAVRSVBO90Z4","A1HFY6TQD2GBZA","3R5LWXWHR0UE010DORDQUF3E2FPGXE","","<img src=""img/set1/S3.jpg"" width=""540"" height = ""360"" style=""border:16px solid orange"">","null","","","","","","","",""
"null","","html-keyboard-response","157","979618","0.0-86.0","30LB5CDZNDW8GCN129HAVRSVBO90Z4","A1HFY6TQD2GBZA","3R5LWXWHR0UE010DORDQUF3E2FPGXE","","","null","","","","","","","",""
"343.60000002384186","","image-keyboard-response","158","979962","0.0-87.0","30LB5CDZNDW8GCN129HAVRSVBO90Z4","A1HFY6TQD2GBZA","3R5LWXWHR0UE010DORDQUF3E2FPGXE","","img/set1/S1.jpg","74","1","random","83","false","random,structured_incentive,structured_normal","1,2,2,3","",""
"null","","html-keyboard-response","159","980328","0.0-88.0","30LB5CDZNDW8GCN129HAVRSVBO90Z4","A1HFY6TQD2GBZA","3R5LWXWHR0UE010DORDQUF3E2FPGXE","","<img src=""img/set1/S1.jpg"" width=""540"" height = ""360"">","null","","","","","","","",""
"null","","html-keyboard-response","160","980331","0.0-89.0","30LB5CDZNDW8GCN129HAVRSVBO90Z4","A1HFY6TQD2GBZA","3R5LWXWHR0UE010DORDQUF3E2FPGXE","","","null","","","","","","","",""
"413.3000000715256","","image-keyboard-response","161","980744","0.0-90.0","30LB5CDZNDW8GCN129HAVRSVBO90Z4","A1HFY6TQD2GBZA","3R5LWXWHR0UE010DORDQUF3E2FPGXE","","img/set1/S4.jpg","72","4","random","74","false","random,structured_incentive,structured_normal","1,2,2,3","",""
"null","","html-keyboard-response","162","981096","0.0-91.0","30LB5CDZNDW8GCN129HAVRSVBO90Z4","A1HFY6TQD2GBZA","3R5LWXWHR0UE010DORDQUF3E2FPGXE","","<img src=""img/set1/S4.jpg"" width=""540"" height = ""360"">","null","","","","","","","",""
"null","","html-keyboard-response","163","981097","0.0-92.0","30LB5CDZNDW8GCN129HAVRSVBO90Z4","A1HFY6TQD2GBZA","3R5LWXWHR0UE010DORDQUF3E2FPGXE","","","null","","","","","","","",""
"396.89999997615814","","image-keyboard-response","164","981495","0.0-93.0","30LB5CDZNDW8GCN129HAVRSVBO90Z4","A1HFY6TQD2GBZA","3R5LWXWHR0UE010DORDQUF3E2FPGXE","","img/set1/S3.jpg","83","3","random","72","false","random,structured_incentive,structured_normal","1,2,2,3","",""
"null","","html-keyboard-response","165","981846","0.0-94.0","30LB5CDZNDW8GCN129HAVRSVBO90Z4","A1HFY6TQD2GBZA","3R5LWXWHR0UE010DORDQUF3E2FPGXE","","<img src=""img/set1/S3.jpg"" width=""540"" height = ""360"">","null","","","","","","","",""
"null","","html-keyboard-response","166","981849","0.0-95.0","30LB5CDZNDW8GCN129HAVRSVBO90Z4","A1HFY6TQD2GBZA","3R5LWXWHR0UE010DORDQUF3E2FPGXE","","","null","","","","","","","",""
"426.2000000476837","","image-keyboard-response","167","982275","0.0-96.0","30LB5CDZNDW8GCN129HAVRSVBO90Z4","A1HFY6TQD2GBZA","3R5LWXWHR0UE010DORDQUF3E2FPGXE","","img/set1/S2.jpg","68","2","random","68","true","random,structured_incentive,structured_normal","1,2,2,3","",""
"null","","html-keyboard-response","168","982627","0.0-97.0","30LB5CDZNDW8GCN129HAVRSVBO90Z4","A1HFY6TQD2GBZA","3R5LWXWHR0UE010DORDQUF3E2FPGXE","","<img src=""img/set1/S2.jpg"" width=""540"" height = ""360"" style=""border:16px solid orange"">","null","","","","","","","",""
"null","","html-keyboard-response","169","982629","0.0-98.0","30LB5CDZNDW8GCN129HAVRSVBO90Z4","A1HFY6TQD2GBZA","3R5LWXWHR0UE010DORDQUF3E2FPGXE","","","null","","","","","","","",""
"445.8000000715256","","image-keyboard-response","170","983075","0.0-99.0","30LB5CDZNDW8GCN129HAVRSVBO90Z4","A1HFY6TQD2GBZA","3R5LWXWHR0UE010DORDQUF3E2FPGXE","","img/set1/S3.jpg","83","3","random","72","false","random,structured_incentive,structured_normal","1,2,2,3","",""
"null","","html-keyboard-response","171","983427","0.0-100.0","30LB5CDZNDW8GCN129HAVRSVBO90Z4","A1HFY6TQD2GBZA","3R5LWXWHR0UE010DORDQUF3E2FPGXE","","<img src=""img/set1/S3.jpg"" width=""540"" height = ""360"">","null","","","","","","","",""
"null","","html-keyboard-response","172","983429","0.0-101.0","30LB5CDZNDW8GCN129HAVRSVBO90Z4","A1HFY6TQD2GBZA","3R5LWXWHR0UE010DORDQUF3E2FPGXE","","","null","","","","","","","",""
"429.7000000476837","","image-keyboard-response","173","983859","0.0-102.0","30LB5CDZNDW8GCN129HAVRSVBO90Z4","A1HFY6TQD2GBZA","3R5LWXWHR0UE010DORDQUF3E2FPGXE","","img/set1/S3.jpg","83","3","random","72","false","random,structured_incentive,structured_normal","1,2,2,3","",""
"null","","html-keyboard-response","174","984211","0.0-103.0","30LB5CDZNDW8GCN129HAVRSVBO90Z4","A1HFY6TQD2GBZA","3R5LWXWHR0UE010DORDQUF3E2FPGXE","","<img src=""img/set1/S3.jpg"" width=""540"" height = ""360"">","null","","","","","","","",""
"null","","html-keyboard-response","175","984213","0.0-104.0","30LB5CDZNDW8GCN129HAVRSVBO90Z4","A1HFY6TQD2GBZA","3R5LWXWHR0UE010DORDQUF3E2FPGXE","","","null","","","","","","","",""
"667.3000000715256","","image-keyboard-response","176","984881","0.0-105.0","30LB5CDZNDW8GCN129HAVRSVBO90Z4","A1HFY6TQD2GBZA","3R5LWXWHR0UE010DORDQUF3E2FPGXE","","img/set1/S2.jpg","74","2","random","68","false","random,structured_incentive,structured_normal","1,2,2,3","",""
"null","","html-keyboard-response","177","985234","0.0-106.0","30LB5CDZNDW8GCN129HAVRSVBO90Z4","A1HFY6TQD2GBZA","3R5LWXWHR0UE010DORDQUF3E2FPGXE","","<img src=""img/set1/S2.jpg"" width=""540"" height = ""360"">","null","","","","","","","",""
"null","","html-keyboard-response","178","985236","0.0-107.0","30LB5CDZNDW8GCN129HAVRSVBO90Z4","A1HFY6TQD2GBZA","3R5LWXWHR0UE010DORDQUF3E2FPGXE","","","null","","","","","","","",""
"935.8999999761581","","image-keyboard-response","179","986173","0.0-108.0","30LB5CDZNDW8GCN129HAVRSVBO90Z4","A1HFY6TQD2GBZA","3R5LWXWHR0UE010DORDQUF3E2FPGXE","","img/set1/S4.jpg","72","4","random","74","false","random,structured_incentive,structured_normal","1,2,2,3","",""
"null","","html-keyboard-response","180","986524","0.0-109.0","30LB5CDZNDW8GCN129HAVRSVBO90Z4","A1HFY6TQD2GBZA","3R5LWXWHR0UE010DORDQUF3E2FPGXE","","<img src=""img/set1/S4.jpg"" width=""540"" height = ""360"">","null","","","","","","","",""
"null","","html-keyboard-response","181","986526","0.0-110.0","30LB5CDZNDW8GCN129HAVRSVBO90Z4","A1HFY6TQD2GBZA","3R5LWXWHR0UE010DORDQUF3E2FPGXE","","","null","","","","","","","",""
"448","","image-keyboard-response","182","986975","0.0-111.0","30LB5CDZNDW8GCN129HAVRSVBO90Z4","A1HFY6TQD2GBZA","3R5LWXWHR0UE010DORDQUF3E2FPGXE","","img/set1/S2.jpg","74","2","random","68","false","random,structured_incentive,structured_normal","1,2,2,3","",""
"null","","html-keyboard-response","183","987328","0.0-112.0","30LB5CDZNDW8GCN129HAVRSVBO90Z4","A1HFY6TQD2GBZA","3R5LWXWHR0UE010DORDQUF3E2FPGXE","","<img src=""img/set1/S2.jpg"" width=""540"" height = ""360"">","null","","","","","","","",""
"null","","html-keyboard-response","184","987330","0.0-113.0","30LB5CDZNDW8GCN129HAVRSVBO90Z4","A1HFY6TQD2GBZA","3R5LWXWHR0UE010DORDQUF3E2FPGXE","","","null","","","","","","","",""
"460.5","","image-keyboard-response","185","987791","0.0-114.0","30LB5CDZNDW8GCN129HAVRSVBO90Z4","A1HFY6TQD2GBZA","3R5LWXWHR0UE010DORDQUF3E2FPGXE","","img/set1/S3.jpg","72","3","random","72","true","random,structured_incentive,structured_normal","1,2,2,3","",""
"null","","html-keyboard-response","186","988142","0.0-115.0","30LB5CDZNDW8GCN129HAVRSVBO90Z4","A1HFY6TQD2GBZA","3R5LWXWHR0UE010DORDQUF3E2FPGXE","","<img src=""img/set1/S3.jpg"" width=""540"" height = ""360"" style=""border:16px solid orange"">","null","","","","","","","",""
"null","","html-keyboard-response","187","988144","0.0-116.0","30LB5CDZNDW8GCN129HAVRSVBO90Z4","A1HFY6TQD2GBZA","3R5LWXWHR0UE010DORDQUF3E2FPGXE","","","null","","","","","","","",""
"631.4000000953674","","image-keyboard-response","188","988776","0.0-117.0","30LB5CDZNDW8GCN129HAVRSVBO90Z4","A1HFY6TQD2GBZA","3R5LWXWHR0UE010DORDQUF3E2FPGXE","","img/set1/S3.jpg","72","3","random","72","true","random,structured_incentive,structured_normal","1,2,2,3","",""
"null","","html-keyboard-response","189","989128","0.0-118.0","30LB5CDZNDW8GCN129HAVRSVBO90Z4","A1HFY6TQD2GBZA","3R5LWXWHR0UE010DORDQUF3E2FPGXE","","<img src=""img/set1/S3.jpg"" width=""540"" height = ""360"" style=""border:16px solid orange"">","null","","","","","","","",""
"null","","html-keyboard-response","190","989130","0.0-119.0","30LB5CDZNDW8GCN129HAVRSVBO90Z4","A1HFY6TQD2GBZA","3R5LWXWHR0UE010DORDQUF3E2FPGXE","","","null","","","","","","","",""
"513.7000000476837","","image-keyboard-response","191","989644","0.0-120.0","30LB5CDZNDW8GCN129HAVRSVBO90Z4","A1HFY6TQD2GBZA","3R5LWXWHR0UE010DORDQUF3E2FPGXE","","img/set1/S3.jpg","72","3","random","72","true","random,structured_incentive,structured_normal","1,2,2,3","",""
"null","","html-keyboard-response","192","989995","0.0-121.0","30LB5CDZNDW8GCN129HAVRSVBO90Z4","A1HFY6TQD2GBZA","3R5LWXWHR0UE010DORDQUF3E2FPGXE","","<img src=""img/set1/S3.jpg"" width=""540"" height = ""360"" style=""border:16px solid orange"">","null","","","","","","","",""
"null","","html-keyboard-response","193","989996","0.0-122.0","30LB5CDZNDW8GCN129HAVRSVBO90Z4","A1HFY6TQD2GBZA","3R5LWXWHR0UE010DORDQUF3E2FPGXE","","","null","","","","","","","",""
"413.2999999523163","","image-keyboard-response","194","990410","0.0-123.0","30LB5CDZNDW8GCN129HAVRSVBO90Z4","A1HFY6TQD2GBZA","3R5LWXWHR0UE010DORDQUF3E2FPGXE","","img/set1/S3.jpg","72","3","random","72","true","random,structured_incentive,structured_normal","1,2,2,3","",""
"null","","html-keyboard-response","195","990762","0.0-124.0","30LB5CDZNDW8GCN129HAVRSVBO90Z4","A1HFY6TQD2GBZA","3R5LWXWHR0UE010DORDQUF3E2FPGXE","","<img src=""img/set1/S3.jpg"" width=""540"" height = ""360"" style=""border:16px solid orange"">","null","","","","","","","",""
"null","","html-keyboard-response","196","990764","0.0-125.0","30LB5CDZNDW8GCN129HAVRSVBO90Z4","A1HFY6TQD2GBZA","3R5LWXWHR0UE010DORDQUF3E2FPGXE","","","null","","","","","","","",""
"734.6000000238419","","image-keyboard-response","197","991499","0.0-126.0","30LB5CDZNDW8GCN129HAVRSVBO90Z4","A1HFY6TQD2GBZA","3R5LWXWHR0UE010DORDQUF3E2FPGXE","","img/set1/S2.jpg","74","2","random","68","false","random,structured_incentive,structured_normal","1,2,2,3","",""
"null","","html-keyboard-response","198","991850","0.0-127.0","30LB5CDZNDW8GCN129HAVRSVBO90Z4","A1HFY6TQD2GBZA","3R5LWXWHR0UE010DORDQUF3E2FPGXE","","<img src=""img/set1/S2.jpg"" width=""540"" height = ""360"">","null","","","","","","","",""
"null","","html-keyboard-response","199","991852","0.0-128.0","30LB5CDZNDW8GCN129HAVRSVBO90Z4","A1HFY6TQD2GBZA","3R5LWXWHR0UE010DORDQUF3E2FPGXE","","","null","","","","","","","",""
"870.8999999761581","","image-keyboard-response","200","992724","0.0-129.0","30LB5CDZNDW8GCN129HAVRSVBO90Z4","A1HFY6TQD2GBZA","3R5LWXWHR0UE010DORDQUF3E2FPGXE","","img/set1/S3.jpg","72","3","random","72","true","random,structured_incentive,structured_normal","1,2,2,3","",""
"null","","html-keyboard-response","201","993075","0.0-130.0","30LB5CDZNDW8GCN129HAVRSVBO90Z4","A1HFY6TQD2GBZA","3R5LWXWHR0UE010DORDQUF3E2FPGXE","","<img src=""img/set1/S3.jpg"" width=""540"" height = ""360"" style=""border:16px solid orange"">","null","","","","","","","",""
"null","","html-keyboard-response","202","993077","0.0-131.0","30LB5CDZNDW8GCN129HAVRSVBO90Z4","A1HFY6TQD2GBZA","3R5LWXWHR0UE010DORDQUF3E2FPGXE","","","null","","","","","","","",""
"480.60000002384186","","image-keyboard-response","203","993558","0.0-132.0","30LB5CDZNDW8GCN129HAVRSVBO90Z4","A1HFY6TQD2GBZA","3R5LWXWHR0UE010DORDQUF3E2FPGXE","","img/set1/S1.jpg","72","1","random","83","false","random,structured_incentive,structured_normal","1,2,2,3","",""
"null","","html-keyboard-response","204","993910","0.0-133.0","30LB5CDZNDW8GCN129HAVRSVBO90Z4","A1HFY6TQD2GBZA","3R5LWXWHR0UE010DORDQUF3E2FPGXE","","<img src=""img/set1/S1.jpg"" width=""540"" height = ""360"">","null","","","","","","","",""
"null","","html-keyboard-response","205","993912","0.0-134.0","30LB5CDZNDW8GCN129HAVRSVBO90Z4","A1HFY6TQD2GBZA","3R5LWXWHR0UE010DORDQUF3E2FPGXE","","","null","","","","","","","",""
"105.70000004768372","","image-keyboard-response","206","994019","0.0-135.0","30LB5CDZNDW8GCN129HAVRSVBO90Z4","A1HFY6TQD2GBZA","3R5LWXWHR0UE010DORDQUF3E2FPGXE","","img/set1/S2.jpg","68","2","random","68","true","random,structured_incentive,structured_normal","1,2,2,3","",""
"null","","html-keyboard-response","207","994372","0.0-136.0","30LB5CDZNDW8GCN129HAVRSVBO90Z4","A1HFY6TQD2GBZA","3R5LWXWHR0UE010DORDQUF3E2FPGXE","","<img src=""img/set1/S2.jpg"" width=""540"" height = ""360"" style=""border:16px solid orange"">","null","","","","","","","",""
"null","","html-keyboard-response","208","994374","0.0-137.0","30LB5CDZNDW8GCN129HAVRSVBO90Z4","A1HFY6TQD2GBZA","3R5LWXWHR0UE010DORDQUF3E2FPGXE","","","null","","","","","","","",""
"732.3999999761581","","image-keyboard-response","209","995107","0.0-138.0","30LB5CDZNDW8GCN129HAVRSVBO90Z4","A1HFY6TQD2GBZA","3R5LWXWHR0UE010DORDQUF3E2FPGXE","","img/set1/S3.jpg","72","3","random","72","true","random,structured_incentive,structured_normal","1,2,2,3","",""
"null","","html-keyboard-response","210","995459","0.0-139.0","30LB5CDZNDW8GCN129HAVRSVBO90Z4","A1HFY6TQD2GBZA","3R5LWXWHR0UE010DORDQUF3E2FPGXE","","<img src=""img/set1/S3.jpg"" width=""540"" height = ""360"" style=""border:16px solid orange"">","null","","","","","","","",""
"null","","html-keyboard-response","211","995461","0.0-140.0","30LB5CDZNDW8GCN129HAVRSVBO90Z4","A1HFY6TQD2GBZA","3R5LWXWHR0UE010DORDQUF3E2FPGXE","","","null","","","","","","","",""
"649","","image-keyboard-response","212","996110","0.0-141.0","30LB5CDZNDW8GCN129HAVRSVBO90Z4","A1HFY6TQD2GBZA","3R5LWXWHR0UE010DORDQUF3E2FPGXE","","img/set1/S1.jpg","74","1","random","83","false","random,structured_incentive,structured_normal","1,2,2,3","",""
"null","","html-keyboard-response","213","996462","0.0-142.0","30LB5CDZNDW8GCN129HAVRSVBO90Z4","A1HFY6TQD2GBZA","3R5LWXWHR0UE010DORDQUF3E2FPGXE","","<img src=""img/set1/S1.jpg"" width=""540"" height = ""360"">","null","","","","","","","",""
"null","","html-keyboard-response","214","996465","0.0-143.0","30LB5CDZNDW8GCN129HAVRSVBO90Z4","A1HFY6TQD2GBZA","3R5LWXWHR0UE010DORDQUF3E2FPGXE","","","null","","","","","","","",""
"481","","image-keyboard-response","215","996947","0.0-144.0","30LB5CDZNDW8GCN129HAVRSVBO90Z4","A1HFY6TQD2GBZA","3R5LWXWHR0UE010DORDQUF3E2FPGXE","","img/set1/S1.jpg","83","1","random","83","true","random,structured_incentive,structured_normal","1,2,2,3","",""
"null","","html-keyboard-response","216","997300","0.0-145.0","30LB5CDZNDW8GCN129HAVRSVBO90Z4","A1HFY6TQD2GBZA","3R5LWXWHR0UE010DORDQUF3E2FPGXE","","<img src=""img/set1/S1.jpg"" width=""540"" height = ""360"" style=""border:16px solid orange"">","null","","","","","","","",""
"null","","html-keyboard-response","217","997302","0.0-146.0","30LB5CDZNDW8GCN129HAVRSVBO90Z4","A1HFY6TQD2GBZA","3R5LWXWHR0UE010DORDQUF3E2FPGXE","","","null","","","","","","","",""
"1071","","image-keyboard-response","218","998374","0.0-147.0","30LB5CDZNDW8GCN129HAVRSVBO90Z4","A1HFY6TQD2GBZA","3R5LWXWHR0UE010DORDQUF3E2FPGXE","","img/set1/S3.jpg","72","3","random","72","true","random,structured_incentive,structured_normal","1,2,2,3","",""
"null","","html-keyboard-response","219","998725","0.0-148.0","30LB5CDZNDW8GCN129HAVRSVBO90Z4","A1HFY6TQD2GBZA","3R5LWXWHR0UE010DORDQUF3E2FPGXE","","<img src=""img/set1/S3.jpg"" width=""540"" height = ""360"" style=""border:16px solid orange"">","null","","","","","","","",""
"null","","html-keyboard-response","220","998727","0.0-149.0","30LB5CDZNDW8GCN129HAVRSVBO90Z4","A1HFY6TQD2GBZA","3R5LWXWHR0UE010DORDQUF3E2FPGXE","","","null","","","","","","","",""
"599.6000000238419","","image-keyboard-response","221","999327","0.0-150.0","30LB5CDZNDW8GCN129HAVRSVBO90Z4","A1HFY6TQD2GBZA","3R5LWXWHR0UE010DORDQUF3E2FPGXE","","img/set1/S3.jpg","72","3","random","72","true","random,structured_incentive,structured_normal","1,2,2,3","",""
"null","","html-keyboard-response","222","999680","0.0-151.0","30LB5CDZNDW8GCN129HAVRSVBO90Z4","A1HFY6TQD2GBZA","3R5LWXWHR0UE010DORDQUF3E2FPGXE","","<img src=""img/set1/S3.jpg"" width=""540"" height = ""360"" style=""border:16px solid orange"">","null","","","","","","","",""
"null","","html-keyboard-response","223","999681","0.0-152.0","30LB5CDZNDW8GCN129HAVRSVBO90Z4","A1HFY6TQD2GBZA","3R5LWXWHR0UE010DORDQUF3E2FPGXE","","","null","","","","","","","",""
"582.2000000476837","","image-keyboard-response","224","1000265","0.0-153.0","30LB5CDZNDW8GCN129HAVRSVBO90Z4","A1HFY6TQD2GBZA","3R5LWXWHR0UE010DORDQUF3E2FPGXE","","img/set1/S2.jpg","68","2","random","68","true","random,structured_incentive,structured_normal","1,2,2,3","",""
"null","","html-keyboard-response","225","1000618","0.0-154.0","30LB5CDZNDW8GCN129HAVRSVBO90Z4","A1HFY6TQD2GBZA","3R5LWXWHR0UE010DORDQUF3E2FPGXE","","<img src=""img/set1/S2.jpg"" width=""540"" height = ""360"" style=""border:16px solid orange"">","null","","","","","","","",""
"null","","html-keyboard-response","226","1000620","0.0-155.0","30LB5CDZNDW8GCN129HAVRSVBO90Z4","A1HFY6TQD2GBZA","3R5LWXWHR0UE010DORDQUF3E2FPGXE","","","null","","","","","","","",""
"611.5","","image-keyboard-response","227","1001233","0.0-156.0","30LB5CDZNDW8GCN129HAVRSVBO90Z4","A1HFY6TQD2GBZA","3R5LWXWHR0UE010DORDQUF3E2FPGXE","","img/set1/S4.jpg","83","4","random","74","false","random,structured_incentive,structured_normal","1,2,2,3","",""
"null","","html-keyboard-response","228","1001584","0.0-157.0","30LB5CDZNDW8GCN129HAVRSVBO90Z4","A1HFY6TQD2GBZA","3R5LWXWHR0UE010DORDQUF3E2FPGXE","","<img src=""img/set1/S4.jpg"" width=""540"" height = ""360"">","null","","","","","","","",""
"null","","html-keyboard-response","229","1001586","0.0-158.0","30LB5CDZNDW8GCN129HAVRSVBO90Z4","A1HFY6TQD2GBZA","3R5LWXWHR0UE010DORDQUF3E2FPGXE","","","null","","","","","","","",""
"1008.7999999523163","","image-keyboard-response","230","1002596","0.0-159.0","30LB5CDZNDW8GCN129HAVRSVBO90Z4","A1HFY6TQD2GBZA","3R5LWXWHR0UE010DORDQUF3E2FPGXE","","img/set1/S3.jpg","72","3","random","72","true","random,structured_incentive,structured_normal","1,2,2,3","",""
"null","","html-keyboard-response","231","1002949","0.0-160.0","30LB5CDZNDW8GCN129HAVRSVBO90Z4","A1HFY6TQD2GBZA","3R5LWXWHR0UE010DORDQUF3E2FPGXE","","<img src=""img/set1/S3.jpg"" width=""540"" height = ""360"" style=""border:16px solid orange"">","null","","","","","","","",""
"null","","html-keyboard-response","232","1002951","0.0-161.0","30LB5CDZNDW8GCN129HAVRSVBO90Z4","A1HFY6TQD2GBZA","3R5LWXWHR0UE010DORDQUF3E2FPGXE","","","null","","","","","","","",""
"917.3999999761581","","image-keyboard-response","233","1003869","0.0-162.0","30LB5CDZNDW8GCN129HAVRSVBO90Z4","A1HFY6TQD2GBZA","3R5LWXWHR0UE010DORDQUF3E2FPGXE","","img/set1/S1.jpg","74","1","random","83","false","random,structured_incentive,structured_normal","1,2,2,3","",""
"null","","html-keyboard-response","234","1004221","0.0-163.0","30LB5CDZNDW8GCN129HAVRSVBO90Z4","A1HFY6TQD2GBZA","3R5LWXWHR0UE010DORDQUF3E2FPGXE","","<img src=""img/set1/S1.jpg"" width=""540"" height = ""360"">","null","","","","","","","",""
"null","","html-keyboard-response","235","1004223","0.0-164.0","30LB5CDZNDW8GCN129HAVRSVBO90Z4","A1HFY6TQD2GBZA","3R5LWXWHR0UE010DORDQUF3E2FPGXE","","","null","","","","","","","",""
"703.1000000238419","","image-keyboard-response","236","1004927","0.0-165.0","30LB5CDZNDW8GCN129HAVRSVBO90Z4","A1HFY6TQD2GBZA","3R5LWXWHR0UE010DORDQUF3E2FPGXE","","img/set1/S3.jpg","72","3","random","72","true","random,structured_incentive,structured_normal","1,2,2,3","",""
"null","","html-keyboard-response","237","1005279","0.0-166.0","30LB5CDZNDW8GCN129HAVRSVBO90Z4","A1HFY6TQD2GBZA","3R5LWXWHR0UE010DORDQUF3E2FPGXE","","<img src=""img/set1/S3.jpg"" width=""540"" height = ""360"" style=""border:16px solid orange"">","null","","","","","","","",""
"null","","html-keyboard-response","238","1005281","0.0-167.0","30LB5CDZNDW8GCN129HAVRSVBO90Z4","A1HFY6TQD2GBZA","3R5LWXWHR0UE010DORDQUF3E2FPGXE","","","null","","","","","","","",""
"528.3999999761581","","image-keyboard-response","239","1005809","0.0-168.0","30LB5CDZNDW8GCN129HAVRSVBO90Z4","A1HFY6TQD2GBZA","3R5LWXWHR0UE010DORDQUF3E2FPGXE","","img/set1/S3.jpg","83","3","random","72","false","random,structured_incentive,structured_normal","1,2,2,3","",""
"null","","html-keyboard-response","240","1006161","0.0-169.0","30LB5CDZNDW8GCN129HAVRSVBO90Z4","A1HFY6TQD2GBZA","3R5LWXWHR0UE010DORDQUF3E2FPGXE","","<img src=""img/set1/S3.jpg"" width=""540"" height = ""360"">","null","","","","","","","",""
"null","","html-keyboard-response","241","1006163","0.0-170.0","30LB5CDZNDW8GCN129HAVRSVBO90Z4","A1HFY6TQD2GBZA","3R5LWXWHR0UE010DORDQUF3E2FPGXE","","","null","","","","","","","",""
"396.39999997615814","","image-keyboard-response","242","1006560","0.0-171.0","30LB5CDZNDW8GCN129HAVRSVBO90Z4","A1HFY6TQD2GBZA","3R5LWXWHR0UE010DORDQUF3E2FPGXE","","img/set1/S3.jpg","68","3","random","72","false","random,structured_incentive,structured_normal","1,2,2,3","",""
"null","","html-keyboard-response","243","1006912","0.0-172.0","30LB5CDZNDW8GCN129HAVRSVBO90Z4","A1HFY6TQD2GBZA","3R5LWXWHR0UE010DORDQUF3E2FPGXE","","<img src=""img/set1/S3.jpg"" width=""540"" height = ""360"">","null","","","","","","","",""
"null","","html-keyboard-response","244","1006914","0.0-173.0","30LB5CDZNDW8GCN129HAVRSVBO90Z4","A1HFY6TQD2GBZA","3R5LWXWHR0UE010DORDQUF3E2FPGXE","","","null","","","","","","","",""
"598","","image-keyboard-response","245","1007512","0.0-174.0","30LB5CDZNDW8GCN129HAVRSVBO90Z4","A1HFY6TQD2GBZA","3R5LWXWHR0UE010DORDQUF3E2FPGXE","","img/set1/S4.jpg","83","4","random","74","false","random,structured_incentive,structured_normal","1,2,2,3","",""
"null","","html-keyboard-response","246","1007864","0.0-175.0","30LB5CDZNDW8GCN129HAVRSVBO90Z4","A1HFY6TQD2GBZA","3R5LWXWHR0UE010DORDQUF3E2FPGXE","","<img src=""img/set1/S4.jpg"" width=""540"" height = ""360"">","null","","","","","","","",""
"null","","html-keyboard-response","247","1007866","0.0-176.0","30LB5CDZNDW8GCN129HAVRSVBO90Z4","A1HFY6TQD2GBZA","3R5LWXWHR0UE010DORDQUF3E2FPGXE","","","null","","","","","","","",""
"429.3000000715256","","image-keyboard-response","248","1008296","0.0-177.0","30LB5CDZNDW8GCN129HAVRSVBO90Z4","A1HFY6TQD2GBZA","3R5LWXWHR0UE010DORDQUF3E2FPGXE","","img/set1/S2.jpg","68","2","random","68","true","random,structured_incentive,structured_normal","1,2,2,3","",""
"null","","html-keyboard-response","249","1008647","0.0-178.0","30LB5CDZNDW8GCN129HAVRSVBO90Z4","A1HFY6TQD2GBZA","3R5LWXWHR0UE010DORDQUF3E2FPGXE","","<img src=""img/set1/S2.jpg"" width=""540"" height = ""360"" style=""border:16px solid orange"">","null","","","","","","","",""
"null","","html-keyboard-response","250","1008649","0.0-179.0","30LB5CDZNDW8GCN129HAVRSVBO90Z4","A1HFY6TQD2GBZA","3R5LWXWHR0UE010DORDQUF3E2FPGXE","","","null","","","","","","","",""
"700","","image-keyboard-response","251","1009350","0.0-180.0","30LB5CDZNDW8GCN129HAVRSVBO90Z4","A1HFY6TQD2GBZA","3R5LWXWHR0UE010DORDQUF3E2FPGXE","","img/set1/S4.jpg","72","4","random","74","false","random,structured_incentive,structured_normal","1,2,2,3","",""
"null","","html-keyboard-response","252","1009701","0.0-181.0","30LB5CDZNDW8GCN129HAVRSVBO90Z4","A1HFY6TQD2GBZA","3R5LWXWHR0UE010DORDQUF3E2FPGXE","","<img src=""img/set1/S4.jpg"" width=""540"" height = ""360"">","null","","","","","","","",""
"null","","html-keyboard-response","253","1009704","0.0-182.0","30LB5CDZNDW8GCN129HAVRSVBO90Z4","A1HFY6TQD2GBZA","3R5LWXWHR0UE010DORDQUF3E2FPGXE","","","null","","","","","","","",""
"583.7000000476837","","image-keyboard-response","254","1010288","0.0-183.0","30LB5CDZNDW8GCN129HAVRSVBO90Z4","A1HFY6TQD2GBZA","3R5LWXWHR0UE010DORDQUF3E2FPGXE","","img/set1/S4.jpg","74","4","random","74","true","random,structured_incentive,structured_normal","1,2,2,3","",""
"null","","html-keyboard-response","255","1010640","0.0-184.0","30LB5CDZNDW8GCN129HAVRSVBO90Z4","A1HFY6TQD2GBZA","3R5LWXWHR0UE010DORDQUF3E2FPGXE","","<img src=""img/set1/S4.jpg"" width=""540"" height = ""360"" style=""border:16px solid orange"">","null","","","","","","","",""
"null","","html-keyboard-response","256","1010642","0.0-185.0","30LB5CDZNDW8GCN129HAVRSVBO90Z4","A1HFY6TQD2GBZA","3R5LWXWHR0UE010DORDQUF3E2FPGXE","","","null","","","","","","","",""
"495.3000000715256","","image-keyboard-response","257","1011138","0.0-186.0","30LB5CDZNDW8GCN129HAVRSVBO90Z4","A1HFY6TQD2GBZA","3R5LWXWHR0UE010DORDQUF3E2FPGXE","","img/set1/S1.jpg","72","1","random","83","false","random,structured_incentive,structured_normal","1,2,2,3","",""
"null","","html-keyboard-response","258","1011492","0.0-187.0","30LB5CDZNDW8GCN129HAVRSVBO90Z4","A1HFY6TQD2GBZA","3R5LWXWHR0UE010DORDQUF3E2FPGXE","","<img src=""img/set1/S1.jpg"" width=""540"" height = ""360"">","null","","","","","","","",""
"null","","html-keyboard-response","259","1011494","0.0-188.0","30LB5CDZNDW8GCN129HAVRSVBO90Z4","A1HFY6TQD2GBZA","3R5LWXWHR0UE010DORDQUF3E2FPGXE","","","null","","","","","","","",""
"509.60000002384186","","image-keyboard-response","260","1012004","0.0-189.0","30LB5CDZNDW8GCN129HAVRSVBO90Z4","A1HFY6TQD2GBZA","3R5LWXWHR0UE010DORDQUF3E2FPGXE","","img/set1/S1.jpg","74","1","random","83","false","random,structured_incentive,structured_normal","1,2,2,3","",""
"null","","html-keyboard-response","261","1012356","0.0-190.0","30LB5CDZNDW8GCN129HAVRSVBO90Z4","A1HFY6TQD2GBZA","3R5LWXWHR0UE010DORDQUF3E2FPGXE","","<img src=""img/set1/S1.jpg"" width=""540"" height = ""360"">","null","","","","","","","",""
"null","","html-keyboard-response","262","1012357","0.0-191.0","30LB5CDZNDW8GCN129HAVRSVBO90Z4","A1HFY6TQD2GBZA","3R5LWXWHR0UE010DORDQUF3E2FPGXE","","","null","","","","","","","",""
"548","","image-keyboard-response","263","1012907","0.0-192.0","30LB5CDZNDW8GCN129HAVRSVBO90Z4","A1HFY6TQD2GBZA","3R5LWXWHR0UE010DORDQUF3E2FPGXE","","img/set1/S2.jpg","83","2","random","68","false","random,structured_incentive,structured_normal","1,2,2,3","",""
"null","","html-keyboard-response","264","1013259","0.0-193.0","30LB5CDZNDW8GCN129HAVRSVBO90Z4","A1HFY6TQD2GBZA","3R5LWXWHR0UE010DORDQUF3E2FPGXE","","<img src=""img/set1/S2.jpg"" width=""540"" height = ""360"">","null","","","","","","","",""
"null","","html-keyboard-response","265","1013261","0.0-194.0","30LB5CDZNDW8GCN129HAVRSVBO90Z4","A1HFY6TQD2GBZA","3R5LWXWHR0UE010DORDQUF3E2FPGXE","","","null","","","","","","","",""
"494.5","","image-keyboard-response","266","1013756","0.0-195.0","30LB5CDZNDW8GCN129HAVRSVBO90Z4","A1HFY6TQD2GBZA","3R5LWXWHR0UE010DORDQUF3E2FPGXE","","img/set1/S2.jpg","68","2","random","68","true","random,structured_incentive,structured_normal","1,2,2,3","",""
"null","","html-keyboard-response","267","1014108","0.0-196.0","30LB5CDZNDW8GCN129HAVRSVBO90Z4","A1HFY6TQD2GBZA","3R5LWXWHR0UE010DORDQUF3E2FPGXE","","<img src=""img/set1/S2.jpg"" width=""540"" height = ""360"" style=""border:16px solid orange"">","null","","","","","","","",""
"null","","html-keyboard-response","268","1014111","0.0-197.0","30LB5CDZNDW8GCN129HAVRSVBO90Z4","A1HFY6TQD2GBZA","3R5LWXWHR0UE010DORDQUF3E2FPGXE","","","null","","","","","","","",""
"1722.8999999761581","","image-keyboard-response","269","1015834","0.0-198.0","30LB5CDZNDW8GCN129HAVRSVBO90Z4","A1HFY6TQD2GBZA","3R5LWXWHR0UE010DORDQUF3E2FPGXE","","img/set1/S1.jpg","83","1","random","83","true","random,structured_incentive,structured_normal","1,2,2,3","",""
"null","","html-keyboard-response","270","1016187","0.0-199.0","30LB5CDZNDW8GCN129HAVRSVBO90Z4","A1HFY6TQD2GBZA","3R5LWXWHR0UE010DORDQUF3E2FPGXE","","<img src=""img/set1/S1.jpg"" width=""540"" height = ""360"" style=""border:16px solid orange"">","null","","","","","","","",""
"null","","html-keyboard-response","271","1016189","0.0-200.0","30LB5CDZNDW8GCN129HAVRSVBO90Z4","A1HFY6TQD2GBZA","3R5LWXWHR0UE010DORDQUF3E2FPGXE","","","null","","","","","","","",""
"954.8999999761581","","image-keyboard-response","272","1017144","0.0-201.0","30LB5CDZNDW8GCN129HAVRSVBO90Z4","A1HFY6TQD2GBZA","3R5LWXWHR0UE010DORDQUF3E2FPGXE","","img/set1/S3.jpg","72","3","random","72","true","random,structured_incentive,structured_normal","1,2,2,3","",""
"null","","html-keyboard-response","273","1017496","0.0-202.0","30LB5CDZNDW8GCN129HAVRSVBO90Z4","A1HFY6TQD2GBZA","3R5LWXWHR0UE010DORDQUF3E2FPGXE","","<img src=""img/set1/S3.jpg"" width=""540"" height = ""360"" style=""border:16px solid orange"">","null","","","","","","","",""
"null","","html-keyboard-response","274","1017498","0.0-203.0","30LB5CDZNDW8GCN129HAVRSVBO90Z4","A1HFY6TQD2GBZA","3R5LWXWHR0UE010DORDQUF3E2FPGXE","","","null","","","","","","","",""
"615","","image-keyboard-response","275","1018114","0.0-204.0","30LB5CDZNDW8GCN129HAVRSVBO90Z4","A1HFY6TQD2GBZA","3R5LWXWHR0UE010DORDQUF3E2FPGXE","","img/set1/S2.jpg","83","2","random","68","false","random,structured_incentive,structured_normal","1,2,2,3","",""
"null","","html-keyboard-response","276","1018466","0.0-205.0","30LB5CDZNDW8GCN129HAVRSVBO90Z4","A1HFY6TQD2GBZA","3R5LWXWHR0UE010DORDQUF3E2FPGXE","","<img src=""img/set1/S2.jpg"" width=""540"" height = ""360"">","null","","","","","","","",""
"null","","html-keyboard-response","277","1018468","0.0-206.0","30LB5CDZNDW8GCN129HAVRSVBO90Z4","A1HFY6TQD2GBZA","3R5LWXWHR0UE010DORDQUF3E2FPGXE","","","null","","","","","","","",""
"443.39999997615814","","image-keyboard-response","278","1018912","0.0-207.0","30LB5CDZNDW8GCN129HAVRSVBO90Z4","A1HFY6TQD2GBZA","3R5LWXWHR0UE010DORDQUF3E2FPGXE","","img/set1/S3.jpg","68","3","random","72","false","random,structured_incentive,structured_normal","1,2,2,3","",""
"null","","html-keyboard-response","279","1019270","0.0-208.0","30LB5CDZNDW8GCN129HAVRSVBO90Z4","A1HFY6TQD2GBZA","3R5LWXWHR0UE010DORDQUF3E2FPGXE","","<img src=""img/set1/S3.jpg"" width=""540"" height = ""360"">","null","","","","","","","",""
"null","","html-keyboard-response","280","1019272","0.0-209.0","30LB5CDZNDW8GCN129HAVRSVBO90Z4","A1HFY6TQD2GBZA","3R5LWXWHR0UE010DORDQUF3E2FPGXE","","","null","","","","","","","",""
"798.1999999284744","","image-keyboard-response","281","1020071","0.0-210.0","30LB5CDZNDW8GCN129HAVRSVBO90Z4","A1HFY6TQD2GBZA","3R5LWXWHR0UE010DORDQUF3E2FPGXE","","img/set1/S4.jpg","74","4","random","74","true","random,structured_incentive,structured_normal","1,2,2,3","",""
"null","","html-keyboard-response","282","1020423","0.0-211.0","30LB5CDZNDW8GCN129HAVRSVBO90Z4","A1HFY6TQD2GBZA","3R5LWXWHR0UE010DORDQUF3E2FPGXE","","<img src=""img/set1/S4.jpg"" width=""540"" height = ""360"" style=""border:16px solid orange"">","null","","","","","","","",""
"null","","html-keyboard-response","283","1020425","0.0-212.0","30LB5CDZNDW8GCN129HAVRSVBO90Z4","A1HFY6TQD2GBZA","3R5LWXWHR0UE010DORDQUF3E2FPGXE","","","null","","","","","","","",""
"1553.5","","image-keyboard-response","284","1021979","0.0-213.0","30LB5CDZNDW8GCN129HAVRSVBO90Z4","A1HFY6TQD2GBZA","3R5LWXWHR0UE010DORDQUF3E2FPGXE","","img/set1/S1.jpg","68","1","random","83","false","random,structured_incentive,structured_normal","1,2,2,3","",""
"null","","html-keyboard-response","285","1022333","0.0-214.0","30LB5CDZNDW8GCN129HAVRSVBO90Z4","A1HFY6TQD2GBZA","3R5LWXWHR0UE010DORDQUF3E2FPGXE","","<img src=""img/set1/S1.jpg"" width=""540"" height = ""360"">","null","","","","","","","",""
"null","","html-keyboard-response","286","1022336","0.0-215.0","30LB5CDZNDW8GCN129HAVRSVBO90Z4","A1HFY6TQD2GBZA","3R5LWXWHR0UE010DORDQUF3E2FPGXE","","","null","","","","","","","",""
"695.5","","image-keyboard-response","287","1023033","0.0-216.0","30LB5CDZNDW8GCN129HAVRSVBO90Z4","A1HFY6TQD2GBZA","3R5LWXWHR0UE010DORDQUF3E2FPGXE","","img/set1/S3.jpg","72","3","random","72","true","random,structured_incentive,structured_normal","1,2,2,3","",""
"null","","html-keyboard-response","288","1023394","0.0-217.0","30LB5CDZNDW8GCN129HAVRSVBO90Z4","A1HFY6TQD2GBZA","3R5LWXWHR0UE010DORDQUF3E2FPGXE","","<img src=""img/set1/S3.jpg"" width=""540"" height = ""360"" style=""border:16px solid orange"">","null","","","","","","","",""
"null","","html-keyboard-response","289","1023396","0.0-218.0","30LB5CDZNDW8GCN129HAVRSVBO90Z4","A1HFY6TQD2GBZA","3R5LWXWHR0UE010DORDQUF3E2FPGXE","","","null","","","","","","","",""
"417.5","","image-keyboard-response","290","1023814","0.0-219.0","30LB5CDZNDW8GCN129HAVRSVBO90Z4","A1HFY6TQD2GBZA","3R5LWXWHR0UE010DORDQUF3E2FPGXE","","img/set1/S4.jpg","83","4","random","74","false","random,structured_incentive,structured_normal","1,2,2,3","",""
"null","","html-keyboard-response","291","1024165","0.0-220.0","30LB5CDZNDW8GCN129HAVRSVBO90Z4","A1HFY6TQD2GBZA","3R5LWXWHR0UE010DORDQUF3E2FPGXE","","<img src=""img/set1/S4.jpg"" width=""540"" height = ""360"">","null","","","","","","","",""
"null","","html-keyboard-response","292","1024168","0.0-221.0","30LB5CDZNDW8GCN129HAVRSVBO90Z4","A1HFY6TQD2GBZA","3R5LWXWHR0UE010DORDQUF3E2FPGXE","","","null","","","","","","","",""
"752.7999999523163","","image-keyboard-response","293","1024922","0.0-222.0","30LB5CDZNDW8GCN129HAVRSVBO90Z4","A1HFY6TQD2GBZA","3R5LWXWHR0UE010DORDQUF3E2FPGXE","","img/set1/S4.jpg","68","4","random","74","false","random,structured_incentive,structured_normal","1,2,2,3","",""
"null","","html-keyboard-response","294","1025280","0.0-223.0","30LB5CDZNDW8GCN129HAVRSVBO90Z4","A1HFY6TQD2GBZA","3R5LWXWHR0UE010DORDQUF3E2FPGXE","","<img src=""img/set1/S4.jpg"" width=""540"" height = ""360"">","null","","","","","","","",""
"null","","html-keyboard-response","295","1025282","0.0-224.0","30LB5CDZNDW8GCN129HAVRSVBO90Z4","A1HFY6TQD2GBZA","3R5LWXWHR0UE010DORDQUF3E2FPGXE","","","null","","","","","","","",""
"557.1999999284744","","image-keyboard-response","296","1025840","0.0-225.0","30LB5CDZNDW8GCN129HAVRSVBO90Z4","A1HFY6TQD2GBZA","3R5LWXWHR0UE010DORDQUF3E2FPGXE","","img/set1/S4.jpg","74","4","random","74","true","random,structured_incentive,structured_normal","1,2,2,3","",""
"null","","html-keyboard-response","297","1026191","0.0-226.0","30LB5CDZNDW8GCN129HAVRSVBO90Z4","A1HFY6TQD2GBZA","3R5LWXWHR0UE010DORDQUF3E2FPGXE","","<img src=""img/set1/S4.jpg"" width=""540"" height = ""360"" style=""border:16px solid orange"">","null","","","","","","","",""
"null","","html-keyboard-response","298","1026193","0.0-227.0","30LB5CDZNDW8GCN129HAVRSVBO90Z4","A1HFY6TQD2GBZA","3R5LWXWHR0UE010DORDQUF3E2FPGXE","","","null","","","","","","","",""
"1434.1000000238419","","image-keyboard-response","299","1027628","0.0-228.0","30LB5CDZNDW8GCN129HAVRSVBO90Z4","A1HFY6TQD2GBZA","3R5LWXWHR0UE010DORDQUF3E2FPGXE","","img/set1/S4.jpg","74","4","random","74","true","random,structured_incentive,structured_normal","1,2,2,3","",""
"null","","html-keyboard-response","300","1027979","0.0-229.0","30LB5CDZNDW8GCN129HAVRSVBO90Z4","A1HFY6TQD2GBZA","3R5LWXWHR0UE010DORDQUF3E2FPGXE","","<img src=""img/set1/S4.jpg"" width=""540"" height = ""360"" style=""border:16px solid orange"">","null","","","","","","","",""
"null","","html-keyboard-response","301","1027981","0.0-230.0","30LB5CDZNDW8GCN129HAVRSVBO90Z4","A1HFY6TQD2GBZA","3R5LWXWHR0UE010DORDQUF3E2FPGXE","","","null","","","","","","","",""
"617.7000000476837","","image-keyboard-response","302","1028600","0.0-231.0","30LB5CDZNDW8GCN129HAVRSVBO90Z4","A1HFY6TQD2GBZA","3R5LWXWHR0UE010DORDQUF3E2FPGXE","","img/set1/S3.jpg","72","3","random","72","true","random,structured_incentive,structured_normal","1,2,2,3","",""
"null","","html-keyboard-response","303","1028952","0.0-232.0","30LB5CDZNDW8GCN129HAVRSVBO90Z4","A1HFY6TQD2GBZA","3R5LWXWHR0UE010DORDQUF3E2FPGXE","","<img src=""img/set1/S3.jpg"" width=""540"" height = ""360"" style=""border:16px solid orange"">","null","","","","","","","",""
"null","","html-keyboard-response","304","1028954","0.0-233.0","30LB5CDZNDW8GCN129HAVRSVBO90Z4","A1HFY6TQD2GBZA","3R5LWXWHR0UE010DORDQUF3E2FPGXE","","","null","","","","","","","",""
"2101.5","","image-keyboard-response","305","1031056","0.0-234.0","30LB5CDZNDW8GCN129HAVRSVBO90Z4","A1HFY6TQD2GBZA","3R5LWXWHR0UE010DORDQUF3E2FPGXE","","img/set1/S1.jpg","83","1","random","83","true","random,structured_incentive,structured_normal","1,2,2,3","",""
"null","","html-keyboard-response","306","1031408","0.0-235.0","30LB5CDZNDW8GCN129HAVRSVBO90Z4","A1HFY6TQD2GBZA","3R5LWXWHR0UE010DORDQUF3E2FPGXE","","<img src=""img/set1/S1.jpg"" width=""540"" height = ""360"" style=""border:16px solid orange"">","null","","","","","","","",""
"null","","html-keyboard-response","307","1031410","0.0-236.0","30LB5CDZNDW8GCN129HAVRSVBO90Z4","A1HFY6TQD2GBZA","3R5LWXWHR0UE010DORDQUF3E2FPGXE","","","null","","","","","","","",""
"1887.2000000476837","","image-keyboard-response","308","1033298","0.0-237.0","30LB5CDZNDW8GCN129HAVRSVBO90Z4","A1HFY6TQD2GBZA","3R5LWXWHR0UE010DORDQUF3E2FPGXE","","img/set1/S4.jpg","68","4","random","74","false","random,structured_incentive,structured_normal","1,2,2,3","",""
"null","","html-keyboard-response","309","1033650","0.0-238.0","30LB5CDZNDW8GCN129HAVRSVBO90Z4","A1HFY6TQD2GBZA","3R5LWXWHR0UE010DORDQUF3E2FPGXE","","<img src=""img/set1/S4.jpg"" width=""540"" height = ""360"">","null","","","","","","","",""
"null","","html-keyboard-response","310","1033652","0.0-239.0","30LB5CDZNDW8GCN129HAVRSVBO90Z4","A1HFY6TQD2GBZA","3R5LWXWHR0UE010DORDQUF3E2FPGXE","","","null","","","","","","","",""
"835.7999999523163","","image-keyboard-response","311","1034489","0.0-240.0","30LB5CDZNDW8GCN129HAVRSVBO90Z4","A1HFY6TQD2GBZA","3R5LWXWHR0UE010DORDQUF3E2FPGXE","","img/set1/S3.jpg","72","3","random","72","true","random,structured_incentive,structured_normal","1,2,2,3","",""
"null","","html-keyboard-response","312","1034841","0.0-241.0","30LB5CDZNDW8GCN129HAVRSVBO90Z4","A1HFY6TQD2GBZA","3R5LWXWHR0UE010DORDQUF3E2FPGXE","","<img src=""img/set1/S3.jpg"" width=""540"" height = ""360"" style=""border:16px solid orange"">","null","","","","","","","",""
"null","","html-keyboard-response","313","1034844","0.0-242.0","30LB5CDZNDW8GCN129HAVRSVBO90Z4","A1HFY6TQD2GBZA","3R5LWXWHR0UE010DORDQUF3E2FPGXE","","","null","","","","","","","",""
"1260","","image-keyboard-response","314","1036105","0.0-243.0","30LB5CDZNDW8GCN129HAVRSVBO90Z4","A1HFY6TQD2GBZA","3R5LWXWHR0UE010DORDQUF3E2FPGXE","","img/set1/S2.jpg","68","2","random","68","true","random,structured_incentive,structured_normal","1,2,2,3","",""
"null","","html-keyboard-response","315","1036457","0.0-244.0","30LB5CDZNDW8GCN129HAVRSVBO90Z4","A1HFY6TQD2GBZA","3R5LWXWHR0UE010DORDQUF3E2FPGXE","","<img src=""img/set1/S2.jpg"" width=""540"" height = ""360"" style=""border:16px solid orange"">","null","","","","","","","",""
"null","","html-keyboard-response","316","1036459","0.0-245.0","30LB5CDZNDW8GCN129HAVRSVBO90Z4","A1HFY6TQD2GBZA","3R5LWXWHR0UE010DORDQUF3E2FPGXE","","","null","","","","","","","",""
"683.6999999284744","","image-keyboard-response","317","1037143","0.0-246.0","30LB5CDZNDW8GCN129HAVRSVBO90Z4","A1HFY6TQD2GBZA","3R5LWXWHR0UE010DORDQUF3E2FPGXE","","img/set1/S3.jpg","72","3","random","72","true","random,structured_incentive,structured_normal","1,2,2,3","",""
"null","","html-keyboard-response","318","1037494","0.0-247.0","30LB5CDZNDW8GCN129HAVRSVBO90Z4","A1HFY6TQD2GBZA","3R5LWXWHR0UE010DORDQUF3E2FPGXE","","<img src=""img/set1/S3.jpg"" width=""540"" height = ""360"" style=""border:16px solid orange"">","null","","","","","","","",""
"null","","html-keyboard-response","319","1037496","0.0-248.0","30LB5CDZNDW8GCN129HAVRSVBO90Z4","A1HFY6TQD2GBZA","3R5LWXWHR0UE010DORDQUF3E2FPGXE","","","null","","","","","","","",""
"922.5","","image-keyboard-response","320","1038419","0.0-249.0","30LB5CDZNDW8GCN129HAVRSVBO90Z4","A1HFY6TQD2GBZA","3R5LWXWHR0UE010DORDQUF3E2FPGXE","","img/set1/S1.jpg","74","1","random","83","false","random,structured_incentive,structured_normal","1,2,2,3","",""
"null","","html-keyboard-response","321","1038770","0.0-250.0","30LB5CDZNDW8GCN129HAVRSVBO90Z4","A1HFY6TQD2GBZA","3R5LWXWHR0UE010DORDQUF3E2FPGXE","","<img src=""img/set1/S1.jpg"" width=""540"" height = ""360"">","null","","","","","","","",""
"null","","html-keyboard-response","322","1038772","0.0-251.0","30LB5CDZNDW8GCN129HAVRSVBO90Z4","A1HFY6TQD2GBZA","3R5LWXWHR0UE010DORDQUF3E2FPGXE","","","null","","","","","","","",""
"1212.3999999761581","","image-keyboard-response","323","1039985","0.0-252.0","30LB5CDZNDW8GCN129HAVRSVBO90Z4","A1HFY6TQD2GBZA","3R5LWXWHR0UE010DORDQUF3E2FPGXE","","img/set1/S3.jpg","72","3","random","72","true","random,structured_incentive,structured_normal","1,2,2,3","",""
"null","","html-keyboard-response","324","1040336","0.0-253.0","30LB5CDZNDW8GCN129HAVRSVBO90Z4","A1HFY6TQD2GBZA","3R5LWXWHR0UE010DORDQUF3E2FPGXE","","<img src=""img/set1/S3.jpg"" width=""540"" height = ""360"" style=""border:16px solid orange"">","null","","","","","","","",""
"null","","html-keyboard-response","325","1040338","0.0-254.0","30LB5CDZNDW8GCN129HAVRSVBO90Z4","A1HFY6TQD2GBZA","3R5LWXWHR0UE010DORDQUF3E2FPGXE","","","null","","","","","","","",""
"1247","","image-keyboard-response","326","1041585","0.0-255.0","30LB5CDZNDW8GCN129HAVRSVBO90Z4","A1HFY6TQD2GBZA","3R5LWXWHR0UE010DORDQUF3E2FPGXE","","img/set1/S1.jpg","83","1","random","83","true","random,structured_incentive,structured_normal","1,2,2,3","",""
"null","","html-keyboard-response","327","1041937","0.0-256.0","30LB5CDZNDW8GCN129HAVRSVBO90Z4","A1HFY6TQD2GBZA","3R5LWXWHR0UE010DORDQUF3E2FPGXE","","<img src=""img/set1/S1.jpg"" width=""540"" height = ""360"" style=""border:16px solid orange"">","null","","","","","","","",""
"null","","html-keyboard-response","328","1041939","0.0-257.0","30LB5CDZNDW8GCN129HAVRSVBO90Z4","A1HFY6TQD2GBZA","3R5LWXWHR0UE010DORDQUF3E2FPGXE","","","null","","","","","","","",""
"1043","","image-keyboard-response","329","1042982","0.0-258.0","30LB5CDZNDW8GCN129HAVRSVBO90Z4","A1HFY6TQD2GBZA","3R5LWXWHR0UE010DORDQUF3E2FPGXE","","img/set1/S4.jpg","68","4","random","74","false","random,structured_incentive,structured_normal","1,2,2,3","",""
"null","","html-keyboard-response","330","1043334","0.0-259.0","30LB5CDZNDW8GCN129HAVRSVBO90Z4","A1HFY6TQD2GBZA","3R5LWXWHR0UE010DORDQUF3E2FPGXE","","<img src=""img/set1/S4.jpg"" width=""540"" height = ""360"">","null","","","","","","","",""
"null","","html-keyboard-response","331","1043336","0.0-260.0","30LB5CDZNDW8GCN129HAVRSVBO90Z4","A1HFY6TQD2GBZA","3R5LWXWHR0UE010DORDQUF3E2FPGXE","","","null","","","","","","","",""
"2435.5","","image-keyboard-response","332","1045772","0.0-261.0","30LB5CDZNDW8GCN129HAVRSVBO90Z4","A1HFY6TQD2GBZA","3R5LWXWHR0UE010DORDQUF3E2FPGXE","","img/set1/S2.jpg","68","2","random","68","true","random,structured_incentive,structured_normal","1,2,2,3","",""
"null","","html-keyboard-response","333","1046138","0.0-262.0","30LB5CDZNDW8GCN129HAVRSVBO90Z4","A1HFY6TQD2GBZA","3R5LWXWHR0UE010DORDQUF3E2FPGXE","","<img src=""img/set1/S2.jpg"" width=""540"" height = ""360"" style=""border:16px solid orange"">","null","","","","","","","",""
"null","","html-keyboard-response","334","1046141","0.0-263.0","30LB5CDZNDW8GCN129HAVRSVBO90Z4","A1HFY6TQD2GBZA","3R5LWXWHR0UE010DORDQUF3E2FPGXE","","","null","","","","","","","",""
"652","","image-keyboard-response","335","1046793","0.0-264.0","30LB5CDZNDW8GCN129HAVRSVBO90Z4","A1HFY6TQD2GBZA","3R5LWXWHR0UE010DORDQUF3E2FPGXE","","img/set1/S2.jpg","68","2","random","68","true","random,structured_incentive,structured_normal","1,2,2,3","",""
"null","","html-keyboard-response","336","1047145","0.0-265.0","30LB5CDZNDW8GCN129HAVRSVBO90Z4","A1HFY6TQD2GBZA","3R5LWXWHR0UE010DORDQUF3E2FPGXE","","<img src=""img/set1/S2.jpg"" width=""540"" height = ""360"" style=""border:16px solid orange"">","null","","","","","","","",""
"null","","html-keyboard-response","337","1047146","0.0-266.0","30LB5CDZNDW8GCN129HAVRSVBO90Z4","A1HFY6TQD2GBZA","3R5LWXWHR0UE010DORDQUF3E2FPGXE","","","null","","","","","","","",""
"1876.2000000476837","","image-keyboard-response","338","1049023","0.0-267.0","30LB5CDZNDW8GCN129HAVRSVBO90Z4","A1HFY6TQD2GBZA","3R5LWXWHR0UE010DORDQUF3E2FPGXE","","img/set1/S4.jpg","83","4","random","74","false","random,structured_incentive,structured_normal","1,2,2,3","",""
"null","","html-keyboard-response","339","1049375","0.0-268.0","30LB5CDZNDW8GCN129HAVRSVBO90Z4","A1HFY6TQD2GBZA","3R5LWXWHR0UE010DORDQUF3E2FPGXE","","<img src=""img/set1/S4.jpg"" width=""540"" height = ""360"">","null","","","","","","","",""
"null","","html-keyboard-response","340","1049378","0.0-269.0","30LB5CDZNDW8GCN129HAVRSVBO90Z4","A1HFY6TQD2GBZA","3R5LWXWHR0UE010DORDQUF3E2FPGXE","","","null","","","","","","","",""
"563.5","","image-keyboard-response","341","1049942","0.0-270.0","30LB5CDZNDW8GCN129HAVRSVBO90Z4","A1HFY6TQD2GBZA","3R5LWXWHR0UE010DORDQUF3E2FPGXE","","img/set1/S2.jpg","68","2","random","68","true","random,structured_incentive,structured_normal","1,2,2,3","",""
"null","","html-keyboard-response","342","1050303","0.0-271.0","30LB5CDZNDW8GCN129HAVRSVBO90Z4","A1HFY6TQD2GBZA","3R5LWXWHR0UE010DORDQUF3E2FPGXE","","<img src=""img/set1/S2.jpg"" width=""540"" height = ""360"" style=""border:16px solid orange"">","null","","","","","","","",""
"null","","html-keyboard-response","343","1050305","0.0-272.0","30LB5CDZNDW8GCN129HAVRSVBO90Z4","A1HFY6TQD2GBZA","3R5LWXWHR0UE010DORDQUF3E2FPGXE","","","null","","","","","","","",""
"318.2000000476837","","image-keyboard-response","344","1050625","0.0-273.0","30LB5CDZNDW8GCN129HAVRSVBO90Z4","A1HFY6TQD2GBZA","3R5LWXWHR0UE010DORDQUF3E2FPGXE","","img/set1/S2.jpg","68","2","random","68","true","random,structured_incentive,structured_normal","1,2,2,3","",""
"null","","html-keyboard-response","345","1050977","0.0-274.0","30LB5CDZNDW8GCN129HAVRSVBO90Z4","A1HFY6TQD2GBZA","3R5LWXWHR0UE010DORDQUF3E2FPGXE","","<img src=""img/set1/S2.jpg"" width=""540"" height = ""360"" style=""border:16px solid orange"">","null","","","","","","","",""
"null","","html-keyboard-response","346","1050979","0.0-275.0","30LB5CDZNDW8GCN129HAVRSVBO90Z4","A1HFY6TQD2GBZA","3R5LWXWHR0UE010DORDQUF3E2FPGXE","","","null","","","","","","","",""
"700.5","","image-keyboard-response","347","1051681","0.0-276.0","30LB5CDZNDW8GCN129HAVRSVBO90Z4","A1HFY6TQD2GBZA","3R5LWXWHR0UE010DORDQUF3E2FPGXE","","img/set1/S4.jpg","72","4","random","74","false","random,structured_incentive,structured_normal","1,2,2,3","",""
"null","","html-keyboard-response","348","1052033","0.0-277.0","30LB5CDZNDW8GCN129HAVRSVBO90Z4","A1HFY6TQD2GBZA","3R5LWXWHR0UE010DORDQUF3E2FPGXE","","<img src=""img/set1/S4.jpg"" width=""540"" height = ""360"">","null","","","","","","","",""
"null","","html-keyboard-response","349","1052035","0.0-278.0","30LB5CDZNDW8GCN129HAVRSVBO90Z4","A1HFY6TQD2GBZA","3R5LWXWHR0UE010DORDQUF3E2FPGXE","","","null","","","","","","","",""
"394.60000002384186","","image-keyboard-response","350","1052430","0.0-279.0","30LB5CDZNDW8GCN129HAVRSVBO90Z4","A1HFY6TQD2GBZA","3R5LWXWHR0UE010DORDQUF3E2FPGXE","","img/set1/S2.jpg","74","2","random","68","false","random,structured_incentive,structured_normal","1,2,2,3","",""
"null","","html-keyboard-response","351","1052784","0.0-280.0","30LB5CDZNDW8GCN129HAVRSVBO90Z4","A1HFY6TQD2GBZA","3R5LWXWHR0UE010DORDQUF3E2FPGXE","","<img src=""img/set1/S2.jpg"" width=""540"" height = ""360"">","null","","","","","","","",""
"null","","html-keyboard-response","352","1052786","0.0-281.0","30LB5CDZNDW8GCN129HAVRSVBO90Z4","A1HFY6TQD2GBZA","3R5LWXWHR0UE010DORDQUF3E2FPGXE","","","null","","","","","","","",""
"760.5","","image-keyboard-response","353","1053551","0.0-282.0","30LB5CDZNDW8GCN129HAVRSVBO90Z4","A1HFY6TQD2GBZA","3R5LWXWHR0UE010DORDQUF3E2FPGXE","","img/set1/S2.jpg","68","2","random","68","true","random,structured_incentive,structured_normal","1,2,2,3","",""
"null","","html-keyboard-response","354","1053902","0.0-283.0","30LB5CDZNDW8GCN129HAVRSVBO90Z4","A1HFY6TQD2GBZA","3R5LWXWHR0UE010DORDQUF3E2FPGXE","","<img src=""img/set1/S2.jpg"" width=""540"" height = ""360"" style=""border:16px solid orange"">","null","","","","","","","",""
"null","","html-keyboard-response","355","1053904","0.0-284.0","30LB5CDZNDW8GCN129HAVRSVBO90Z4","A1HFY6TQD2GBZA","3R5LWXWHR0UE010DORDQUF3E2FPGXE","","","null","","","","","","","",""
"820.7000000476837","","image-keyboard-response","356","1054725","0.0-285.0","30LB5CDZNDW8GCN129HAVRSVBO90Z4","A1HFY6TQD2GBZA","3R5LWXWHR0UE010DORDQUF3E2FPGXE","","img/set1/S4.jpg","68","4","random","74","false","random,structured_incentive,structured_normal","1,2,2,3","",""
"null","","html-keyboard-response","357","1055076","0.0-286.0","30LB5CDZNDW8GCN129HAVRSVBO90Z4","A1HFY6TQD2GBZA","3R5LWXWHR0UE010DORDQUF3E2FPGXE","","<img src=""img/set1/S4.jpg"" width=""540"" height = ""360"">","null","","","","","","","",""
"null","","html-keyboard-response","358","1055078","0.0-287.0","30LB5CDZNDW8GCN129HAVRSVBO90Z4","A1HFY6TQD2GBZA","3R5LWXWHR0UE010DORDQUF3E2FPGXE","","","null","","","","","","","",""
"139.19999992847443","","image-keyboard-response","359","1055217","0.0-288.0","30LB5CDZNDW8GCN129HAVRSVBO90Z4","A1HFY6TQD2GBZA","3R5LWXWHR0UE010DORDQUF3E2FPGXE","","img/set1/S1.jpg","72","1","random","83","false","random,structured_incentive,structured_normal","1,2,2,3","",""
"null","","html-keyboard-response","360","1055570","0.0-289.0","30LB5CDZNDW8GCN129HAVRSVBO90Z4","A1HFY6TQD2GBZA","3R5LWXWHR0UE010DORDQUF3E2FPGXE","","<img src=""img/set1/S1.jpg"" width=""540"" height = ""360"">","null","","","","","","","",""
"null","","html-keyboard-response","361","1055572","0.0-290.0","30LB5CDZNDW8GCN129HAVRSVBO90Z4","A1HFY6TQD2GBZA","3R5LWXWHR0UE010DORDQUF3E2FPGXE","","","null","","","","","","","",""
"1039.6999999284744","","image-keyboard-response","362","1056612","0.0-291.0","30LB5CDZNDW8GCN129HAVRSVBO90Z4","A1HFY6TQD2GBZA","3R5LWXWHR0UE010DORDQUF3E2FPGXE","","img/set1/S4.jpg","68","4","random","74","false","random,structured_incentive,structured_normal","1,2,2,3","",""
"null","","html-keyboard-response","363","1056964","0.0-292.0","30LB5CDZNDW8GCN129HAVRSVBO90Z4","A1HFY6TQD2GBZA","3R5LWXWHR0UE010DORDQUF3E2FPGXE","","<img src=""img/set1/S4.jpg"" width=""540"" height = ""360"">","null","","","","","","","",""
"null","","html-keyboard-response","364","1056966","0.0-293.0","30LB5CDZNDW8GCN129HAVRSVBO90Z4","A1HFY6TQD2GBZA","3R5LWXWHR0UE010DORDQUF3E2FPGXE","","","null","","","","","","","",""
"719.2000000476837","","image-keyboard-response","365","1057685","0.0-294.0","30LB5CDZNDW8GCN129HAVRSVBO90Z4","A1HFY6TQD2GBZA","3R5LWXWHR0UE010DORDQUF3E2FPGXE","","img/set1/S1.jpg","72","1","random","83","false","random,structured_incentive,structured_normal","1,2,2,3","",""
"null","","html-keyboard-response","366","1058037","0.0-295.0","30LB5CDZNDW8GCN129HAVRSVBO90Z4","A1HFY6TQD2GBZA","3R5LWXWHR0UE010DORDQUF3E2FPGXE","","<img src=""img/set1/S1.jpg"" width=""540"" height = ""360"">","null","","","","","","","",""
"null","","html-keyboard-response","367","1058040","0.0-296.0","30LB5CDZNDW8GCN129HAVRSVBO90Z4","A1HFY6TQD2GBZA","3R5LWXWHR0UE010DORDQUF3E2FPGXE","","","null","","","","","","","",""
"614.4000000953674","","image-keyboard-response","368","1058656","0.0-297.0","30LB5CDZNDW8GCN129HAVRSVBO90Z4","A1HFY6TQD2GBZA","3R5LWXWHR0UE010DORDQUF3E2FPGXE","","img/set1/S4.jpg","74","4","random","74","true","random,structured_incentive,structured_normal","1,2,2,3","",""
"null","","html-keyboard-response","369","1059008","0.0-298.0","30LB5CDZNDW8GCN129HAVRSVBO90Z4","A1HFY6TQD2GBZA","3R5LWXWHR0UE010DORDQUF3E2FPGXE","","<img src=""img/set1/S4.jpg"" width=""540"" height = ""360"" style=""border:16px solid orange"">","null","","","","","","","",""
"null","","html-keyboard-response","370","1059011","0.0-299.0","30LB5CDZNDW8GCN129HAVRSVBO90Z4","A1HFY6TQD2GBZA","3R5LWXWHR0UE010DORDQUF3E2FPGXE","","","null","","","","","","","",""
"597.2000000476837","","image-keyboard-response","371","1059609","0.0-300.0","30LB5CDZNDW8GCN129HAVRSVBO90Z4","A1HFY6TQD2GBZA","3R5LWXWHR0UE010DORDQUF3E2FPGXE","","img/set1/S4.jpg","74","4","random","74","true","random,structured_incentive,structured_normal","1,2,2,3","",""
"null","","html-keyboard-response","372","1059960","0.0-301.0","30LB5CDZNDW8GCN129HAVRSVBO90Z4","A1HFY6TQD2GBZA","3R5LWXWHR0UE010DORDQUF3E2FPGXE","","<img src=""img/set1/S4.jpg"" width=""540"" height = ""360"" style=""border:16px solid orange"">","null","","","","","","","",""
"null","","html-keyboard-response","373","1059962","0.0-302.0","30LB5CDZNDW8GCN129HAVRSVBO90Z4","A1HFY6TQD2GBZA","3R5LWXWHR0UE010DORDQUF3E2FPGXE","","","null","","","","","","","",""
"498.3000000715256","","image-keyboard-response","374","1060461","0.0-303.0","30LB5CDZNDW8GCN129HAVRSVBO90Z4","A1HFY6TQD2GBZA","3R5LWXWHR0UE010DORDQUF3E2FPGXE","","img/set1/S4.jpg","74","4","random","74","true","random,structured_incentive,structured_normal","1,2,2,3","",""
"null","","html-keyboard-response","375","1060814","0.0-304.0","30LB5CDZNDW8GCN129HAVRSVBO90Z4","A1HFY6TQD2GBZA","3R5LWXWHR0UE010DORDQUF3E2FPGXE","","<img src=""img/set1/S4.jpg"" width=""540"" height = ""360"" style=""border:16px solid orange"">","null","","","","","","","",""
"null","","html-keyboard-response","376","1060816","0.0-305.0","30LB5CDZNDW8GCN129HAVRSVBO90Z4","A1HFY6TQD2GBZA","3R5LWXWHR0UE010DORDQUF3E2FPGXE","","","null","","","","","","","",""
"748.8999999761581","","image-keyboard-response","377","1061566","0.0-306.0","30LB5CDZNDW8GCN129HAVRSVBO90Z4","A1HFY6TQD2GBZA","3R5LWXWHR0UE010DORDQUF3E2FPGXE","","img/set1/S4.jpg","74","4","random","74","true","random,structured_incentive,structured_normal","1,2,2,3","",""
"null","","html-keyboard-response","378","1061917","0.0-307.0","30LB5CDZNDW8GCN129HAVRSVBO90Z4","A1HFY6TQD2GBZA","3R5LWXWHR0UE010DORDQUF3E2FPGXE","","<img src=""img/set1/S4.jpg"" width=""540"" height = ""360"" style=""border:16px solid orange"">","null","","","","","","","",""
"null","","html-keyboard-response","379","1061920","0.0-308.0","30LB5CDZNDW8GCN129HAVRSVBO90Z4","A1HFY6TQD2GBZA","3R5LWXWHR0UE010DORDQUF3E2FPGXE","","","null","","","","","","","",""
"682.8999999761581","","image-keyboard-response","380","1062604","0.0-309.0","30LB5CDZNDW8GCN129HAVRSVBO90Z4","A1HFY6TQD2GBZA","3R5LWXWHR0UE010DORDQUF3E2FPGXE","","img/set1/S3.jpg","72","3","random","72","true","random,structured_incentive,structured_normal","1,2,2,3","",""
"null","","html-keyboard-response","381","1062956","0.0-310.0","30LB5CDZNDW8GCN129HAVRSVBO90Z4","A1HFY6TQD2GBZA","3R5LWXWHR0UE010DORDQUF3E2FPGXE","","<img src=""img/set1/S3.jpg"" width=""540"" height = ""360"" style=""border:16px solid orange"">","null","","","","","","","",""
"null","","html-keyboard-response","382","1062958","0.0-311.0","30LB5CDZNDW8GCN129HAVRSVBO90Z4","A1HFY6TQD2GBZA","3R5LWXWHR0UE010DORDQUF3E2FPGXE","","","null","","","","","","","",""
"513.1000000238419","","image-keyboard-response","383","1063473","0.0-312.0","30LB5CDZNDW8GCN129HAVRSVBO90Z4","A1HFY6TQD2GBZA","3R5LWXWHR0UE010DORDQUF3E2FPGXE","","img/set1/S3.jpg","72","3","random","72","true","random,structured_incentive,structured_normal","1,2,2,3","",""
"null","","html-keyboard-response","384","1063833","0.0-313.0","30LB5CDZNDW8GCN129HAVRSVBO90Z4","A1HFY6TQD2GBZA","3R5LWXWHR0UE010DORDQUF3E2FPGXE","","<img src=""img/set1/S3.jpg"" width=""540"" height = ""360"" style=""border:16px solid orange"">","null","","","","","","","",""
"null","","html-keyboard-response","385","1063835","0.0-314.0","30LB5CDZNDW8GCN129HAVRSVBO90Z4","A1HFY6TQD2GBZA","3R5LWXWHR0UE010DORDQUF3E2FPGXE","","","null","","","","","","","",""
"1644.5","","image-keyboard-response","386","1065481","0.0-315.0","30LB5CDZNDW8GCN129HAVRSVBO90Z4","A1HFY6TQD2GBZA","3R5LWXWHR0UE010DORDQUF3E2FPGXE","","img/set1/S1.jpg","68","1","random","83","false","random,structured_incentive,structured_normal","1,2,2,3","",""
"null","","html-keyboard-response","387","1065832","0.0-316.0","30LB5CDZNDW8GCN129HAVRSVBO90Z4","A1HFY6TQD2GBZA","3R5LWXWHR0UE010DORDQUF3E2FPGXE","","<img src=""img/set1/S1.jpg"" width=""540"" height = ""360"">","null","","","","","","","",""
"null","","html-keyboard-response","388","1065834","0.0-317.0","30LB5CDZNDW8GCN129HAVRSVBO90Z4","A1HFY6TQD2GBZA","3R5LWXWHR0UE010DORDQUF3E2FPGXE","","","null","","","","","","","",""
"871.2000000476837","","image-keyboard-response","389","1066706","0.0-318.0","30LB5CDZNDW8GCN129HAVRSVBO90Z4","A1HFY6TQD2GBZA","3R5LWXWHR0UE010DORDQUF3E2FPGXE","","img/set1/S3.jpg","72","3","random","72","true","random,structured_incentive,structured_normal","1,2,2,3","",""
"null","","html-keyboard-response","390","1067057","0.0-319.0","30LB5CDZNDW8GCN129HAVRSVBO90Z4","A1HFY6TQD2GBZA","3R5LWXWHR0UE010DORDQUF3E2FPGXE","","<img src=""img/set1/S3.jpg"" width=""540"" height = ""360"" style=""border:16px solid orange"">","null","","","","","","","",""
"null","","html-keyboard-response","391","1067059","0.0-320.0","30LB5CDZNDW8GCN129HAVRSVBO90Z4","A1HFY6TQD2GBZA","3R5LWXWHR0UE010DORDQUF3E2FPGXE","","","null","","","","","","","",""
"786.2000000476837","","image-keyboard-response","392","1067846","0.0-321.0","30LB5CDZNDW8GCN129HAVRSVBO90Z4","A1HFY6TQD2GBZA","3R5LWXWHR0UE010DORDQUF3E2FPGXE","","img/set1/S1.jpg","74","1","random","83","false","random,structured_incentive,structured_normal","1,2,2,3","",""
"null","","html-keyboard-response","393","1068197","0.0-322.0","30LB5CDZNDW8GCN129HAVRSVBO90Z4","A1HFY6TQD2GBZA","3R5LWXWHR0UE010DORDQUF3E2FPGXE","","<img src=""img/set1/S1.jpg"" width=""540"" height = ""360"">","null","","","","","","","",""
"null","","html-keyboard-response","394","1068199","0.0-323.0","30LB5CDZNDW8GCN129HAVRSVBO90Z4","A1HFY6TQD2GBZA","3R5LWXWHR0UE010DORDQUF3E2FPGXE","","","null","","","","","","","",""
"1128.1999999284744","","image-keyboard-response","395","1069328","0.0-324.0","30LB5CDZNDW8GCN129HAVRSVBO90Z4","A1HFY6TQD2GBZA","3R5LWXWHR0UE010DORDQUF3E2FPGXE","","img/set1/S4.jpg","72","4","random","74","false","random,structured_incentive,structured_normal","1,2,2,3","",""
"null","","html-keyboard-response","396","1069679","0.0-325.0","30LB5CDZNDW8GCN129HAVRSVBO90Z4","A1HFY6TQD2GBZA","3R5LWXWHR0UE010DORDQUF3E2FPGXE","","<img src=""img/set1/S4.jpg"" width=""540"" height = ""360"">","null","","","","","","","",""
"null","","html-keyboard-response","397","1069681","0.0-326.0","30LB5CDZNDW8GCN129HAVRSVBO90Z4","A1HFY6TQD2GBZA","3R5LWXWHR0UE010DORDQUF3E2FPGXE","","","null","","","","","","","",""
"1043.2999999523163","","image-keyboard-response","398","1070724","0.0-327.0","30LB5CDZNDW8GCN129HAVRSVBO90Z4","A1HFY6TQD2GBZA","3R5LWXWHR0UE010DORDQUF3E2FPGXE","","img/set1/S1.jpg","68","1","random","83","false","random,structured_incentive,structured_normal","1,2,2,3","",""
"null","","html-keyboard-response","399","1071077","0.0-328.0","30LB5CDZNDW8GCN129HAVRSVBO90Z4","A1HFY6TQD2GBZA","3R5LWXWHR0UE010DORDQUF3E2FPGXE","","<img src=""img/set1/S1.jpg"" width=""540"" height = ""360"">","null","","","","","","","",""
"null","","html-keyboard-response","400","1071079","0.0-329.0","30LB5CDZNDW8GCN129HAVRSVBO90Z4","A1HFY6TQD2GBZA","3R5LWXWHR0UE010DORDQUF3E2FPGXE","","","null","","","","","","","",""
"564.7000000476837","","image-keyboard-response","401","1071644","0.0-330.0","30LB5CDZNDW8GCN129HAVRSVBO90Z4","A1HFY6TQD2GBZA","3R5LWXWHR0UE010DORDQUF3E2FPGXE","","img/set1/S4.jpg","83","4","random","74","false","random,structured_incentive,structured_normal","1,2,2,3","",""
"null","","html-keyboard-response","402","1071996","0.0-331.0","30LB5CDZNDW8GCN129HAVRSVBO90Z4","A1HFY6TQD2GBZA","3R5LWXWHR0UE010DORDQUF3E2FPGXE","","<img src=""img/set1/S4.jpg"" width=""540"" height = ""360"">","null","","","","","","","",""
"null","","html-keyboard-response","403","1071998","0.0-332.0","30LB5CDZNDW8GCN129HAVRSVBO90Z4","A1HFY6TQD2GBZA","3R5LWXWHR0UE010DORDQUF3E2FPGXE","","","null","","","","","","","",""
"546.3999999761581","","image-keyboard-response","404","1072546","0.0-333.0","30LB5CDZNDW8GCN129HAVRSVBO90Z4","A1HFY6TQD2GBZA","3R5LWXWHR0UE010DORDQUF3E2FPGXE","","img/set1/S2.jpg","68","2","random","68","true","random,structured_incentive,structured_normal","1,2,2,3","",""
"null","","html-keyboard-response","405","1072898","0.0-334.0","30LB5CDZNDW8GCN129HAVRSVBO90Z4","A1HFY6TQD2GBZA","3R5LWXWHR0UE010DORDQUF3E2FPGXE","","<img src=""img/set1/S2.jpg"" width=""540"" height = ""360"" style=""border:16px solid orange"">","null","","","","","","","",""
"null","","html-keyboard-response","406","1072900","0.0-335.0","30LB5CDZNDW8GCN129HAVRSVBO90Z4","A1HFY6TQD2GBZA","3R5LWXWHR0UE010DORDQUF3E2FPGXE","","","null","","","","","","","",""
"1295.6000000238419","","image-keyboard-response","407","1074197","0.0-336.0","30LB5CDZNDW8GCN129HAVRSVBO90Z4","A1HFY6TQD2GBZA","3R5LWXWHR0UE010DORDQUF3E2FPGXE","","img/set1/S4.jpg","72","4","random","74","false","random,structured_incentive,structured_normal","1,2,2,3","",""
"null","","html-keyboard-response","408","1074549","0.0-337.0","30LB5CDZNDW8GCN129HAVRSVBO90Z4","A1HFY6TQD2GBZA","3R5LWXWHR0UE010DORDQUF3E2FPGXE","","<img src=""img/set1/S4.jpg"" width=""540"" height = ""360"">","null","","","","","","","",""
"null","","html-keyboard-response","409","1074551","0.0-338.0","30LB5CDZNDW8GCN129HAVRSVBO90Z4","A1HFY6TQD2GBZA","3R5LWXWHR0UE010DORDQUF3E2FPGXE","","","null","","","","","","","",""
"443.90000009536743","","image-keyboard-response","410","1074996","0.0-339.0","30LB5CDZNDW8GCN129HAVRSVBO90Z4","A1HFY6TQD2GBZA","3R5LWXWHR0UE010DORDQUF3E2FPGXE","","img/set1/S2.jpg","74","2","random","68","false","random,structured_incentive,structured_normal","1,2,2,3","",""
"null","","html-keyboard-response","411","1075347","0.0-340.0","30LB5CDZNDW8GCN129HAVRSVBO90Z4","A1HFY6TQD2GBZA","3R5LWXWHR0UE010DORDQUF3E2FPGXE","","<img src=""img/set1/S2.jpg"" width=""540"" height = ""360"">","null","","","","","","","",""
"null","","html-keyboard-response","412","1075349","0.0-341.0","30LB5CDZNDW8GCN129HAVRSVBO90Z4","A1HFY6TQD2GBZA","3R5LWXWHR0UE010DORDQUF3E2FPGXE","","","null","","","","","","","",""
"600.3000000715256","","image-keyboard-response","413","1075950","0.0-342.0","30LB5CDZNDW8GCN129HAVRSVBO90Z4","A1HFY6TQD2GBZA","3R5LWXWHR0UE010DORDQUF3E2FPGXE","","img/set1/S2.jpg","83","2","random","68","false","random,structured_incentive,structured_normal","1,2,2,3","",""
"null","","html-keyboard-response","414","1076302","0.0-343.0","30LB5CDZNDW8GCN129HAVRSVBO90Z4","A1HFY6TQD2GBZA","3R5LWXWHR0UE010DORDQUF3E2FPGXE","","<img src=""img/set1/S2.jpg"" width=""540"" height = ""360"">","null","","","","","","","",""
"null","","html-keyboard-response","415","1076304","0.0-344.0","30LB5CDZNDW8GCN129HAVRSVBO90Z4","A1HFY6TQD2GBZA","3R5LWXWHR0UE010DORDQUF3E2FPGXE","","","null","","","","","","","",""
"342","","image-keyboard-response","416","1076648","0.0-345.0","30LB5CDZNDW8GCN129HAVRSVBO90Z4","A1HFY6TQD2GBZA","3R5LWXWHR0UE010DORDQUF3E2FPGXE","","img/set1/S2.jpg","68","2","random","68","true","random,structured_incentive,structured_normal","1,2,2,3","",""
"null","","html-keyboard-response","417","1076999","0.0-346.0","30LB5CDZNDW8GCN129HAVRSVBO90Z4","A1HFY6TQD2GBZA","3R5LWXWHR0UE010DORDQUF3E2FPGXE","","<img src=""img/set1/S2.jpg"" width=""540"" height = ""360"" style=""border:16px solid orange"">","null","","","","","","","",""
"null","","html-keyboard-response","418","1077001","0.0-347.0","30LB5CDZNDW8GCN129HAVRSVBO90Z4","A1HFY6TQD2GBZA","3R5LWXWHR0UE010DORDQUF3E2FPGXE","","","null","","","","","","","",""
"null","","image-keyboard-response","419","1079503","0.0-348.0","30LB5CDZNDW8GCN129HAVRSVBO90Z4","A1HFY6TQD2GBZA","3R5LWXWHR0UE010DORDQUF3E2FPGXE","","img/set1/S3.jpg","null","3","random","72","false","random,structured_incentive,structured_normal","1,2,2,3","",""
"null","","html-keyboard-response","420","1079854","0.0-349.0","30LB5CDZNDW8GCN129HAVRSVBO90Z4","A1HFY6TQD2GBZA","3R5LWXWHR0UE010DORDQUF3E2FPGXE","","<img src=""img/set1/S3.jpg"" width=""540"" height = ""360"">","null","","","","","","","",""
