"rt","url","trial_type","trial_index","time_elapsed","internal_node_id","assignmentID","mturkID","hitID","view_history","stimulus","key_press","state","test_part","correct_response","correct","order_block","order_chunk","bonus","responses"
"40340.200000047684","consent.html","external-html","0","40449","0.0-0.0","32ZKVD547G98F6JIFIJQB7JZNX7B34","A1PHDT66U6IK4Q","33Q5P9PUSP8QOKKNNN5S19YACNVCZX","","","","","","","","","","",""
"303210.89999997616","","instructions","1","343660","0.0-1.0","32ZKVD547G98F6JIFIJQB7JZNX7B34","A1PHDT66U6IK4Q","33Q5P9PUSP8QOKKNNN5S19YACNVCZX","[{""page_index"":0,""viewing_time"":20611.899999976158},{""page_index"":1,""viewing_time"":26333.899999976158},{""page_index"":2,""viewing_time"":41722.10000002384},{""page_index"":3,""viewing_time"":37879.89999997616},{""page_index"":4,""viewing_time"":14438},{""page_index"":5,""viewing_time"":70766},{""page_index"":6,""viewing_time"":19893.5},{""page_index"":7,""viewing_time"":71564.5}]","","","","","","","","","",""
"null","","image-keyboard-response","2","346170","0.0-2.0-0.0","32ZKVD547G98F6JIFIJQB7JZNX7B34","A1PHDT66U6IK4Q","33Q5P9PUSP8QOKKNNN5S19YACNVCZX","","img/practice/S3.jpg","null","3","practice","72","false","","","",""
"null","","html-keyboard-response","3","346474","0.0-2.0-1.0","32ZKVD547G98F6JIFIJQB7JZNX7B34","A1PHDT66U6IK4Q","33Q5P9PUSP8QOKKNNN5S19YACNVCZX","","<img src=""img/practice/S3.jpg"" width=""540"" height = ""360"">","null","","","","","","","",""
"null","","html-keyboard-response","4","346482","0.0-2.0-2.0","32ZKVD547G98F6JIFIJQB7JZNX7B34","A1PHDT66U6IK4Q","33Q5P9PUSP8QOKKNNN5S19YACNVCZX","","","null","","","","","","","",""
"1568.6000000238419","","image-keyboard-response","5","348052","0.0-2.0-0.1","32ZKVD547G98F6JIFIJQB7JZNX7B34","A1PHDT66U6IK4Q","33Q5P9PUSP8QOKKNNN5S19YACNVCZX","","img/practice/S1.jpg","68","1","practice","83","false","","","",""
"null","","html-keyboard-response","6","348360","0.0-2.0-1.1","32ZKVD547G98F6JIFIJQB7JZNX7B34","A1PHDT66U6IK4Q","33Q5P9PUSP8QOKKNNN5S19YACNVCZX","","<img src=""img/practice/S1.jpg"" width=""540"" height = ""360"">","null","","","","","","","",""
"null","","html-keyboard-response","7","348369","0.0-2.0-2.1","32ZKVD547G98F6JIFIJQB7JZNX7B34","A1PHDT66U6IK4Q","33Q5P9PUSP8QOKKNNN5S19YACNVCZX","","","null","","","","","","","",""
"1391.7000000476837","","image-keyboard-response","8","349762","0.0-2.0-0.2","32ZKVD547G98F6JIFIJQB7JZNX7B34","A1PHDT66U6IK4Q","33Q5P9PUSP8QOKKNNN5S19YACNVCZX","","img/practice/S2.jpg","83","2","practice","68","false","","","",""
"null","","html-keyboard-response","9","350064","0.0-2.0-1.2","32ZKVD547G98F6JIFIJQB7JZNX7B34","A1PHDT66U6IK4Q","33Q5P9PUSP8QOKKNNN5S19YACNVCZX","","<img src=""img/practice/S2.jpg"" width=""540"" height = ""360"">","null","","","","","","","",""
"null","","html-keyboard-response","10","350066","0.0-2.0-2.2","32ZKVD547G98F6JIFIJQB7JZNX7B34","A1PHDT66U6IK4Q","33Q5P9PUSP8QOKKNNN5S19YACNVCZX","","","null","","","","","","","",""
"1242.5","","image-keyboard-response","11","351313","0.0-2.0-0.3","32ZKVD547G98F6JIFIJQB7JZNX7B34","A1PHDT66U6IK4Q","33Q5P9PUSP8QOKKNNN5S19YACNVCZX","","img/practice/S4.jpg","68","4","practice","74","false","","","",""
"null","","html-keyboard-response","12","351620","0.0-2.0-1.3","32ZKVD547G98F6JIFIJQB7JZNX7B34","A1PHDT66U6IK4Q","33Q5P9PUSP8QOKKNNN5S19YACNVCZX","","<img src=""img/practice/S4.jpg"" width=""540"" height = ""360"">","null","","","","","","","",""
"null","","html-keyboard-response","13","351628","0.0-2.0-2.3","32ZKVD547G98F6JIFIJQB7JZNX7B34","A1PHDT66U6IK4Q","33Q5P9PUSP8QOKKNNN5S19YACNVCZX","","","null","","","","","","","",""
"1478.8999999761581","","image-keyboard-response","14","353109","0.0-2.0-0.4","32ZKVD547G98F6JIFIJQB7JZNX7B34","A1PHDT66U6IK4Q","33Q5P9PUSP8QOKKNNN5S19YACNVCZX","","img/practice/S1.jpg","83","1","practice","83","true","","","",""
"null","","html-keyboard-response","15","353417","0.0-2.0-1.4","32ZKVD547G98F6JIFIJQB7JZNX7B34","A1PHDT66U6IK4Q","33Q5P9PUSP8QOKKNNN5S19YACNVCZX","","<img src=""img/practice/S1.jpg"" width=""540"" height = ""360"" style=""border:16px solid orange"">","null","","","","","","","",""
"null","","html-keyboard-response","16","353425","0.0-2.0-2.4","32ZKVD547G98F6JIFIJQB7JZNX7B34","A1PHDT66U6IK4Q","33Q5P9PUSP8QOKKNNN5S19YACNVCZX","","","null","","","","","","","",""
"1587.3999999761581","","image-keyboard-response","17","355014","0.0-2.0-0.5","32ZKVD547G98F6JIFIJQB7JZNX7B34","A1PHDT66U6IK4Q","33Q5P9PUSP8QOKKNNN5S19YACNVCZX","","img/practice/S3.jpg","83","3","practice","72","false","","","",""
"null","","html-keyboard-response","18","355319","0.0-2.0-1.5","32ZKVD547G98F6JIFIJQB7JZNX7B34","A1PHDT66U6IK4Q","33Q5P9PUSP8QOKKNNN5S19YACNVCZX","","<img src=""img/practice/S3.jpg"" width=""540"" height = ""360"">","null","","","","","","","",""
"null","","html-keyboard-response","19","355321","0.0-2.0-2.5","32ZKVD547G98F6JIFIJQB7JZNX7B34","A1PHDT66U6IK4Q","33Q5P9PUSP8QOKKNNN5S19YACNVCZX","","","null","","","","","","","",""
"1034.7999999523163","","image-keyboard-response","20","356357","0.0-2.0-0.6","32ZKVD547G98F6JIFIJQB7JZNX7B34","A1PHDT66U6IK4Q","33Q5P9PUSP8QOKKNNN5S19YACNVCZX","","img/practice/S2.jpg","74","2","practice","68","false","","","",""
"null","","html-keyboard-response","21","356665","0.0-2.0-1.6","32ZKVD547G98F6JIFIJQB7JZNX7B34","A1PHDT66U6IK4Q","33Q5P9PUSP8QOKKNNN5S19YACNVCZX","","<img src=""img/practice/S2.jpg"" width=""540"" height = ""360"">","null","","","","","","","",""
"null","","html-keyboard-response","22","356666","0.0-2.0-2.6","32ZKVD547G98F6JIFIJQB7JZNX7B34","A1PHDT66U6IK4Q","33Q5P9PUSP8QOKKNNN5S19YACNVCZX","","","null","","","","","","","",""
"null","","image-keyboard-response","23","359175","0.0-2.0-0.7","32ZKVD547G98F6JIFIJQB7JZNX7B34","A1PHDT66U6IK4Q","33Q5P9PUSP8QOKKNNN5S19YACNVCZX","","img/practice/S4.jpg","null","4","practice","74","false","","","",""
"null","","html-keyboard-response","24","359483","0.0-2.0-1.7","32ZKVD547G98F6JIFIJQB7JZNX7B34","A1PHDT66U6IK4Q","33Q5P9PUSP8QOKKNNN5S19YACNVCZX","","<img src=""img/practice/S4.jpg"" width=""540"" height = ""360"">","null","","","","","","","",""
"null","","html-keyboard-response","25","359491","0.0-2.0-2.7","32ZKVD547G98F6JIFIJQB7JZNX7B34","A1PHDT66U6IK4Q","33Q5P9PUSP8QOKKNNN5S19YACNVCZX","","","null","","","","","","","",""
"880.2000000476837","","image-keyboard-response","26","360372","0.0-2.0-0.8","32ZKVD547G98F6JIFIJQB7JZNX7B34","A1PHDT66U6IK4Q","33Q5P9PUSP8QOKKNNN5S19YACNVCZX","","img/practice/S3.jpg","74","3","practice","72","false","","","",""
"null","","html-keyboard-response","27","360675","0.0-2.0-1.8","32ZKVD547G98F6JIFIJQB7JZNX7B34","A1PHDT66U6IK4Q","33Q5P9PUSP8QOKKNNN5S19YACNVCZX","","<img src=""img/practice/S3.jpg"" width=""540"" height = ""360"">","null","","","","","","","",""
"null","","html-keyboard-response","28","360682","0.0-2.0-2.8","32ZKVD547G98F6JIFIJQB7JZNX7B34","A1PHDT66U6IK4Q","33Q5P9PUSP8QOKKNNN5S19YACNVCZX","","","null","","","","","","","",""
"1121.0999999046326","","image-keyboard-response","29","361805","0.0-2.0-0.9","32ZKVD547G98F6JIFIJQB7JZNX7B34","A1PHDT66U6IK4Q","33Q5P9PUSP8QOKKNNN5S19YACNVCZX","","img/practice/S4.jpg","83","4","practice","74","false","","","",""
"null","","html-keyboard-response","30","362115","0.0-2.0-1.9","32ZKVD547G98F6JIFIJQB7JZNX7B34","A1PHDT66U6IK4Q","33Q5P9PUSP8QOKKNNN5S19YACNVCZX","","<img src=""img/practice/S4.jpg"" width=""540"" height = ""360"">","null","","","","","","","",""
"null","","html-keyboard-response","31","362117","0.0-2.0-2.9","32ZKVD547G98F6JIFIJQB7JZNX7B34","A1PHDT66U6IK4Q","33Q5P9PUSP8QOKKNNN5S19YACNVCZX","","","null","","","","","","","",""
"1503.1999999284744","","image-keyboard-response","32","363621","0.0-2.0-0.10","32ZKVD547G98F6JIFIJQB7JZNX7B34","A1PHDT66U6IK4Q","33Q5P9PUSP8QOKKNNN5S19YACNVCZX","","img/practice/S2.jpg","68","2","practice","68","true","","","",""
"null","","html-keyboard-response","33","363924","0.0-2.0-1.10","32ZKVD547G98F6JIFIJQB7JZNX7B34","A1PHDT66U6IK4Q","33Q5P9PUSP8QOKKNNN5S19YACNVCZX","","<img src=""img/practice/S2.jpg"" width=""540"" height = ""360"" style=""border:16px solid orange"">","null","","","","","","","",""
"null","","html-keyboard-response","34","363932","0.0-2.0-2.10","32ZKVD547G98F6JIFIJQB7JZNX7B34","A1PHDT66U6IK4Q","33Q5P9PUSP8QOKKNNN5S19YACNVCZX","","","null","","","","","","","",""
"1171.1000000238419","","image-keyboard-response","35","365104","0.0-2.0-0.11","32ZKVD547G98F6JIFIJQB7JZNX7B34","A1PHDT66U6IK4Q","33Q5P9PUSP8QOKKNNN5S19YACNVCZX","","img/practice/S1.jpg","83","1","practice","83","true","","","",""
"null","","html-keyboard-response","36","365409","0.0-2.0-1.11","32ZKVD547G98F6JIFIJQB7JZNX7B34","A1PHDT66U6IK4Q","33Q5P9PUSP8QOKKNNN5S19YACNVCZX","","<img src=""img/practice/S1.jpg"" width=""540"" height = ""360"" style=""border:16px solid orange"">","null","","","","","","","",""
"null","","html-keyboard-response","37","365410","0.0-2.0-2.11","32ZKVD547G98F6JIFIJQB7JZNX7B34","A1PHDT66U6IK4Q","33Q5P9PUSP8QOKKNNN5S19YACNVCZX","","","null","","","","","","","",""
"1082.7000000476837","","image-keyboard-response","38","366494","0.0-2.0-0.12","32ZKVD547G98F6JIFIJQB7JZNX7B34","A1PHDT66U6IK4Q","33Q5P9PUSP8QOKKNNN5S19YACNVCZX","","img/practice/S2.jpg","68","2","practice","68","true","","","",""
"null","","html-keyboard-response","39","366801","0.0-2.0-1.12","32ZKVD547G98F6JIFIJQB7JZNX7B34","A1PHDT66U6IK4Q","33Q5P9PUSP8QOKKNNN5S19YACNVCZX","","<img src=""img/practice/S2.jpg"" width=""540"" height = ""360"" style=""border:16px solid orange"">","null","","","","","","","",""
"null","","html-keyboard-response","40","366810","0.0-2.0-2.12","32ZKVD547G98F6JIFIJQB7JZNX7B34","A1PHDT66U6IK4Q","33Q5P9PUSP8QOKKNNN5S19YACNVCZX","","","null","","","","","","","",""
"null","","image-keyboard-response","41","369312","0.0-2.0-0.13","32ZKVD547G98F6JIFIJQB7JZNX7B34","A1PHDT66U6IK4Q","33Q5P9PUSP8QOKKNNN5S19YACNVCZX","","img/practice/S3.jpg","null","3","practice","72","false","","","",""
"null","","html-keyboard-response","42","369621","0.0-2.0-1.13","32ZKVD547G98F6JIFIJQB7JZNX7B34","A1PHDT66U6IK4Q","33Q5P9PUSP8QOKKNNN5S19YACNVCZX","","<img src=""img/practice/S3.jpg"" width=""540"" height = ""360"">","null","","","","","","","",""
"null","","html-keyboard-response","43","369629","0.0-2.0-2.13","32ZKVD547G98F6JIFIJQB7JZNX7B34","A1PHDT66U6IK4Q","33Q5P9PUSP8QOKKNNN5S19YACNVCZX","","","null","","","","","","","",""
"62.299999952316284","","image-keyboard-response","44","369693","0.0-2.0-0.14","32ZKVD547G98F6JIFIJQB7JZNX7B34","A1PHDT66U6IK4Q","33Q5P9PUSP8QOKKNNN5S19YACNVCZX","","img/practice/S1.jpg","74","1","practice","83","false","","","",""
"null","","html-keyboard-response","45","370001","0.0-2.0-1.14","32ZKVD547G98F6JIFIJQB7JZNX7B34","A1PHDT66U6IK4Q","33Q5P9PUSP8QOKKNNN5S19YACNVCZX","","<img src=""img/practice/S1.jpg"" width=""540"" height = ""360"">","null","","","","","","","",""
"null","","html-keyboard-response","46","370009","0.0-2.0-2.14","32ZKVD547G98F6JIFIJQB7JZNX7B34","A1PHDT66U6IK4Q","33Q5P9PUSP8QOKKNNN5S19YACNVCZX","","","null","","","","","","","",""
"1014.6999999284744","","image-keyboard-response","47","371025","0.0-2.0-0.15","32ZKVD547G98F6JIFIJQB7JZNX7B34","A1PHDT66U6IK4Q","33Q5P9PUSP8QOKKNNN5S19YACNVCZX","","img/practice/S4.jpg","74","4","practice","74","true","","","",""
"null","","html-keyboard-response","48","371331","0.0-2.0-1.15","32ZKVD547G98F6JIFIJQB7JZNX7B34","A1PHDT66U6IK4Q","33Q5P9PUSP8QOKKNNN5S19YACNVCZX","","<img src=""img/practice/S4.jpg"" width=""540"" height = ""360"" style=""border:16px solid orange"">","null","","","","","","","",""
"null","","html-keyboard-response","49","371337","0.0-2.0-2.15","32ZKVD547G98F6JIFIJQB7JZNX7B34","A1PHDT66U6IK4Q","33Q5P9PUSP8QOKKNNN5S19YACNVCZX","","","null","","","","","","","",""
"820.8999999761581","","image-keyboard-response","50","372159","0.0-2.0-0.16","32ZKVD547G98F6JIFIJQB7JZNX7B34","A1PHDT66U6IK4Q","33Q5P9PUSP8QOKKNNN5S19YACNVCZX","","img/practice/S2.jpg","68","2","practice","68","true","","","",""
"null","","html-keyboard-response","51","372466","0.0-2.0-1.16","32ZKVD547G98F6JIFIJQB7JZNX7B34","A1PHDT66U6IK4Q","33Q5P9PUSP8QOKKNNN5S19YACNVCZX","","<img src=""img/practice/S2.jpg"" width=""540"" height = ""360"" style=""border:16px solid orange"">","null","","","","","","","",""
"null","","html-keyboard-response","52","372475","0.0-2.0-2.16","32ZKVD547G98F6JIFIJQB7JZNX7B34","A1PHDT66U6IK4Q","33Q5P9PUSP8QOKKNNN5S19YACNVCZX","","","null","","","","","","","",""
"1252.1000000238419","","image-keyboard-response","53","373728","0.0-2.0-0.17","32ZKVD547G98F6JIFIJQB7JZNX7B34","A1PHDT66U6IK4Q","33Q5P9PUSP8QOKKNNN5S19YACNVCZX","","img/practice/S4.jpg","74","4","practice","74","true","","","",""
"null","","html-keyboard-response","54","374033","0.0-2.0-1.17","32ZKVD547G98F6JIFIJQB7JZNX7B34","A1PHDT66U6IK4Q","33Q5P9PUSP8QOKKNNN5S19YACNVCZX","","<img src=""img/practice/S4.jpg"" width=""540"" height = ""360"" style=""border:16px solid orange"">","null","","","","","","","",""
"null","","html-keyboard-response","55","374041","0.0-2.0-2.17","32ZKVD547G98F6JIFIJQB7JZNX7B34","A1PHDT66U6IK4Q","33Q5P9PUSP8QOKKNNN5S19YACNVCZX","","","null","","","","","","","",""
"988.1000000238419","","image-keyboard-response","56","375030","0.0-2.0-0.18","32ZKVD547G98F6JIFIJQB7JZNX7B34","A1PHDT66U6IK4Q","33Q5P9PUSP8QOKKNNN5S19YACNVCZX","","img/practice/S3.jpg","68","3","practice","72","false","","","",""
"null","","html-keyboard-response","57","375336","0.0-2.0-1.18","32ZKVD547G98F6JIFIJQB7JZNX7B34","A1PHDT66U6IK4Q","33Q5P9PUSP8QOKKNNN5S19YACNVCZX","","<img src=""img/practice/S3.jpg"" width=""540"" height = ""360"">","null","","","","","","","",""
"null","","html-keyboard-response","58","375344","0.0-2.0-2.18","32ZKVD547G98F6JIFIJQB7JZNX7B34","A1PHDT66U6IK4Q","33Q5P9PUSP8QOKKNNN5S19YACNVCZX","","","null","","","","","","","",""
"1022.5999999046326","","image-keyboard-response","59","376368","0.0-2.0-0.19","32ZKVD547G98F6JIFIJQB7JZNX7B34","A1PHDT66U6IK4Q","33Q5P9PUSP8QOKKNNN5S19YACNVCZX","","img/practice/S1.jpg","83","1","practice","83","true","","","",""
"null","","html-keyboard-response","60","376676","0.0-2.0-1.19","32ZKVD547G98F6JIFIJQB7JZNX7B34","A1PHDT66U6IK4Q","33Q5P9PUSP8QOKKNNN5S19YACNVCZX","","<img src=""img/practice/S1.jpg"" width=""540"" height = ""360"" style=""border:16px solid orange"">","null","","","","","","","",""
"null","","html-keyboard-response","61","376678","0.0-2.0-2.19","32ZKVD547G98F6JIFIJQB7JZNX7B34","A1PHDT66U6IK4Q","33Q5P9PUSP8QOKKNNN5S19YACNVCZX","","","null","","","","","","","",""
"1555.7000000476837","","image-keyboard-response","62","378235","0.0-2.0-0.20","32ZKVD547G98F6JIFIJQB7JZNX7B34","A1PHDT66U6IK4Q","33Q5P9PUSP8QOKKNNN5S19YACNVCZX","","img/practice/S1.jpg","74","1","practice","83","false","","","",""
"null","","html-keyboard-response","63","378545","0.0-2.0-1.20","32ZKVD547G98F6JIFIJQB7JZNX7B34","A1PHDT66U6IK4Q","33Q5P9PUSP8QOKKNNN5S19YACNVCZX","","<img src=""img/practice/S1.jpg"" width=""540"" height = ""360"">","null","","","","","","","",""
"null","","html-keyboard-response","64","378553","0.0-2.0-2.20","32ZKVD547G98F6JIFIJQB7JZNX7B34","A1PHDT66U6IK4Q","33Q5P9PUSP8QOKKNNN5S19YACNVCZX","","","null","","","","","","","",""
"886.5","","image-keyboard-response","65","379440","0.0-2.0-0.21","32ZKVD547G98F6JIFIJQB7JZNX7B34","A1PHDT66U6IK4Q","33Q5P9PUSP8QOKKNNN5S19YACNVCZX","","img/practice/S2.jpg","68","2","practice","68","true","","","",""
"null","","html-keyboard-response","66","379745","0.0-2.0-1.21","32ZKVD547G98F6JIFIJQB7JZNX7B34","A1PHDT66U6IK4Q","33Q5P9PUSP8QOKKNNN5S19YACNVCZX","","<img src=""img/practice/S2.jpg"" width=""540"" height = ""360"" style=""border:16px solid orange"">","null","","","","","","","",""
"null","","html-keyboard-response","67","379747","0.0-2.0-2.21","32ZKVD547G98F6JIFIJQB7JZNX7B34","A1PHDT66U6IK4Q","33Q5P9PUSP8QOKKNNN5S19YACNVCZX","","","null","","","","","","","",""
"1044.7999999523163","","image-keyboard-response","68","380793","0.0-2.0-0.22","32ZKVD547G98F6JIFIJQB7JZNX7B34","A1PHDT66U6IK4Q","33Q5P9PUSP8QOKKNNN5S19YACNVCZX","","img/practice/S3.jpg","74","3","practice","72","false","","","",""
"null","","html-keyboard-response","69","381101","0.0-2.0-1.22","32ZKVD547G98F6JIFIJQB7JZNX7B34","A1PHDT66U6IK4Q","33Q5P9PUSP8QOKKNNN5S19YACNVCZX","","<img src=""img/practice/S3.jpg"" width=""540"" height = ""360"">","null","","","","","","","",""
"null","","html-keyboard-response","70","381109","0.0-2.0-2.22","32ZKVD547G98F6JIFIJQB7JZNX7B34","A1PHDT66U6IK4Q","33Q5P9PUSP8QOKKNNN5S19YACNVCZX","","","null","","","","","","","",""
"1091.1000000238419","","image-keyboard-response","71","382202","0.0-2.0-0.23","32ZKVD547G98F6JIFIJQB7JZNX7B34","A1PHDT66U6IK4Q","33Q5P9PUSP8QOKKNNN5S19YACNVCZX","","img/practice/S4.jpg","74","4","practice","74","true","","","",""
"null","","html-keyboard-response","72","382503","0.0-2.0-1.23","32ZKVD547G98F6JIFIJQB7JZNX7B34","A1PHDT66U6IK4Q","33Q5P9PUSP8QOKKNNN5S19YACNVCZX","","<img src=""img/practice/S4.jpg"" width=""540"" height = ""360"" style=""border:16px solid orange"">","null","","","","","","","",""
"null","","html-keyboard-response","73","382505","0.0-2.0-2.23","32ZKVD547G98F6JIFIJQB7JZNX7B34","A1PHDT66U6IK4Q","33Q5P9PUSP8QOKKNNN5S19YACNVCZX","","","null","","","","","","","",""
"12675","","instructions","74","395181","0.0-3.0","32ZKVD547G98F6JIFIJQB7JZNX7B34","A1PHDT66U6IK4Q","33Q5P9PUSP8QOKKNNN5S19YACNVCZX","[{""page_index"":0,""viewing_time"":12674.800000071526}]","","","","","","","","","",""
"33505.60000002384","","instructions","75","428680","0.0-4.0","32ZKVD547G98F6JIFIJQB7JZNX7B34","A1PHDT66U6IK4Q","33Q5P9PUSP8QOKKNNN5S19YACNVCZX","[{""page_index"":0,""viewing_time"":33505.299999952316}]","","","","","","","","","",""
"51139","","instructions","76","479823","0.0-5.0","32ZKVD547G98F6JIFIJQB7JZNX7B34","A1PHDT66U6IK4Q","33Q5P9PUSP8QOKKNNN5S19YACNVCZX","[{""page_index"":0,""viewing_time"":33905},{""page_index"":1,""viewing_time"":17233.700000047684}]","","","","","","","","","",""
"1666.1000000238419","","image-keyboard-response","77","481490","0.0-6.0","32ZKVD547G98F6JIFIJQB7JZNX7B34","A1PHDT66U6IK4Q","33Q5P9PUSP8QOKKNNN5S19YACNVCZX","","img/set1/S1.jpg","72","1","structured_incentive","83","false","structured_incentive,random,structured_normal","1,2,2,3","",""
"null","","html-keyboard-response","78","481844","0.0-7.0","32ZKVD547G98F6JIFIJQB7JZNX7B34","A1PHDT66U6IK4Q","33Q5P9PUSP8QOKKNNN5S19YACNVCZX","","<img src=""img/set1/S1.jpg"" width=""540"" height = ""360"">","null","","","","","","","",""
"null","","html-keyboard-response","79","481853","0.0-8.0","32ZKVD547G98F6JIFIJQB7JZNX7B34","A1PHDT66U6IK4Q","33Q5P9PUSP8QOKKNNN5S19YACNVCZX","","","null","","","","","","","",""
"982.8000000715256","","image-keyboard-response","80","482836","0.0-9.0","32ZKVD547G98F6JIFIJQB7JZNX7B34","A1PHDT66U6IK4Q","33Q5P9PUSP8QOKKNNN5S19YACNVCZX","","img/set1/S2.jpg","72","2","structured_incentive","68","false","structured_incentive,random,structured_normal","1,2,2,3","",""
"null","","html-keyboard-response","81","483192","0.0-10.0","32ZKVD547G98F6JIFIJQB7JZNX7B34","A1PHDT66U6IK4Q","33Q5P9PUSP8QOKKNNN5S19YACNVCZX","","<img src=""img/set1/S2.jpg"" width=""540"" height = ""360"">","null","","","","","","","",""
"null","","html-keyboard-response","82","483194","0.0-11.0","32ZKVD547G98F6JIFIJQB7JZNX7B34","A1PHDT66U6IK4Q","33Q5P9PUSP8QOKKNNN5S19YACNVCZX","","","null","","","","","","","",""
"736.1999999284744","","image-keyboard-response","83","483931","0.0-12.0","32ZKVD547G98F6JIFIJQB7JZNX7B34","A1PHDT66U6IK4Q","33Q5P9PUSP8QOKKNNN5S19YACNVCZX","","img/set1/S4.jpg","74","4","structured_incentive","74","true","structured_incentive,random,structured_normal","1,2,2,3","",""
"null","","html-keyboard-response","84","484285","0.0-13.0","32ZKVD547G98F6JIFIJQB7JZNX7B34","A1PHDT66U6IK4Q","33Q5P9PUSP8QOKKNNN5S19YACNVCZX","","<img src=""img/set1/S4.jpg"" width=""540"" height = ""360"" style=""border:16px solid orange"">","null","","","","","","","",""
"null","","html-keyboard-response","85","484287","0.0-14.0","32ZKVD547G98F6JIFIJQB7JZNX7B34","A1PHDT66U6IK4Q","33Q5P9PUSP8QOKKNNN5S19YACNVCZX","","","null","","","","","","","",""
"1536.3999999761581","","image-keyboard-response","86","485825","0.0-15.0","32ZKVD547G98F6JIFIJQB7JZNX7B34","A1PHDT66U6IK4Q","33Q5P9PUSP8QOKKNNN5S19YACNVCZX","","img/set1/S1.jpg","72","1","structured_incentive","83","false","structured_incentive,random,structured_normal","1,2,2,3","",""
"null","","html-keyboard-response","87","486179","0.0-16.0","32ZKVD547G98F6JIFIJQB7JZNX7B34","A1PHDT66U6IK4Q","33Q5P9PUSP8QOKKNNN5S19YACNVCZX","","<img src=""img/set1/S1.jpg"" width=""540"" height = ""360"">","null","","","","","","","",""
"null","","html-keyboard-response","88","486187","0.0-17.0","32ZKVD547G98F6JIFIJQB7JZNX7B34","A1PHDT66U6IK4Q","33Q5P9PUSP8QOKKNNN5S19YACNVCZX","","","null","","","","","","","",""
"1009.6000000238419","","image-keyboard-response","89","487198","0.0-18.0","32ZKVD547G98F6JIFIJQB7JZNX7B34","A1PHDT66U6IK4Q","33Q5P9PUSP8QOKKNNN5S19YACNVCZX","","img/set1/S2.jpg","74","2","structured_incentive","68","false","structured_incentive,random,structured_normal","1,2,2,3","",""
"null","","html-keyboard-response","90","487557","0.0-19.0","32ZKVD547G98F6JIFIJQB7JZNX7B34","A1PHDT66U6IK4Q","33Q5P9PUSP8QOKKNNN5S19YACNVCZX","","<img src=""img/set1/S2.jpg"" width=""540"" height = ""360"">","null","","","","","","","",""
"null","","html-keyboard-response","91","487565","0.0-20.0","32ZKVD547G98F6JIFIJQB7JZNX7B34","A1PHDT66U6IK4Q","33Q5P9PUSP8QOKKNNN5S19YACNVCZX","","","null","","","","","","","",""
"1041","","image-keyboard-response","92","488607","0.0-21.0","32ZKVD547G98F6JIFIJQB7JZNX7B34","A1PHDT66U6IK4Q","33Q5P9PUSP8QOKKNNN5S19YACNVCZX","","img/set1/S3.jpg","72","3","structured_incentive","72","true","structured_incentive,random,structured_normal","1,2,2,3","",""
"null","","html-keyboard-response","93","488965","0.0-22.0","32ZKVD547G98F6JIFIJQB7JZNX7B34","A1PHDT66U6IK4Q","33Q5P9PUSP8QOKKNNN5S19YACNVCZX","","<img src=""img/set1/S3.jpg"" width=""540"" height = ""360"" style=""border:16px solid Violet"">","null","","","","","","","",""
"null","","html-keyboard-response","94","488967","0.0-23.0","32ZKVD547G98F6JIFIJQB7JZNX7B34","A1PHDT66U6IK4Q","33Q5P9PUSP8QOKKNNN5S19YACNVCZX","","","null","","","","","","","",""
"1295.3000000715256","","image-keyboard-response","95","490264","0.0-24.0","32ZKVD547G98F6JIFIJQB7JZNX7B34","A1PHDT66U6IK4Q","33Q5P9PUSP8QOKKNNN5S19YACNVCZX","","img/set1/S2.jpg","83","2","structured_incentive","68","false","structured_incentive,random,structured_normal","1,2,2,3","",""
"null","","html-keyboard-response","96","490619","0.0-25.0","32ZKVD547G98F6JIFIJQB7JZNX7B34","A1PHDT66U6IK4Q","33Q5P9PUSP8QOKKNNN5S19YACNVCZX","","<img src=""img/set1/S2.jpg"" width=""540"" height = ""360"">","null","","","","","","","",""
"null","","html-keyboard-response","97","490620","0.0-26.0","32ZKVD547G98F6JIFIJQB7JZNX7B34","A1PHDT66U6IK4Q","33Q5P9PUSP8QOKKNNN5S19YACNVCZX","","","null","","","","","","","",""
"1190.2999999523163","","image-keyboard-response","98","491812","0.0-27.0","32ZKVD547G98F6JIFIJQB7JZNX7B34","A1PHDT66U6IK4Q","33Q5P9PUSP8QOKKNNN5S19YACNVCZX","","img/set1/S4.jpg","68","4","structured_incentive","74","false","structured_incentive,random,structured_normal","1,2,2,3","",""
"null","","html-keyboard-response","99","492167","0.0-28.0","32ZKVD547G98F6JIFIJQB7JZNX7B34","A1PHDT66U6IK4Q","33Q5P9PUSP8QOKKNNN5S19YACNVCZX","","<img src=""img/set1/S4.jpg"" width=""540"" height = ""360"">","null","","","","","","","",""
"null","","html-keyboard-response","100","492175","0.0-29.0","32ZKVD547G98F6JIFIJQB7JZNX7B34","A1PHDT66U6IK4Q","33Q5P9PUSP8QOKKNNN5S19YACNVCZX","","","null","","","","","","","",""
"1140.5","","image-keyboard-response","101","493317","0.0-30.0","32ZKVD547G98F6JIFIJQB7JZNX7B34","A1PHDT66U6IK4Q","33Q5P9PUSP8QOKKNNN5S19YACNVCZX","","img/set1/S3.jpg","68","3","structured_incentive","72","false","structured_incentive,random,structured_normal","1,2,2,3","",""
"null","","html-keyboard-response","102","493672","0.0-31.0","32ZKVD547G98F6JIFIJQB7JZNX7B34","A1PHDT66U6IK4Q","33Q5P9PUSP8QOKKNNN5S19YACNVCZX","","<img src=""img/set1/S3.jpg"" width=""540"" height = ""360"">","null","","","","","","","",""
"null","","html-keyboard-response","103","493680","0.0-32.0","32ZKVD547G98F6JIFIJQB7JZNX7B34","A1PHDT66U6IK4Q","33Q5P9PUSP8QOKKNNN5S19YACNVCZX","","","null","","","","","","","",""
"935","","image-keyboard-response","104","494616","0.0-33.0","32ZKVD547G98F6JIFIJQB7JZNX7B34","A1PHDT66U6IK4Q","33Q5P9PUSP8QOKKNNN5S19YACNVCZX","","img/set1/S4.jpg","74","4","structured_incentive","74","true","structured_incentive,random,structured_normal","1,2,2,3","",""
"null","","html-keyboard-response","105","494967","0.0-34.0","32ZKVD547G98F6JIFIJQB7JZNX7B34","A1PHDT66U6IK4Q","33Q5P9PUSP8QOKKNNN5S19YACNVCZX","","<img src=""img/set1/S4.jpg"" width=""540"" height = ""360"" style=""border:16px solid orange"">","null","","","","","","","",""
"null","","html-keyboard-response","106","494969","0.0-35.0","32ZKVD547G98F6JIFIJQB7JZNX7B34","A1PHDT66U6IK4Q","33Q5P9PUSP8QOKKNNN5S19YACNVCZX","","","null","","","","","","","",""
"1028.3999999761581","","image-keyboard-response","107","495999","0.0-36.0","32ZKVD547G98F6JIFIJQB7JZNX7B34","A1PHDT66U6IK4Q","33Q5P9PUSP8QOKKNNN5S19YACNVCZX","","img/set1/S1.jpg","72","1","structured_incentive","83","false","structured_incentive,random,structured_normal","1,2,2,3","",""
"null","","html-keyboard-response","108","496357","0.0-37.0","32ZKVD547G98F6JIFIJQB7JZNX7B34","A1PHDT66U6IK4Q","33Q5P9PUSP8QOKKNNN5S19YACNVCZX","","<img src=""img/set1/S1.jpg"" width=""540"" height = ""360"">","null","","","","","","","",""
"null","","html-keyboard-response","109","496366","0.0-38.0","32ZKVD547G98F6JIFIJQB7JZNX7B34","A1PHDT66U6IK4Q","33Q5P9PUSP8QOKKNNN5S19YACNVCZX","","","null","","","","","","","",""
"1127.0999999046326","","image-keyboard-response","110","497494","0.0-39.0","32ZKVD547G98F6JIFIJQB7JZNX7B34","A1PHDT66U6IK4Q","33Q5P9PUSP8QOKKNNN5S19YACNVCZX","","img/set1/S2.jpg","83","2","structured_incentive","68","false","structured_incentive,random,structured_normal","1,2,2,3","",""
"null","","html-keyboard-response","111","497853","0.0-40.0","32ZKVD547G98F6JIFIJQB7JZNX7B34","A1PHDT66U6IK4Q","33Q5P9PUSP8QOKKNNN5S19YACNVCZX","","<img src=""img/set1/S2.jpg"" width=""540"" height = ""360"">","null","","","","","","","",""
"null","","html-keyboard-response","112","497861","0.0-41.0","32ZKVD547G98F6JIFIJQB7JZNX7B34","A1PHDT66U6IK4Q","33Q5P9PUSP8QOKKNNN5S19YACNVCZX","","","null","","","","","","","",""
"860.3999999761581","","image-keyboard-response","113","498723","0.0-42.0","32ZKVD547G98F6JIFIJQB7JZNX7B34","A1PHDT66U6IK4Q","33Q5P9PUSP8QOKKNNN5S19YACNVCZX","","img/set1/S1.jpg","68","1","structured_incentive","83","false","structured_incentive,random,structured_normal","1,2,2,3","",""
"null","","html-keyboard-response","114","499079","0.0-43.0","32ZKVD547G98F6JIFIJQB7JZNX7B34","A1PHDT66U6IK4Q","33Q5P9PUSP8QOKKNNN5S19YACNVCZX","","<img src=""img/set1/S1.jpg"" width=""540"" height = ""360"">","null","","","","","","","",""
"null","","html-keyboard-response","115","499087","0.0-44.0","32ZKVD547G98F6JIFIJQB7JZNX7B34","A1PHDT66U6IK4Q","33Q5P9PUSP8QOKKNNN5S19YACNVCZX","","","null","","","","","","","",""
"908.6000000238419","","image-keyboard-response","116","499997","0.0-45.0","32ZKVD547G98F6JIFIJQB7JZNX7B34","A1PHDT66U6IK4Q","33Q5P9PUSP8QOKKNNN5S19YACNVCZX","","img/set1/S2.jpg","72","2","structured_incentive","68","false","structured_incentive,random,structured_normal","1,2,2,3","",""
"null","","html-keyboard-response","117","500351","0.0-46.0","32ZKVD547G98F6JIFIJQB7JZNX7B34","A1PHDT66U6IK4Q","33Q5P9PUSP8QOKKNNN5S19YACNVCZX","","<img src=""img/set1/S2.jpg"" width=""540"" height = ""360"">","null","","","","","","","",""
"null","","html-keyboard-response","118","500353","0.0-47.0","32ZKVD547G98F6JIFIJQB7JZNX7B34","A1PHDT66U6IK4Q","33Q5P9PUSP8QOKKNNN5S19YACNVCZX","","","null","","","","","","","",""
"927.8000000715256","","image-keyboard-response","119","501282","0.0-48.0","32ZKVD547G98F6JIFIJQB7JZNX7B34","A1PHDT66U6IK4Q","33Q5P9PUSP8QOKKNNN5S19YACNVCZX","","img/set1/S1.jpg","72","1","structured_incentive","83","false","structured_incentive,random,structured_normal","1,2,2,3","",""
"null","","html-keyboard-response","120","501638","0.0-49.0","32ZKVD547G98F6JIFIJQB7JZNX7B34","A1PHDT66U6IK4Q","33Q5P9PUSP8QOKKNNN5S19YACNVCZX","","<img src=""img/set1/S1.jpg"" width=""540"" height = ""360"">","null","","","","","","","",""
"null","","html-keyboard-response","121","501639","0.0-50.0","32ZKVD547G98F6JIFIJQB7JZNX7B34","A1PHDT66U6IK4Q","33Q5P9PUSP8QOKKNNN5S19YACNVCZX","","","null","","","","","","","",""
"792","","image-keyboard-response","122","502433","0.0-51.0","32ZKVD547G98F6JIFIJQB7JZNX7B34","A1PHDT66U6IK4Q","33Q5P9PUSP8QOKKNNN5S19YACNVCZX","","img/set1/S2.jpg","68","2","structured_incentive","68","true","structured_incentive,random,structured_normal","1,2,2,3","",""
"null","","html-keyboard-response","123","502787","0.0-52.0","32ZKVD547G98F6JIFIJQB7JZNX7B34","A1PHDT66U6IK4Q","33Q5P9PUSP8QOKKNNN5S19YACNVCZX","","<img src=""img/set1/S2.jpg"" width=""540"" height = ""360"" style=""border:16px solid orange"">","null","","","","","","","",""
"null","","html-keyboard-response","124","502789","0.0-53.0","32ZKVD547G98F6JIFIJQB7JZNX7B34","A1PHDT66U6IK4Q","33Q5P9PUSP8QOKKNNN5S19YACNVCZX","","","null","","","","","","","",""
"1095.4000000953674","","image-keyboard-response","125","503885","0.0-54.0","32ZKVD547G98F6JIFIJQB7JZNX7B34","A1PHDT66U6IK4Q","33Q5P9PUSP8QOKKNNN5S19YACNVCZX","","img/set1/S2.jpg","83","2","structured_incentive","68","false","structured_incentive,random,structured_normal","1,2,2,3","",""
"null","","html-keyboard-response","126","504245","0.0-55.0","32ZKVD547G98F6JIFIJQB7JZNX7B34","A1PHDT66U6IK4Q","33Q5P9PUSP8QOKKNNN5S19YACNVCZX","","<img src=""img/set1/S2.jpg"" width=""540"" height = ""360"">","null","","","","","","","",""
"null","","html-keyboard-response","127","504247","0.0-56.0","32ZKVD547G98F6JIFIJQB7JZNX7B34","A1PHDT66U6IK4Q","33Q5P9PUSP8QOKKNNN5S19YACNVCZX","","","null","","","","","","","",""
"1087.7000000476837","","image-keyboard-response","128","505336","0.0-57.0","32ZKVD547G98F6JIFIJQB7JZNX7B34","A1PHDT66U6IK4Q","33Q5P9PUSP8QOKKNNN5S19YACNVCZX","","img/set1/S4.jpg","74","4","structured_incentive","74","true","structured_incentive,random,structured_normal","1,2,2,3","",""
"null","","html-keyboard-response","129","505693","0.0-58.0","32ZKVD547G98F6JIFIJQB7JZNX7B34","A1PHDT66U6IK4Q","33Q5P9PUSP8QOKKNNN5S19YACNVCZX","","<img src=""img/set1/S4.jpg"" width=""540"" height = ""360"" style=""border:16px solid orange"">","null","","","","","","","",""
"null","","html-keyboard-response","130","505695","0.0-59.0","32ZKVD547G98F6JIFIJQB7JZNX7B34","A1PHDT66U6IK4Q","33Q5P9PUSP8QOKKNNN5S19YACNVCZX","","","null","","","","","","","",""
"1124.6000000238419","","image-keyboard-response","131","506820","0.0-60.0","32ZKVD547G98F6JIFIJQB7JZNX7B34","A1PHDT66U6IK4Q","33Q5P9PUSP8QOKKNNN5S19YACNVCZX","","img/set1/S3.jpg","72","3","structured_incentive","72","true","structured_incentive,random,structured_normal","1,2,2,3","",""
"null","","html-keyboard-response","132","507182","0.0-61.0","32ZKVD547G98F6JIFIJQB7JZNX7B34","A1PHDT66U6IK4Q","33Q5P9PUSP8QOKKNNN5S19YACNVCZX","","<img src=""img/set1/S3.jpg"" width=""540"" height = ""360"" style=""border:16px solid Violet"">","null","","","","","","","",""
"null","","html-keyboard-response","133","507183","0.0-62.0","32ZKVD547G98F6JIFIJQB7JZNX7B34","A1PHDT66U6IK4Q","33Q5P9PUSP8QOKKNNN5S19YACNVCZX","","","null","","","","","","","",""
"1160.6000000238419","","image-keyboard-response","134","508345","0.0-63.0","32ZKVD547G98F6JIFIJQB7JZNX7B34","A1PHDT66U6IK4Q","33Q5P9PUSP8QOKKNNN5S19YACNVCZX","","img/set1/S4.jpg","74","4","structured_incentive","74","true","structured_incentive,random,structured_normal","1,2,2,3","",""
"null","","html-keyboard-response","135","508704","0.0-64.0","32ZKVD547G98F6JIFIJQB7JZNX7B34","A1PHDT66U6IK4Q","33Q5P9PUSP8QOKKNNN5S19YACNVCZX","","<img src=""img/set1/S4.jpg"" width=""540"" height = ""360"" style=""border:16px solid orange"">","null","","","","","","","",""
"null","","html-keyboard-response","136","508706","0.0-65.0","32ZKVD547G98F6JIFIJQB7JZNX7B34","A1PHDT66U6IK4Q","33Q5P9PUSP8QOKKNNN5S19YACNVCZX","","","null","","","","","","","",""
"995.7000000476837","","image-keyboard-response","137","509703","0.0-66.0","32ZKVD547G98F6JIFIJQB7JZNX7B34","A1PHDT66U6IK4Q","33Q5P9PUSP8QOKKNNN5S19YACNVCZX","","img/set1/S1.jpg","68","1","structured_incentive","83","false","structured_incentive,random,structured_normal","1,2,2,3","",""
"null","","html-keyboard-response","138","510059","0.0-67.0","32ZKVD547G98F6JIFIJQB7JZNX7B34","A1PHDT66U6IK4Q","33Q5P9PUSP8QOKKNNN5S19YACNVCZX","","<img src=""img/set1/S1.jpg"" width=""540"" height = ""360"">","null","","","","","","","",""
"null","","html-keyboard-response","139","510067","0.0-68.0","32ZKVD547G98F6JIFIJQB7JZNX7B34","A1PHDT66U6IK4Q","33Q5P9PUSP8QOKKNNN5S19YACNVCZX","","","null","","","","","","","",""
"1270.1999999284744","","image-keyboard-response","140","511339","0.0-69.0","32ZKVD547G98F6JIFIJQB7JZNX7B34","A1PHDT66U6IK4Q","33Q5P9PUSP8QOKKNNN5S19YACNVCZX","","img/set1/S3.jpg","83","3","structured_incentive","72","false","structured_incentive,random,structured_normal","1,2,2,3","",""
"null","","html-keyboard-response","141","511691","0.0-70.0","32ZKVD547G98F6JIFIJQB7JZNX7B34","A1PHDT66U6IK4Q","33Q5P9PUSP8QOKKNNN5S19YACNVCZX","","<img src=""img/set1/S3.jpg"" width=""540"" height = ""360"">","null","","","","","","","",""
"null","","html-keyboard-response","142","511699","0.0-71.0","32ZKVD547G98F6JIFIJQB7JZNX7B34","A1PHDT66U6IK4Q","33Q5P9PUSP8QOKKNNN5S19YACNVCZX","","","null","","","","","","","",""
"1415.7999999523163","","image-keyboard-response","143","513116","0.0-72.0","32ZKVD547G98F6JIFIJQB7JZNX7B34","A1PHDT66U6IK4Q","33Q5P9PUSP8QOKKNNN5S19YACNVCZX","","img/set1/S1.jpg","68","1","structured_incentive","83","false","structured_incentive,random,structured_normal","1,2,2,3","",""
"null","","html-keyboard-response","144","513471","0.0-73.0","32ZKVD547G98F6JIFIJQB7JZNX7B34","A1PHDT66U6IK4Q","33Q5P9PUSP8QOKKNNN5S19YACNVCZX","","<img src=""img/set1/S1.jpg"" width=""540"" height = ""360"">","null","","","","","","","",""
"null","","html-keyboard-response","145","513472","0.0-74.0","32ZKVD547G98F6JIFIJQB7JZNX7B34","A1PHDT66U6IK4Q","33Q5P9PUSP8QOKKNNN5S19YACNVCZX","","","null","","","","","","","",""
"865","","image-keyboard-response","146","514339","0.0-75.0","32ZKVD547G98F6JIFIJQB7JZNX7B34","A1PHDT66U6IK4Q","33Q5P9PUSP8QOKKNNN5S19YACNVCZX","","img/set1/S2.jpg","68","2","structured_incentive","68","true","structured_incentive,random,structured_normal","1,2,2,3","",""
"null","","html-keyboard-response","147","514696","0.0-76.0","32ZKVD547G98F6JIFIJQB7JZNX7B34","A1PHDT66U6IK4Q","33Q5P9PUSP8QOKKNNN5S19YACNVCZX","","<img src=""img/set1/S2.jpg"" width=""540"" height = ""360"" style=""border:16px solid orange"">","null","","","","","","","",""
"null","","html-keyboard-response","148","514698","0.0-77.0","32ZKVD547G98F6JIFIJQB7JZNX7B34","A1PHDT66U6IK4Q","33Q5P9PUSP8QOKKNNN5S19YACNVCZX","","","null","","","","","","","",""
"1211.7000000476837","","image-keyboard-response","149","515911","0.0-78.0","32ZKVD547G98F6JIFIJQB7JZNX7B34","A1PHDT66U6IK4Q","33Q5P9PUSP8QOKKNNN5S19YACNVCZX","","img/set1/S4.jpg","74","4","structured_incentive","74","true","structured_incentive,random,structured_normal","1,2,2,3","",""
"null","","html-keyboard-response","150","516267","0.0-79.0","32ZKVD547G98F6JIFIJQB7JZNX7B34","A1PHDT66U6IK4Q","33Q5P9PUSP8QOKKNNN5S19YACNVCZX","","<img src=""img/set1/S4.jpg"" width=""540"" height = ""360"" style=""border:16px solid orange"">","null","","","","","","","",""
"null","","html-keyboard-response","151","516275","0.0-80.0","32ZKVD547G98F6JIFIJQB7JZNX7B34","A1PHDT66U6IK4Q","33Q5P9PUSP8QOKKNNN5S19YACNVCZX","","","null","","","","","","","",""
"821.1999999284744","","image-keyboard-response","152","517100","0.0-81.0","32ZKVD547G98F6JIFIJQB7JZNX7B34","A1PHDT66U6IK4Q","33Q5P9PUSP8QOKKNNN5S19YACNVCZX","","img/set1/S2.jpg","72","2","structured_incentive","68","false","structured_incentive,random,structured_normal","1,2,2,3","",""
"null","","html-keyboard-response","153","517454","0.0-82.0","32ZKVD547G98F6JIFIJQB7JZNX7B34","A1PHDT66U6IK4Q","33Q5P9PUSP8QOKKNNN5S19YACNVCZX","","<img src=""img/set1/S2.jpg"" width=""540"" height = ""360"">","null","","","","","","","",""
"null","","html-keyboard-response","154","517462","0.0-83.0","32ZKVD547G98F6JIFIJQB7JZNX7B34","A1PHDT66U6IK4Q","33Q5P9PUSP8QOKKNNN5S19YACNVCZX","","","null","","","","","","","",""
"690.8999999761581","","image-keyboard-response","155","518154","0.0-84.0","32ZKVD547G98F6JIFIJQB7JZNX7B34","A1PHDT66U6IK4Q","33Q5P9PUSP8QOKKNNN5S19YACNVCZX","","img/set1/S2.jpg","68","2","structured_incentive","68","true","structured_incentive,random,structured_normal","1,2,2,3","",""
"null","","html-keyboard-response","156","518515","0.0-85.0","32ZKVD547G98F6JIFIJQB7JZNX7B34","A1PHDT66U6IK4Q","33Q5P9PUSP8QOKKNNN5S19YACNVCZX","","<img src=""img/set1/S2.jpg"" width=""540"" height = ""360"" style=""border:16px solid orange"">","null","","","","","","","",""
"null","","html-keyboard-response","157","518517","0.0-86.0","32ZKVD547G98F6JIFIJQB7JZNX7B34","A1PHDT66U6IK4Q","33Q5P9PUSP8QOKKNNN5S19YACNVCZX","","","null","","","","","","","",""
"1378.8999999761581","","image-keyboard-response","158","519897","0.0-87.0","32ZKVD547G98F6JIFIJQB7JZNX7B34","A1PHDT66U6IK4Q","33Q5P9PUSP8QOKKNNN5S19YACNVCZX","","img/set1/S3.jpg","83","3","structured_incentive","72","false","structured_incentive,random,structured_normal","1,2,2,3","",""
"null","","html-keyboard-response","159","520255","0.0-88.0","32ZKVD547G98F6JIFIJQB7JZNX7B34","A1PHDT66U6IK4Q","33Q5P9PUSP8QOKKNNN5S19YACNVCZX","","<img src=""img/set1/S3.jpg"" width=""540"" height = ""360"">","null","","","","","","","",""
"null","","html-keyboard-response","160","520263","0.0-89.0","32ZKVD547G98F6JIFIJQB7JZNX7B34","A1PHDT66U6IK4Q","33Q5P9PUSP8QOKKNNN5S19YACNVCZX","","","null","","","","","","","",""
"864.3999999761581","","image-keyboard-response","161","521128","0.0-90.0","32ZKVD547G98F6JIFIJQB7JZNX7B34","A1PHDT66U6IK4Q","33Q5P9PUSP8QOKKNNN5S19YACNVCZX","","img/set1/S4.jpg","72","4","structured_incentive","74","false","structured_incentive,random,structured_normal","1,2,2,3","",""
"null","","html-keyboard-response","162","521484","0.0-91.0","32ZKVD547G98F6JIFIJQB7JZNX7B34","A1PHDT66U6IK4Q","33Q5P9PUSP8QOKKNNN5S19YACNVCZX","","<img src=""img/set1/S4.jpg"" width=""540"" height = ""360"">","null","","","","","","","",""
"null","","html-keyboard-response","163","521492","0.0-92.0","32ZKVD547G98F6JIFIJQB7JZNX7B34","A1PHDT66U6IK4Q","33Q5P9PUSP8QOKKNNN5S19YACNVCZX","","","null","","","","","","","",""
"881.6000000238419","","image-keyboard-response","164","522375","0.0-93.0","32ZKVD547G98F6JIFIJQB7JZNX7B34","A1PHDT66U6IK4Q","33Q5P9PUSP8QOKKNNN5S19YACNVCZX","","img/set1/S1.jpg","72","1","structured_incentive","83","false","structured_incentive,random,structured_normal","1,2,2,3","",""
"null","","html-keyboard-response","165","522729","0.0-94.0","32ZKVD547G98F6JIFIJQB7JZNX7B34","A1PHDT66U6IK4Q","33Q5P9PUSP8QOKKNNN5S19YACNVCZX","","<img src=""img/set1/S1.jpg"" width=""540"" height = ""360"">","null","","","","","","","",""
"null","","html-keyboard-response","166","522737","0.0-95.0","32ZKVD547G98F6JIFIJQB7JZNX7B34","A1PHDT66U6IK4Q","33Q5P9PUSP8QOKKNNN5S19YACNVCZX","","","null","","","","","","","",""
"1258.8999999761581","","image-keyboard-response","167","523997","0.0-96.0","32ZKVD547G98F6JIFIJQB7JZNX7B34","A1PHDT66U6IK4Q","33Q5P9PUSP8QOKKNNN5S19YACNVCZX","","img/set1/S2.jpg","74","2","structured_incentive","68","false","structured_incentive,random,structured_normal","1,2,2,3","",""
"null","","html-keyboard-response","168","524353","0.0-97.0","32ZKVD547G98F6JIFIJQB7JZNX7B34","A1PHDT66U6IK4Q","33Q5P9PUSP8QOKKNNN5S19YACNVCZX","","<img src=""img/set1/S2.jpg"" width=""540"" height = ""360"">","null","","","","","","","",""
"null","","html-keyboard-response","169","524361","0.0-98.0","32ZKVD547G98F6JIFIJQB7JZNX7B34","A1PHDT66U6IK4Q","33Q5P9PUSP8QOKKNNN5S19YACNVCZX","","","null","","","","","","","",""
"732.5","","image-keyboard-response","170","525095","0.0-99.0","32ZKVD547G98F6JIFIJQB7JZNX7B34","A1PHDT66U6IK4Q","33Q5P9PUSP8QOKKNNN5S19YACNVCZX","","img/set1/S4.jpg","74","4","structured_incentive","74","true","structured_incentive,random,structured_normal","1,2,2,3","",""
"null","","html-keyboard-response","171","525447","0.0-100.0","32ZKVD547G98F6JIFIJQB7JZNX7B34","A1PHDT66U6IK4Q","33Q5P9PUSP8QOKKNNN5S19YACNVCZX","","<img src=""img/set1/S4.jpg"" width=""540"" height = ""360"" style=""border:16px solid orange"">","null","","","","","","","",""
"null","","html-keyboard-response","172","525449","0.0-101.0","32ZKVD547G98F6JIFIJQB7JZNX7B34","A1PHDT66U6IK4Q","33Q5P9PUSP8QOKKNNN5S19YACNVCZX","","","null","","","","","","","",""
"1513.7000000476837","","image-keyboard-response","173","526964","0.0-102.0","32ZKVD547G98F6JIFIJQB7JZNX7B34","A1PHDT66U6IK4Q","33Q5P9PUSP8QOKKNNN5S19YACNVCZX","","img/set1/S4.jpg","72","4","structured_incentive","74","false","structured_incentive,random,structured_normal","1,2,2,3","",""
"null","","html-keyboard-response","174","527331","0.0-103.0","32ZKVD547G98F6JIFIJQB7JZNX7B34","A1PHDT66U6IK4Q","33Q5P9PUSP8QOKKNNN5S19YACNVCZX","","<img src=""img/set1/S4.jpg"" width=""540"" height = ""360"">","null","","","","","","","",""
"null","","html-keyboard-response","175","527339","0.0-104.0","32ZKVD547G98F6JIFIJQB7JZNX7B34","A1PHDT66U6IK4Q","33Q5P9PUSP8QOKKNNN5S19YACNVCZX","","","null","","","","","","","",""
"759.7999999523163","","image-keyboard-response","176","528100","0.0-105.0","32ZKVD547G98F6JIFIJQB7JZNX7B34","A1PHDT66U6IK4Q","33Q5P9PUSP8QOKKNNN5S19YACNVCZX","","img/set1/S3.jpg","72","3","structured_incentive","72","true","structured_incentive,random,structured_normal","1,2,2,3","",""
"null","","html-keyboard-response","177","528457","0.0-106.0","32ZKVD547G98F6JIFIJQB7JZNX7B34","A1PHDT66U6IK4Q","33Q5P9PUSP8QOKKNNN5S19YACNVCZX","","<img src=""img/set1/S3.jpg"" width=""540"" height = ""360"" style=""border:16px solid Violet"">","null","","","","","","","",""
"null","","html-keyboard-response","178","528459","0.0-107.0","32ZKVD547G98F6JIFIJQB7JZNX7B34","A1PHDT66U6IK4Q","33Q5P9PUSP8QOKKNNN5S19YACNVCZX","","","null","","","","","","","",""
"1708.5","","image-keyboard-response","179","530169","0.0-108.0","32ZKVD547G98F6JIFIJQB7JZNX7B34","A1PHDT66U6IK4Q","33Q5P9PUSP8QOKKNNN5S19YACNVCZX","","img/set1/S1.jpg","68","1","structured_incentive","83","false","structured_incentive,random,structured_normal","1,2,2,3","",""
"null","","html-keyboard-response","180","530522","0.0-109.0","32ZKVD547G98F6JIFIJQB7JZNX7B34","A1PHDT66U6IK4Q","33Q5P9PUSP8QOKKNNN5S19YACNVCZX","","<img src=""img/set1/S1.jpg"" width=""540"" height = ""360"">","null","","","","","","","",""
"null","","html-keyboard-response","181","530537","0.0-110.0","32ZKVD547G98F6JIFIJQB7JZNX7B34","A1PHDT66U6IK4Q","33Q5P9PUSP8QOKKNNN5S19YACNVCZX","","","null","","","","","","","",""
"1010.2000000476837","","image-keyboard-response","182","531548","0.0-111.0","32ZKVD547G98F6JIFIJQB7JZNX7B34","A1PHDT66U6IK4Q","33Q5P9PUSP8QOKKNNN5S19YACNVCZX","","img/set1/S3.jpg","72","3","structured_incentive","72","true","structured_incentive,random,structured_normal","1,2,2,3","",""
"null","","html-keyboard-response","183","531906","0.0-112.0","32ZKVD547G98F6JIFIJQB7JZNX7B34","A1PHDT66U6IK4Q","33Q5P9PUSP8QOKKNNN5S19YACNVCZX","","<img src=""img/set1/S3.jpg"" width=""540"" height = ""360"" style=""border:16px solid Violet"">","null","","","","","","","",""
"null","","html-keyboard-response","184","531908","0.0-113.0","32ZKVD547G98F6JIFIJQB7JZNX7B34","A1PHDT66U6IK4Q","33Q5P9PUSP8QOKKNNN5S19YACNVCZX","","","null","","","","","","","",""
"1563.5","","image-keyboard-response","185","533472","0.0-114.0","32ZKVD547G98F6JIFIJQB7JZNX7B34","A1PHDT66U6IK4Q","33Q5P9PUSP8QOKKNNN5S19YACNVCZX","","img/set1/S1.jpg","83","1","structured_incentive","83","true","structured_incentive,random,structured_normal","1,2,2,3","",""
"null","","html-keyboard-response","186","533832","0.0-115.0","32ZKVD547G98F6JIFIJQB7JZNX7B34","A1PHDT66U6IK4Q","33Q5P9PUSP8QOKKNNN5S19YACNVCZX","","<img src=""img/set1/S1.jpg"" width=""540"" height = ""360"" style=""border:16px solid orange"">","null","","","","","","","",""
"null","","html-keyboard-response","187","533834","0.0-116.0","32ZKVD547G98F6JIFIJQB7JZNX7B34","A1PHDT66U6IK4Q","33Q5P9PUSP8QOKKNNN5S19YACNVCZX","","","null","","","","","","","",""
"1263.5","","image-keyboard-response","188","535099","0.0-117.0","32ZKVD547G98F6JIFIJQB7JZNX7B34","A1PHDT66U6IK4Q","33Q5P9PUSP8QOKKNNN5S19YACNVCZX","","img/set1/S2.jpg","68","2","structured_incentive","68","true","structured_incentive,random,structured_normal","1,2,2,3","",""
"null","","html-keyboard-response","189","535457","0.0-118.0","32ZKVD547G98F6JIFIJQB7JZNX7B34","A1PHDT66U6IK4Q","33Q5P9PUSP8QOKKNNN5S19YACNVCZX","","<img src=""img/set1/S2.jpg"" width=""540"" height = ""360"" style=""border:16px solid orange"">","null","","","","","","","",""
"null","","html-keyboard-response","190","535459","0.0-119.0","32ZKVD547G98F6JIFIJQB7JZNX7B34","A1PHDT66U6IK4Q","33Q5P9PUSP8QOKKNNN5S19YACNVCZX","","","null","","","","","","","",""
"803.8999999761581","","image-keyboard-response","191","536264","0.0-120.0","32ZKVD547G98F6JIFIJQB7JZNX7B34","A1PHDT66U6IK4Q","33Q5P9PUSP8QOKKNNN5S19YACNVCZX","","img/set1/S4.jpg","74","4","structured_incentive","74","true","structured_incentive,random,structured_normal","1,2,2,3","",""
"null","","html-keyboard-response","192","536631","0.0-121.0","32ZKVD547G98F6JIFIJQB7JZNX7B34","A1PHDT66U6IK4Q","33Q5P9PUSP8QOKKNNN5S19YACNVCZX","","<img src=""img/set1/S4.jpg"" width=""540"" height = ""360"" style=""border:16px solid orange"">","null","","","","","","","",""
"null","","html-keyboard-response","193","536633","0.0-122.0","32ZKVD547G98F6JIFIJQB7JZNX7B34","A1PHDT66U6IK4Q","33Q5P9PUSP8QOKKNNN5S19YACNVCZX","","","null","","","","","","","",""
"1199.5","","image-keyboard-response","194","537833","0.0-123.0","32ZKVD547G98F6JIFIJQB7JZNX7B34","A1PHDT66U6IK4Q","33Q5P9PUSP8QOKKNNN5S19YACNVCZX","","img/set1/S2.jpg","72","2","structured_incentive","68","false","structured_incentive,random,structured_normal","1,2,2,3","",""
"null","","html-keyboard-response","195","538187","0.0-124.0","32ZKVD547G98F6JIFIJQB7JZNX7B34","A1PHDT66U6IK4Q","33Q5P9PUSP8QOKKNNN5S19YACNVCZX","","<img src=""img/set1/S2.jpg"" width=""540"" height = ""360"">","null","","","","","","","",""
"null","","html-keyboard-response","196","538196","0.0-125.0","32ZKVD547G98F6JIFIJQB7JZNX7B34","A1PHDT66U6IK4Q","33Q5P9PUSP8QOKKNNN5S19YACNVCZX","","","null","","","","","","","",""
"1049.2999999523163","","image-keyboard-response","197","539246","0.0-126.0","32ZKVD547G98F6JIFIJQB7JZNX7B34","A1PHDT66U6IK4Q","33Q5P9PUSP8QOKKNNN5S19YACNVCZX","","img/set1/S2.jpg","74","2","structured_incentive","68","false","structured_incentive,random,structured_normal","1,2,2,3","",""
"null","","html-keyboard-response","198","539602","0.0-127.0","32ZKVD547G98F6JIFIJQB7JZNX7B34","A1PHDT66U6IK4Q","33Q5P9PUSP8QOKKNNN5S19YACNVCZX","","<img src=""img/set1/S2.jpg"" width=""540"" height = ""360"">","null","","","","","","","",""
"null","","html-keyboard-response","199","539611","0.0-128.0","32ZKVD547G98F6JIFIJQB7JZNX7B34","A1PHDT66U6IK4Q","33Q5P9PUSP8QOKKNNN5S19YACNVCZX","","","null","","","","","","","",""
"1047.6000000238419","","image-keyboard-response","200","540657","0.0-129.0","32ZKVD547G98F6JIFIJQB7JZNX7B34","A1PHDT66U6IK4Q","33Q5P9PUSP8QOKKNNN5S19YACNVCZX","","img/set1/S4.jpg","74","4","structured_incentive","74","true","structured_incentive,random,structured_normal","1,2,2,3","",""
"null","","html-keyboard-response","201","541012","0.0-130.0","32ZKVD547G98F6JIFIJQB7JZNX7B34","A1PHDT66U6IK4Q","33Q5P9PUSP8QOKKNNN5S19YACNVCZX","","<img src=""img/set1/S4.jpg"" width=""540"" height = ""360"" style=""border:16px solid orange"">","null","","","","","","","",""
"null","","html-keyboard-response","202","541014","0.0-131.0","32ZKVD547G98F6JIFIJQB7JZNX7B34","A1PHDT66U6IK4Q","33Q5P9PUSP8QOKKNNN5S19YACNVCZX","","","null","","","","","","","",""
"908.2999999523163","","image-keyboard-response","203","541924","0.0-132.0","32ZKVD547G98F6JIFIJQB7JZNX7B34","A1PHDT66U6IK4Q","33Q5P9PUSP8QOKKNNN5S19YACNVCZX","","img/set1/S1.jpg","68","1","structured_incentive","83","false","structured_incentive,random,structured_normal","1,2,2,3","",""
"null","","html-keyboard-response","204","542280","0.0-133.0","32ZKVD547G98F6JIFIJQB7JZNX7B34","A1PHDT66U6IK4Q","33Q5P9PUSP8QOKKNNN5S19YACNVCZX","","<img src=""img/set1/S1.jpg"" width=""540"" height = ""360"">","null","","","","","","","",""
"null","","html-keyboard-response","205","542288","0.0-134.0","32ZKVD547G98F6JIFIJQB7JZNX7B34","A1PHDT66U6IK4Q","33Q5P9PUSP8QOKKNNN5S19YACNVCZX","","","null","","","","","","","",""
"1211.5","","image-keyboard-response","206","543501","0.0-135.0","32ZKVD547G98F6JIFIJQB7JZNX7B34","A1PHDT66U6IK4Q","33Q5P9PUSP8QOKKNNN5S19YACNVCZX","","img/set1/S2.jpg","83","2","structured_incentive","68","false","structured_incentive,random,structured_normal","1,2,2,3","",""
"null","","html-keyboard-response","207","543855","0.0-136.0","32ZKVD547G98F6JIFIJQB7JZNX7B34","A1PHDT66U6IK4Q","33Q5P9PUSP8QOKKNNN5S19YACNVCZX","","<img src=""img/set1/S2.jpg"" width=""540"" height = ""360"">","null","","","","","","","",""
"null","","html-keyboard-response","208","543865","0.0-137.0","32ZKVD547G98F6JIFIJQB7JZNX7B34","A1PHDT66U6IK4Q","33Q5P9PUSP8QOKKNNN5S19YACNVCZX","","","null","","","","","","","",""
"869","","image-keyboard-response","209","544735","0.0-138.0","32ZKVD547G98F6JIFIJQB7JZNX7B34","A1PHDT66U6IK4Q","33Q5P9PUSP8QOKKNNN5S19YACNVCZX","","img/set1/S3.jpg","72","3","structured_incentive","72","true","structured_incentive,random,structured_normal","1,2,2,3","",""
"null","","html-keyboard-response","210","545091","0.0-139.0","32ZKVD547G98F6JIFIJQB7JZNX7B34","A1PHDT66U6IK4Q","33Q5P9PUSP8QOKKNNN5S19YACNVCZX","","<img src=""img/set1/S3.jpg"" width=""540"" height = ""360"" style=""border:16px solid Violet"">","null","","","","","","","",""
"null","","html-keyboard-response","211","545093","0.0-140.0","32ZKVD547G98F6JIFIJQB7JZNX7B34","A1PHDT66U6IK4Q","33Q5P9PUSP8QOKKNNN5S19YACNVCZX","","","null","","","","","","","",""
"1002","","image-keyboard-response","212","546096","0.0-141.0","32ZKVD547G98F6JIFIJQB7JZNX7B34","A1PHDT66U6IK4Q","33Q5P9PUSP8QOKKNNN5S19YACNVCZX","","img/set1/S4.jpg","83","4","structured_incentive","74","false","structured_incentive,random,structured_normal","1,2,2,3","",""
"null","","html-keyboard-response","213","546453","0.0-142.0","32ZKVD547G98F6JIFIJQB7JZNX7B34","A1PHDT66U6IK4Q","33Q5P9PUSP8QOKKNNN5S19YACNVCZX","","<img src=""img/set1/S4.jpg"" width=""540"" height = ""360"">","null","","","","","","","",""
"null","","html-keyboard-response","214","546461","0.0-143.0","32ZKVD547G98F6JIFIJQB7JZNX7B34","A1PHDT66U6IK4Q","33Q5P9PUSP8QOKKNNN5S19YACNVCZX","","","null","","","","","","","",""
"1004.5","","image-keyboard-response","215","547467","0.0-144.0","32ZKVD547G98F6JIFIJQB7JZNX7B34","A1PHDT66U6IK4Q","33Q5P9PUSP8QOKKNNN5S19YACNVCZX","","img/set1/S3.jpg","72","3","structured_incentive","72","true","structured_incentive,random,structured_normal","1,2,2,3","",""
"null","","html-keyboard-response","216","547829","0.0-145.0","32ZKVD547G98F6JIFIJQB7JZNX7B34","A1PHDT66U6IK4Q","33Q5P9PUSP8QOKKNNN5S19YACNVCZX","","<img src=""img/set1/S3.jpg"" width=""540"" height = ""360"" style=""border:16px solid Violet"">","null","","","","","","","",""
"null","","html-keyboard-response","217","547831","0.0-146.0","32ZKVD547G98F6JIFIJQB7JZNX7B34","A1PHDT66U6IK4Q","33Q5P9PUSP8QOKKNNN5S19YACNVCZX","","","null","","","","","","","",""
"998.1999999284744","","image-keyboard-response","218","548830","0.0-147.0","32ZKVD547G98F6JIFIJQB7JZNX7B34","A1PHDT66U6IK4Q","33Q5P9PUSP8QOKKNNN5S19YACNVCZX","","img/set1/S1.jpg","72","1","structured_incentive","83","false","structured_incentive,random,structured_normal","1,2,2,3","",""
"null","","html-keyboard-response","219","549184","0.0-148.0","32ZKVD547G98F6JIFIJQB7JZNX7B34","A1PHDT66U6IK4Q","33Q5P9PUSP8QOKKNNN5S19YACNVCZX","","<img src=""img/set1/S1.jpg"" width=""540"" height = ""360"">","null","","","","","","","",""
"null","","html-keyboard-response","220","549192","0.0-149.0","32ZKVD547G98F6JIFIJQB7JZNX7B34","A1PHDT66U6IK4Q","33Q5P9PUSP8QOKKNNN5S19YACNVCZX","","","null","","","","","","","",""
"1213.3000000715256","","image-keyboard-response","221","550406","0.0-150.0","32ZKVD547G98F6JIFIJQB7JZNX7B34","A1PHDT66U6IK4Q","33Q5P9PUSP8QOKKNNN5S19YACNVCZX","","img/set1/S2.jpg","74","2","structured_incentive","68","false","structured_incentive,random,structured_normal","1,2,2,3","",""
"null","","html-keyboard-response","222","550769","0.0-151.0","32ZKVD547G98F6JIFIJQB7JZNX7B34","A1PHDT66U6IK4Q","33Q5P9PUSP8QOKKNNN5S19YACNVCZX","","<img src=""img/set1/S2.jpg"" width=""540"" height = ""360"">","null","","","","","","","",""
"null","","html-keyboard-response","223","550777","0.0-152.0","32ZKVD547G98F6JIFIJQB7JZNX7B34","A1PHDT66U6IK4Q","33Q5P9PUSP8QOKKNNN5S19YACNVCZX","","","null","","","","","","","",""
"989.6000000238419","","image-keyboard-response","224","551767","0.0-153.0","32ZKVD547G98F6JIFIJQB7JZNX7B34","A1PHDT66U6IK4Q","33Q5P9PUSP8QOKKNNN5S19YACNVCZX","","img/set1/S1.jpg","74","1","structured_incentive","83","false","structured_incentive,random,structured_normal","1,2,2,3","",""
"null","","html-keyboard-response","225","552125","0.0-154.0","32ZKVD547G98F6JIFIJQB7JZNX7B34","A1PHDT66U6IK4Q","33Q5P9PUSP8QOKKNNN5S19YACNVCZX","","<img src=""img/set1/S1.jpg"" width=""540"" height = ""360"">","null","","","","","","","",""
"null","","html-keyboard-response","226","552135","0.0-155.0","32ZKVD547G98F6JIFIJQB7JZNX7B34","A1PHDT66U6IK4Q","33Q5P9PUSP8QOKKNNN5S19YACNVCZX","","","null","","","","","","","",""
"1331.2999999523163","","image-keyboard-response","227","553468","0.0-156.0","32ZKVD547G98F6JIFIJQB7JZNX7B34","A1PHDT66U6IK4Q","33Q5P9PUSP8QOKKNNN5S19YACNVCZX","","img/set1/S2.jpg","83","2","structured_incentive","68","false","structured_incentive,random,structured_normal","1,2,2,3","",""
"null","","html-keyboard-response","228","553821","0.0-157.0","32ZKVD547G98F6JIFIJQB7JZNX7B34","A1PHDT66U6IK4Q","33Q5P9PUSP8QOKKNNN5S19YACNVCZX","","<img src=""img/set1/S2.jpg"" width=""540"" height = ""360"">","null","","","","","","","",""
"null","","html-keyboard-response","229","553828","0.0-158.0","32ZKVD547G98F6JIFIJQB7JZNX7B34","A1PHDT66U6IK4Q","33Q5P9PUSP8QOKKNNN5S19YACNVCZX","","","null","","","","","","","",""
"845.7000000476837","","image-keyboard-response","230","554675","0.0-159.0","32ZKVD547G98F6JIFIJQB7JZNX7B34","A1PHDT66U6IK4Q","33Q5P9PUSP8QOKKNNN5S19YACNVCZX","","img/set1/S4.jpg","74","4","structured_incentive","74","true","structured_incentive,random,structured_normal","1,2,2,3","",""
"null","","html-keyboard-response","231","555030","0.0-160.0","32ZKVD547G98F6JIFIJQB7JZNX7B34","A1PHDT66U6IK4Q","33Q5P9PUSP8QOKKNNN5S19YACNVCZX","","<img src=""img/set1/S4.jpg"" width=""540"" height = ""360"" style=""border:16px solid orange"">","null","","","","","","","",""
"null","","html-keyboard-response","232","555032","0.0-161.0","32ZKVD547G98F6JIFIJQB7JZNX7B34","A1PHDT66U6IK4Q","33Q5P9PUSP8QOKKNNN5S19YACNVCZX","","","null","","","","","","","",""
"1337.2000000476837","","image-keyboard-response","233","556370","0.0-162.0","32ZKVD547G98F6JIFIJQB7JZNX7B34","A1PHDT66U6IK4Q","33Q5P9PUSP8QOKKNNN5S19YACNVCZX","","img/set1/S1.jpg","72","1","structured_incentive","83","false","structured_incentive,random,structured_normal","1,2,2,3","",""
"null","","html-keyboard-response","234","556722","0.0-163.0","32ZKVD547G98F6JIFIJQB7JZNX7B34","A1PHDT66U6IK4Q","33Q5P9PUSP8QOKKNNN5S19YACNVCZX","","<img src=""img/set1/S1.jpg"" width=""540"" height = ""360"">","null","","","","","","","",""
"null","","html-keyboard-response","235","556729","0.0-164.0","32ZKVD547G98F6JIFIJQB7JZNX7B34","A1PHDT66U6IK4Q","33Q5P9PUSP8QOKKNNN5S19YACNVCZX","","","null","","","","","","","",""
"1078.1000000238419","","image-keyboard-response","236","557808","0.0-165.0","32ZKVD547G98F6JIFIJQB7JZNX7B34","A1PHDT66U6IK4Q","33Q5P9PUSP8QOKKNNN5S19YACNVCZX","","img/set1/S2.jpg","68","2","structured_incentive","68","true","structured_incentive,random,structured_normal","1,2,2,3","",""
"null","","html-keyboard-response","237","558162","0.0-166.0","32ZKVD547G98F6JIFIJQB7JZNX7B34","A1PHDT66U6IK4Q","33Q5P9PUSP8QOKKNNN5S19YACNVCZX","","<img src=""img/set1/S2.jpg"" width=""540"" height = ""360"" style=""border:16px solid orange"">","null","","","","","","","",""
"null","","html-keyboard-response","238","558164","0.0-167.0","32ZKVD547G98F6JIFIJQB7JZNX7B34","A1PHDT66U6IK4Q","33Q5P9PUSP8QOKKNNN5S19YACNVCZX","","","null","","","","","","","",""
"1088.3000000715256","","image-keyboard-response","239","559254","0.0-168.0","32ZKVD547G98F6JIFIJQB7JZNX7B34","A1PHDT66U6IK4Q","33Q5P9PUSP8QOKKNNN5S19YACNVCZX","","img/set1/S3.jpg","72","3","structured_incentive","72","true","structured_incentive,random,structured_normal","1,2,2,3","",""
"null","","html-keyboard-response","240","559611","0.0-169.0","32ZKVD547G98F6JIFIJQB7JZNX7B34","A1PHDT66U6IK4Q","33Q5P9PUSP8QOKKNNN5S19YACNVCZX","","<img src=""img/set1/S3.jpg"" width=""540"" height = ""360"" style=""border:16px solid Violet"">","null","","","","","","","",""
"null","","html-keyboard-response","241","559613","0.0-170.0","32ZKVD547G98F6JIFIJQB7JZNX7B34","A1PHDT66U6IK4Q","33Q5P9PUSP8QOKKNNN5S19YACNVCZX","","","null","","","","","","","",""
"1170.6000000238419","","image-keyboard-response","242","560784","0.0-171.0","32ZKVD547G98F6JIFIJQB7JZNX7B34","A1PHDT66U6IK4Q","33Q5P9PUSP8QOKKNNN5S19YACNVCZX","","img/set1/S1.jpg","83","1","structured_incentive","83","true","structured_incentive,random,structured_normal","1,2,2,3","",""
"null","","html-keyboard-response","243","561136","0.0-172.0","32ZKVD547G98F6JIFIJQB7JZNX7B34","A1PHDT66U6IK4Q","33Q5P9PUSP8QOKKNNN5S19YACNVCZX","","<img src=""img/set1/S1.jpg"" width=""540"" height = ""360"" style=""border:16px solid orange"">","null","","","","","","","",""
"null","","html-keyboard-response","244","561138","0.0-173.0","32ZKVD547G98F6JIFIJQB7JZNX7B34","A1PHDT66U6IK4Q","33Q5P9PUSP8QOKKNNN5S19YACNVCZX","","","null","","","","","","","",""
"838.6999999284744","","image-keyboard-response","245","561978","0.0-174.0","32ZKVD547G98F6JIFIJQB7JZNX7B34","A1PHDT66U6IK4Q","33Q5P9PUSP8QOKKNNN5S19YACNVCZX","","img/set1/S2.jpg","68","2","structured_incentive","68","true","structured_incentive,random,structured_normal","1,2,2,3","",""
"null","","html-keyboard-response","246","562336","0.0-175.0","32ZKVD547G98F6JIFIJQB7JZNX7B34","A1PHDT66U6IK4Q","33Q5P9PUSP8QOKKNNN5S19YACNVCZX","","<img src=""img/set1/S2.jpg"" width=""540"" height = ""360"" style=""border:16px solid orange"">","null","","","","","","","",""
"null","","html-keyboard-response","247","562338","0.0-176.0","32ZKVD547G98F6JIFIJQB7JZNX7B34","A1PHDT66U6IK4Q","33Q5P9PUSP8QOKKNNN5S19YACNVCZX","","","null","","","","","","","",""
"1309.8000000715256","","image-keyboard-response","248","563649","0.0-177.0","32ZKVD547G98F6JIFIJQB7JZNX7B34","A1PHDT66U6IK4Q","33Q5P9PUSP8QOKKNNN5S19YACNVCZX","","img/set1/S3.jpg","72","3","structured_incentive","72","true","structured_incentive,random,structured_normal","1,2,2,3","",""
"null","","html-keyboard-response","249","564009","0.0-178.0","32ZKVD547G98F6JIFIJQB7JZNX7B34","A1PHDT66U6IK4Q","33Q5P9PUSP8QOKKNNN5S19YACNVCZX","","<img src=""img/set1/S3.jpg"" width=""540"" height = ""360"" style=""border:16px solid Violet"">","null","","","","","","","",""
"null","","html-keyboard-response","250","564011","0.0-179.0","32ZKVD547G98F6JIFIJQB7JZNX7B34","A1PHDT66U6IK4Q","33Q5P9PUSP8QOKKNNN5S19YACNVCZX","","","null","","","","","","","",""
"734.3999999761581","","image-keyboard-response","251","564746","0.0-180.0","32ZKVD547G98F6JIFIJQB7JZNX7B34","A1PHDT66U6IK4Q","33Q5P9PUSP8QOKKNNN5S19YACNVCZX","","img/set1/S4.jpg","74","4","structured_incentive","74","true","structured_incentive,random,structured_normal","1,2,2,3","",""
"null","","html-keyboard-response","252","565098","0.0-181.0","32ZKVD547G98F6JIFIJQB7JZNX7B34","A1PHDT66U6IK4Q","33Q5P9PUSP8QOKKNNN5S19YACNVCZX","","<img src=""img/set1/S4.jpg"" width=""540"" height = ""360"" style=""border:16px solid orange"">","null","","","","","","","",""
"null","","html-keyboard-response","253","565100","0.0-182.0","32ZKVD547G98F6JIFIJQB7JZNX7B34","A1PHDT66U6IK4Q","33Q5P9PUSP8QOKKNNN5S19YACNVCZX","","","null","","","","","","","",""
"876.5","","image-keyboard-response","254","565978","0.0-183.0","32ZKVD547G98F6JIFIJQB7JZNX7B34","A1PHDT66U6IK4Q","33Q5P9PUSP8QOKKNNN5S19YACNVCZX","","img/set1/S3.jpg","72","3","structured_incentive","72","true","structured_incentive,random,structured_normal","1,2,2,3","",""
"null","","html-keyboard-response","255","566331","0.0-184.0","32ZKVD547G98F6JIFIJQB7JZNX7B34","A1PHDT66U6IK4Q","33Q5P9PUSP8QOKKNNN5S19YACNVCZX","","<img src=""img/set1/S3.jpg"" width=""540"" height = ""360"" style=""border:16px solid Violet"">","null","","","","","","","",""
"null","","html-keyboard-response","256","566333","0.0-185.0","32ZKVD547G98F6JIFIJQB7JZNX7B34","A1PHDT66U6IK4Q","33Q5P9PUSP8QOKKNNN5S19YACNVCZX","","","null","","","","","","","",""
"1082.8999999761581","","image-keyboard-response","257","567417","0.0-186.0","32ZKVD547G98F6JIFIJQB7JZNX7B34","A1PHDT66U6IK4Q","33Q5P9PUSP8QOKKNNN5S19YACNVCZX","","img/set1/S3.jpg","74","3","structured_incentive","72","false","structured_incentive,random,structured_normal","1,2,2,3","",""
"null","","html-keyboard-response","258","567768","0.0-187.0","32ZKVD547G98F6JIFIJQB7JZNX7B34","A1PHDT66U6IK4Q","33Q5P9PUSP8QOKKNNN5S19YACNVCZX","","<img src=""img/set1/S3.jpg"" width=""540"" height = ""360"">","null","","","","","","","",""
"null","","html-keyboard-response","259","567771","0.0-188.0","32ZKVD547G98F6JIFIJQB7JZNX7B34","A1PHDT66U6IK4Q","33Q5P9PUSP8QOKKNNN5S19YACNVCZX","","","null","","","","","","","",""
"196.70000004768372","","image-keyboard-response","260","567969","0.0-189.0","32ZKVD547G98F6JIFIJQB7JZNX7B34","A1PHDT66U6IK4Q","33Q5P9PUSP8QOKKNNN5S19YACNVCZX","","img/set1/S4.jpg","72","4","structured_incentive","74","false","structured_incentive,random,structured_normal","1,2,2,3","",""
"null","","html-keyboard-response","261","568325","0.0-190.0","32ZKVD547G98F6JIFIJQB7JZNX7B34","A1PHDT66U6IK4Q","33Q5P9PUSP8QOKKNNN5S19YACNVCZX","","<img src=""img/set1/S4.jpg"" width=""540"" height = ""360"">","null","","","","","","","",""
"null","","html-keyboard-response","262","568334","0.0-191.0","32ZKVD547G98F6JIFIJQB7JZNX7B34","A1PHDT66U6IK4Q","33Q5P9PUSP8QOKKNNN5S19YACNVCZX","","","null","","","","","","","",""
"209.89999997615814","","image-keyboard-response","263","568545","0.0-192.0","32ZKVD547G98F6JIFIJQB7JZNX7B34","A1PHDT66U6IK4Q","33Q5P9PUSP8QOKKNNN5S19YACNVCZX","","img/set1/S1.jpg","74","1","structured_incentive","83","false","structured_incentive,random,structured_normal","1,2,2,3","",""
"null","","html-keyboard-response","264","568900","0.0-193.0","32ZKVD547G98F6JIFIJQB7JZNX7B34","A1PHDT66U6IK4Q","33Q5P9PUSP8QOKKNNN5S19YACNVCZX","","<img src=""img/set1/S1.jpg"" width=""540"" height = ""360"">","null","","","","","","","",""
"null","","html-keyboard-response","265","568909","0.0-194.0","32ZKVD547G98F6JIFIJQB7JZNX7B34","A1PHDT66U6IK4Q","33Q5P9PUSP8QOKKNNN5S19YACNVCZX","","","null","","","","","","","",""
"905","","image-keyboard-response","266","569815","0.0-195.0","32ZKVD547G98F6JIFIJQB7JZNX7B34","A1PHDT66U6IK4Q","33Q5P9PUSP8QOKKNNN5S19YACNVCZX","","img/set1/S2.jpg","83","2","structured_incentive","68","false","structured_incentive,random,structured_normal","1,2,2,3","",""
"null","","html-keyboard-response","267","570171","0.0-196.0","32ZKVD547G98F6JIFIJQB7JZNX7B34","A1PHDT66U6IK4Q","33Q5P9PUSP8QOKKNNN5S19YACNVCZX","","<img src=""img/set1/S2.jpg"" width=""540"" height = ""360"">","null","","","","","","","",""
"null","","html-keyboard-response","268","570179","0.0-197.0","32ZKVD547G98F6JIFIJQB7JZNX7B34","A1PHDT66U6IK4Q","33Q5P9PUSP8QOKKNNN5S19YACNVCZX","","","null","","","","","","","",""
"1262.3999999761581","","image-keyboard-response","269","571443","0.0-198.0","32ZKVD547G98F6JIFIJQB7JZNX7B34","A1PHDT66U6IK4Q","33Q5P9PUSP8QOKKNNN5S19YACNVCZX","","img/set1/S1.jpg","83","1","structured_incentive","83","true","structured_incentive,random,structured_normal","1,2,2,3","",""
"null","","html-keyboard-response","270","571798","0.0-199.0","32ZKVD547G98F6JIFIJQB7JZNX7B34","A1PHDT66U6IK4Q","33Q5P9PUSP8QOKKNNN5S19YACNVCZX","","<img src=""img/set1/S1.jpg"" width=""540"" height = ""360"" style=""border:16px solid orange"">","null","","","","","","","",""
"null","","html-keyboard-response","271","571800","0.0-200.0","32ZKVD547G98F6JIFIJQB7JZNX7B34","A1PHDT66U6IK4Q","33Q5P9PUSP8QOKKNNN5S19YACNVCZX","","","null","","","","","","","",""
"922.2999999523163","","image-keyboard-response","272","572723","0.0-201.0","32ZKVD547G98F6JIFIJQB7JZNX7B34","A1PHDT66U6IK4Q","33Q5P9PUSP8QOKKNNN5S19YACNVCZX","","img/set1/S3.jpg","72","3","structured_incentive","72","true","structured_incentive,random,structured_normal","1,2,2,3","",""
"null","","html-keyboard-response","273","573077","0.0-202.0","32ZKVD547G98F6JIFIJQB7JZNX7B34","A1PHDT66U6IK4Q","33Q5P9PUSP8QOKKNNN5S19YACNVCZX","","<img src=""img/set1/S3.jpg"" width=""540"" height = ""360"" style=""border:16px solid Violet"">","null","","","","","","","",""
"null","","html-keyboard-response","274","573079","0.0-203.0","32ZKVD547G98F6JIFIJQB7JZNX7B34","A1PHDT66U6IK4Q","33Q5P9PUSP8QOKKNNN5S19YACNVCZX","","","null","","","","","","","",""
"918.5","","image-keyboard-response","275","573999","0.0-204.0","32ZKVD547G98F6JIFIJQB7JZNX7B34","A1PHDT66U6IK4Q","33Q5P9PUSP8QOKKNNN5S19YACNVCZX","","img/set1/S3.jpg","72","3","structured_incentive","72","true","structured_incentive,random,structured_normal","1,2,2,3","",""
"null","","html-keyboard-response","276","574353","0.0-205.0","32ZKVD547G98F6JIFIJQB7JZNX7B34","A1PHDT66U6IK4Q","33Q5P9PUSP8QOKKNNN5S19YACNVCZX","","<img src=""img/set1/S3.jpg"" width=""540"" height = ""360"" style=""border:16px solid Violet"">","null","","","","","","","",""
"null","","html-keyboard-response","277","574355","0.0-206.0","32ZKVD547G98F6JIFIJQB7JZNX7B34","A1PHDT66U6IK4Q","33Q5P9PUSP8QOKKNNN5S19YACNVCZX","","","null","","","","","","","",""
"1091.2999999523163","","image-keyboard-response","278","575447","0.0-207.0","32ZKVD547G98F6JIFIJQB7JZNX7B34","A1PHDT66U6IK4Q","33Q5P9PUSP8QOKKNNN5S19YACNVCZX","","img/set1/S1.jpg","83","1","structured_incentive","83","true","structured_incentive,random,structured_normal","1,2,2,3","",""
"null","","html-keyboard-response","279","575803","0.0-208.0","32ZKVD547G98F6JIFIJQB7JZNX7B34","A1PHDT66U6IK4Q","33Q5P9PUSP8QOKKNNN5S19YACNVCZX","","<img src=""img/set1/S1.jpg"" width=""540"" height = ""360"" style=""border:16px solid orange"">","null","","","","","","","",""
"null","","html-keyboard-response","280","575805","0.0-209.0","32ZKVD547G98F6JIFIJQB7JZNX7B34","A1PHDT66U6IK4Q","33Q5P9PUSP8QOKKNNN5S19YACNVCZX","","","null","","","","","","","",""
"776.2000000476837","","image-keyboard-response","281","576583","0.0-210.0","32ZKVD547G98F6JIFIJQB7JZNX7B34","A1PHDT66U6IK4Q","33Q5P9PUSP8QOKKNNN5S19YACNVCZX","","img/set1/S3.jpg","72","3","structured_incentive","72","true","structured_incentive,random,structured_normal","1,2,2,3","",""
"null","","html-keyboard-response","282","576935","0.0-211.0","32ZKVD547G98F6JIFIJQB7JZNX7B34","A1PHDT66U6IK4Q","33Q5P9PUSP8QOKKNNN5S19YACNVCZX","","<img src=""img/set1/S3.jpg"" width=""540"" height = ""360"" style=""border:16px solid Violet"">","null","","","","","","","",""
"null","","html-keyboard-response","283","576937","0.0-212.0","32ZKVD547G98F6JIFIJQB7JZNX7B34","A1PHDT66U6IK4Q","33Q5P9PUSP8QOKKNNN5S19YACNVCZX","","","null","","","","","","","",""
"600.1000000238419","","image-keyboard-response","284","577538","0.0-213.0","32ZKVD547G98F6JIFIJQB7JZNX7B34","A1PHDT66U6IK4Q","33Q5P9PUSP8QOKKNNN5S19YACNVCZX","","img/set1/S4.jpg","74","4","structured_incentive","74","true","structured_incentive,random,structured_normal","1,2,2,3","",""
"null","","html-keyboard-response","285","577894","0.0-214.0","32ZKVD547G98F6JIFIJQB7JZNX7B34","A1PHDT66U6IK4Q","33Q5P9PUSP8QOKKNNN5S19YACNVCZX","","<img src=""img/set1/S4.jpg"" width=""540"" height = ""360"" style=""border:16px solid orange"">","null","","","","","","","",""
"null","","html-keyboard-response","286","577896","0.0-215.0","32ZKVD547G98F6JIFIJQB7JZNX7B34","A1PHDT66U6IK4Q","33Q5P9PUSP8QOKKNNN5S19YACNVCZX","","","null","","","","","","","",""
"1078.7999999523163","","image-keyboard-response","287","578976","0.0-216.0","32ZKVD547G98F6JIFIJQB7JZNX7B34","A1PHDT66U6IK4Q","33Q5P9PUSP8QOKKNNN5S19YACNVCZX","","img/set1/S1.jpg","83","1","structured_incentive","83","true","structured_incentive,random,structured_normal","1,2,2,3","",""
"null","","html-keyboard-response","288","579335","0.0-217.0","32ZKVD547G98F6JIFIJQB7JZNX7B34","A1PHDT66U6IK4Q","33Q5P9PUSP8QOKKNNN5S19YACNVCZX","","<img src=""img/set1/S1.jpg"" width=""540"" height = ""360"" style=""border:16px solid orange"">","null","","","","","","","",""
"null","","html-keyboard-response","289","579337","0.0-218.0","32ZKVD547G98F6JIFIJQB7JZNX7B34","A1PHDT66U6IK4Q","33Q5P9PUSP8QOKKNNN5S19YACNVCZX","","","null","","","","","","","",""
"743.2999999523163","","image-keyboard-response","290","580082","0.0-219.0","32ZKVD547G98F6JIFIJQB7JZNX7B34","A1PHDT66U6IK4Q","33Q5P9PUSP8QOKKNNN5S19YACNVCZX","","img/set1/S3.jpg","72","3","structured_incentive","72","true","structured_incentive,random,structured_normal","1,2,2,3","",""
"null","","html-keyboard-response","291","580440","0.0-220.0","32ZKVD547G98F6JIFIJQB7JZNX7B34","A1PHDT66U6IK4Q","33Q5P9PUSP8QOKKNNN5S19YACNVCZX","","<img src=""img/set1/S3.jpg"" width=""540"" height = ""360"" style=""border:16px solid Violet"">","null","","","","","","","",""
"null","","html-keyboard-response","292","580442","0.0-221.0","32ZKVD547G98F6JIFIJQB7JZNX7B34","A1PHDT66U6IK4Q","33Q5P9PUSP8QOKKNNN5S19YACNVCZX","","","null","","","","","","","",""
"798.5","","image-keyboard-response","293","581241","0.0-222.0","32ZKVD547G98F6JIFIJQB7JZNX7B34","A1PHDT66U6IK4Q","33Q5P9PUSP8QOKKNNN5S19YACNVCZX","","img/set1/S4.jpg","74","4","structured_incentive","74","true","structured_incentive,random,structured_normal","1,2,2,3","",""
"null","","html-keyboard-response","294","581598","0.0-223.0","32ZKVD547G98F6JIFIJQB7JZNX7B34","A1PHDT66U6IK4Q","33Q5P9PUSP8QOKKNNN5S19YACNVCZX","","<img src=""img/set1/S4.jpg"" width=""540"" height = ""360"" style=""border:16px solid orange"">","null","","","","","","","",""
"null","","html-keyboard-response","295","581600","0.0-224.0","32ZKVD547G98F6JIFIJQB7JZNX7B34","A1PHDT66U6IK4Q","33Q5P9PUSP8QOKKNNN5S19YACNVCZX","","","null","","","","","","","",""
"815.8999999761581","","image-keyboard-response","296","582417","0.0-225.0","32ZKVD547G98F6JIFIJQB7JZNX7B34","A1PHDT66U6IK4Q","33Q5P9PUSP8QOKKNNN5S19YACNVCZX","","img/set1/S3.jpg","72","3","structured_incentive","72","true","structured_incentive,random,structured_normal","1,2,2,3","",""
"null","","html-keyboard-response","297","582773","0.0-226.0","32ZKVD547G98F6JIFIJQB7JZNX7B34","A1PHDT66U6IK4Q","33Q5P9PUSP8QOKKNNN5S19YACNVCZX","","<img src=""img/set1/S3.jpg"" width=""540"" height = ""360"" style=""border:16px solid Violet"">","null","","","","","","","",""
"null","","html-keyboard-response","298","582775","0.0-227.0","32ZKVD547G98F6JIFIJQB7JZNX7B34","A1PHDT66U6IK4Q","33Q5P9PUSP8QOKKNNN5S19YACNVCZX","","","null","","","","","","","",""
"966.6999999284744","","image-keyboard-response","299","583743","0.0-228.0","32ZKVD547G98F6JIFIJQB7JZNX7B34","A1PHDT66U6IK4Q","33Q5P9PUSP8QOKKNNN5S19YACNVCZX","","img/set1/S1.jpg","68","1","structured_incentive","83","false","structured_incentive,random,structured_normal","1,2,2,3","",""
"null","","html-keyboard-response","300","584099","0.0-229.0","32ZKVD547G98F6JIFIJQB7JZNX7B34","A1PHDT66U6IK4Q","33Q5P9PUSP8QOKKNNN5S19YACNVCZX","","<img src=""img/set1/S1.jpg"" width=""540"" height = ""360"">","null","","","","","","","",""
"null","","html-keyboard-response","301","584101","0.0-230.0","32ZKVD547G98F6JIFIJQB7JZNX7B34","A1PHDT66U6IK4Q","33Q5P9PUSP8QOKKNNN5S19YACNVCZX","","","null","","","","","","","",""
"786.1000000238419","","image-keyboard-response","302","584888","0.0-231.0","32ZKVD547G98F6JIFIJQB7JZNX7B34","A1PHDT66U6IK4Q","33Q5P9PUSP8QOKKNNN5S19YACNVCZX","","img/set1/S3.jpg","72","3","structured_incentive","72","true","structured_incentive,random,structured_normal","1,2,2,3","",""
"null","","html-keyboard-response","303","585246","0.0-232.0","32ZKVD547G98F6JIFIJQB7JZNX7B34","A1PHDT66U6IK4Q","33Q5P9PUSP8QOKKNNN5S19YACNVCZX","","<img src=""img/set1/S3.jpg"" width=""540"" height = ""360"" style=""border:16px solid Violet"">","null","","","","","","","",""
"null","","html-keyboard-response","304","585248","0.0-233.0","32ZKVD547G98F6JIFIJQB7JZNX7B34","A1PHDT66U6IK4Q","33Q5P9PUSP8QOKKNNN5S19YACNVCZX","","","null","","","","","","","",""
"729.3999999761581","","image-keyboard-response","305","585978","0.0-234.0","32ZKVD547G98F6JIFIJQB7JZNX7B34","A1PHDT66U6IK4Q","33Q5P9PUSP8QOKKNNN5S19YACNVCZX","","img/set1/S4.jpg","74","4","structured_incentive","74","true","structured_incentive,random,structured_normal","1,2,2,3","",""
"null","","html-keyboard-response","306","586336","0.0-235.0","32ZKVD547G98F6JIFIJQB7JZNX7B34","A1PHDT66U6IK4Q","33Q5P9PUSP8QOKKNNN5S19YACNVCZX","","<img src=""img/set1/S4.jpg"" width=""540"" height = ""360"" style=""border:16px solid orange"">","null","","","","","","","",""
"null","","html-keyboard-response","307","586338","0.0-236.0","32ZKVD547G98F6JIFIJQB7JZNX7B34","A1PHDT66U6IK4Q","33Q5P9PUSP8QOKKNNN5S19YACNVCZX","","","null","","","","","","","",""
"1481.3999999761581","","image-keyboard-response","308","587821","0.0-237.0","32ZKVD547G98F6JIFIJQB7JZNX7B34","A1PHDT66U6IK4Q","33Q5P9PUSP8QOKKNNN5S19YACNVCZX","","img/set1/S2.jpg","68","2","structured_incentive","68","true","structured_incentive,random,structured_normal","1,2,2,3","",""
"null","","html-keyboard-response","309","588178","0.0-238.0","32ZKVD547G98F6JIFIJQB7JZNX7B34","A1PHDT66U6IK4Q","33Q5P9PUSP8QOKKNNN5S19YACNVCZX","","<img src=""img/set1/S2.jpg"" width=""540"" height = ""360"" style=""border:16px solid orange"">","null","","","","","","","",""
"null","","html-keyboard-response","310","588180","0.0-239.0","32ZKVD547G98F6JIFIJQB7JZNX7B34","A1PHDT66U6IK4Q","33Q5P9PUSP8QOKKNNN5S19YACNVCZX","","","null","","","","","","","",""
"881.5","","image-keyboard-response","311","589063","0.0-240.0","32ZKVD547G98F6JIFIJQB7JZNX7B34","A1PHDT66U6IK4Q","33Q5P9PUSP8QOKKNNN5S19YACNVCZX","","img/set1/S1.jpg","83","1","structured_incentive","83","true","structured_incentive,random,structured_normal","1,2,2,3","",""
"null","","html-keyboard-response","312","589414","0.0-241.0","32ZKVD547G98F6JIFIJQB7JZNX7B34","A1PHDT66U6IK4Q","33Q5P9PUSP8QOKKNNN5S19YACNVCZX","","<img src=""img/set1/S1.jpg"" width=""540"" height = ""360"" style=""border:16px solid orange"">","null","","","","","","","",""
"null","","html-keyboard-response","313","589416","0.0-242.0","32ZKVD547G98F6JIFIJQB7JZNX7B34","A1PHDT66U6IK4Q","33Q5P9PUSP8QOKKNNN5S19YACNVCZX","","","null","","","","","","","",""
"761.5","","image-keyboard-response","314","590179","0.0-243.0","32ZKVD547G98F6JIFIJQB7JZNX7B34","A1PHDT66U6IK4Q","33Q5P9PUSP8QOKKNNN5S19YACNVCZX","","img/set1/S2.jpg","68","2","structured_incentive","68","true","structured_incentive,random,structured_normal","1,2,2,3","",""
"null","","html-keyboard-response","315","590536","0.0-244.0","32ZKVD547G98F6JIFIJQB7JZNX7B34","A1PHDT66U6IK4Q","33Q5P9PUSP8QOKKNNN5S19YACNVCZX","","<img src=""img/set1/S2.jpg"" width=""540"" height = ""360"" style=""border:16px solid orange"">","null","","","","","","","",""
"null","","html-keyboard-response","316","590538","0.0-245.0","32ZKVD547G98F6JIFIJQB7JZNX7B34","A1PHDT66U6IK4Q","33Q5P9PUSP8QOKKNNN5S19YACNVCZX","","","null","","","","","","","",""
"1148.5","","image-keyboard-response","317","591688","0.0-246.0","32ZKVD547G98F6JIFIJQB7JZNX7B34","A1PHDT66U6IK4Q","33Q5P9PUSP8QOKKNNN5S19YACNVCZX","","img/set1/S3.jpg","72","3","structured_incentive","72","true","structured_incentive,random,structured_normal","1,2,2,3","",""
"null","","html-keyboard-response","318","592043","0.0-247.0","32ZKVD547G98F6JIFIJQB7JZNX7B34","A1PHDT66U6IK4Q","33Q5P9PUSP8QOKKNNN5S19YACNVCZX","","<img src=""img/set1/S3.jpg"" width=""540"" height = ""360"" style=""border:16px solid Violet"">","null","","","","","","","",""
"null","","html-keyboard-response","319","592044","0.0-248.0","32ZKVD547G98F6JIFIJQB7JZNX7B34","A1PHDT66U6IK4Q","33Q5P9PUSP8QOKKNNN5S19YACNVCZX","","","null","","","","","","","",""
"963.5","","image-keyboard-response","320","593009","0.0-249.0","32ZKVD547G98F6JIFIJQB7JZNX7B34","A1PHDT66U6IK4Q","33Q5P9PUSP8QOKKNNN5S19YACNVCZX","","img/set1/S3.jpg","72","3","structured_incentive","72","true","structured_incentive,random,structured_normal","1,2,2,3","",""
"null","","html-keyboard-response","321","593366","0.0-250.0","32ZKVD547G98F6JIFIJQB7JZNX7B34","A1PHDT66U6IK4Q","33Q5P9PUSP8QOKKNNN5S19YACNVCZX","","<img src=""img/set1/S3.jpg"" width=""540"" height = ""360"" style=""border:16px solid Violet"">","null","","","","","","","",""
"null","","html-keyboard-response","322","593368","0.0-251.0","32ZKVD547G98F6JIFIJQB7JZNX7B34","A1PHDT66U6IK4Q","33Q5P9PUSP8QOKKNNN5S19YACNVCZX","","","null","","","","","","","",""
"997.6000000238419","","image-keyboard-response","323","594367","0.0-252.0","32ZKVD547G98F6JIFIJQB7JZNX7B34","A1PHDT66U6IK4Q","33Q5P9PUSP8QOKKNNN5S19YACNVCZX","","img/set1/S1.jpg","68","1","structured_incentive","83","false","structured_incentive,random,structured_normal","1,2,2,3","",""
"null","","html-keyboard-response","324","594724","0.0-253.0","32ZKVD547G98F6JIFIJQB7JZNX7B34","A1PHDT66U6IK4Q","33Q5P9PUSP8QOKKNNN5S19YACNVCZX","","<img src=""img/set1/S1.jpg"" width=""540"" height = ""360"">","null","","","","","","","",""
"null","","html-keyboard-response","325","594726","0.0-254.0","32ZKVD547G98F6JIFIJQB7JZNX7B34","A1PHDT66U6IK4Q","33Q5P9PUSP8QOKKNNN5S19YACNVCZX","","","null","","","","","","","",""
"985.5","","image-keyboard-response","326","595713","0.0-255.0","32ZKVD547G98F6JIFIJQB7JZNX7B34","A1PHDT66U6IK4Q","33Q5P9PUSP8QOKKNNN5S19YACNVCZX","","img/set1/S2.jpg","68","2","structured_incentive","68","true","structured_incentive,random,structured_normal","1,2,2,3","",""
"null","","html-keyboard-response","327","596067","0.0-256.0","32ZKVD547G98F6JIFIJQB7JZNX7B34","A1PHDT66U6IK4Q","33Q5P9PUSP8QOKKNNN5S19YACNVCZX","","<img src=""img/set1/S2.jpg"" width=""540"" height = ""360"" style=""border:16px solid orange"">","null","","","","","","","",""
"null","","html-keyboard-response","328","596068","0.0-257.0","32ZKVD547G98F6JIFIJQB7JZNX7B34","A1PHDT66U6IK4Q","33Q5P9PUSP8QOKKNNN5S19YACNVCZX","","","null","","","","","","","",""
"913.3000000715256","","image-keyboard-response","329","596983","0.0-258.0","32ZKVD547G98F6JIFIJQB7JZNX7B34","A1PHDT66U6IK4Q","33Q5P9PUSP8QOKKNNN5S19YACNVCZX","","img/set1/S4.jpg","74","4","structured_incentive","74","true","structured_incentive,random,structured_normal","1,2,2,3","",""
"null","","html-keyboard-response","330","597343","0.0-259.0","32ZKVD547G98F6JIFIJQB7JZNX7B34","A1PHDT66U6IK4Q","33Q5P9PUSP8QOKKNNN5S19YACNVCZX","","<img src=""img/set1/S4.jpg"" width=""540"" height = ""360"" style=""border:16px solid orange"">","null","","","","","","","",""
"null","","html-keyboard-response","331","597345","0.0-260.0","32ZKVD547G98F6JIFIJQB7JZNX7B34","A1PHDT66U6IK4Q","33Q5P9PUSP8QOKKNNN5S19YACNVCZX","","","null","","","","","","","",""
"1016.2000000476837","","image-keyboard-response","332","598362","0.0-261.0","32ZKVD547G98F6JIFIJQB7JZNX7B34","A1PHDT66U6IK4Q","33Q5P9PUSP8QOKKNNN5S19YACNVCZX","","img/set1/S4.jpg","74","4","structured_incentive","74","true","structured_incentive,random,structured_normal","1,2,2,3","",""
"null","","html-keyboard-response","333","598717","0.0-262.0","32ZKVD547G98F6JIFIJQB7JZNX7B34","A1PHDT66U6IK4Q","33Q5P9PUSP8QOKKNNN5S19YACNVCZX","","<img src=""img/set1/S4.jpg"" width=""540"" height = ""360"" style=""border:16px solid orange"">","null","","","","","","","",""
"null","","html-keyboard-response","334","598719","0.0-263.0","32ZKVD547G98F6JIFIJQB7JZNX7B34","A1PHDT66U6IK4Q","33Q5P9PUSP8QOKKNNN5S19YACNVCZX","","","null","","","","","","","",""
"1193.5","","image-keyboard-response","335","599914","0.0-264.0","32ZKVD547G98F6JIFIJQB7JZNX7B34","A1PHDT66U6IK4Q","33Q5P9PUSP8QOKKNNN5S19YACNVCZX","","img/set1/S4.jpg","74","4","structured_incentive","74","true","structured_incentive,random,structured_normal","1,2,2,3","",""
"null","","html-keyboard-response","336","600268","0.0-265.0","32ZKVD547G98F6JIFIJQB7JZNX7B34","A1PHDT66U6IK4Q","33Q5P9PUSP8QOKKNNN5S19YACNVCZX","","<img src=""img/set1/S4.jpg"" width=""540"" height = ""360"" style=""border:16px solid orange"">","null","","","","","","","",""
"null","","html-keyboard-response","337","600270","0.0-266.0","32ZKVD547G98F6JIFIJQB7JZNX7B34","A1PHDT66U6IK4Q","33Q5P9PUSP8QOKKNNN5S19YACNVCZX","","","null","","","","","","","",""
"881.1000000238419","","image-keyboard-response","338","601158","0.0-267.0","32ZKVD547G98F6JIFIJQB7JZNX7B34","A1PHDT66U6IK4Q","33Q5P9PUSP8QOKKNNN5S19YACNVCZX","","img/set1/S3.jpg","72","3","structured_incentive","72","true","structured_incentive,random,structured_normal","1,2,2,3","",""
"null","","html-keyboard-response","339","601516","0.0-268.0","32ZKVD547G98F6JIFIJQB7JZNX7B34","A1PHDT66U6IK4Q","33Q5P9PUSP8QOKKNNN5S19YACNVCZX","","<img src=""img/set1/S3.jpg"" width=""540"" height = ""360"" style=""border:16px solid Violet"">","null","","","","","","","",""
"null","","html-keyboard-response","340","601517","0.0-269.0","32ZKVD547G98F6JIFIJQB7JZNX7B34","A1PHDT66U6IK4Q","33Q5P9PUSP8QOKKNNN5S19YACNVCZX","","","null","","","","","","","",""
"1319.7000000476837","","image-keyboard-response","341","602838","0.0-270.0","32ZKVD547G98F6JIFIJQB7JZNX7B34","A1PHDT66U6IK4Q","33Q5P9PUSP8QOKKNNN5S19YACNVCZX","","img/set1/S4.jpg","72","4","structured_incentive","74","false","structured_incentive,random,structured_normal","1,2,2,3","",""
"null","","html-keyboard-response","342","603198","0.0-271.0","32ZKVD547G98F6JIFIJQB7JZNX7B34","A1PHDT66U6IK4Q","33Q5P9PUSP8QOKKNNN5S19YACNVCZX","","<img src=""img/set1/S4.jpg"" width=""540"" height = ""360"">","null","","","","","","","",""
"null","","html-keyboard-response","343","603208","0.0-272.0","32ZKVD547G98F6JIFIJQB7JZNX7B34","A1PHDT66U6IK4Q","33Q5P9PUSP8QOKKNNN5S19YACNVCZX","","","null","","","","","","","",""
"1002.3999999761581","","image-keyboard-response","344","604211","0.0-273.0","32ZKVD547G98F6JIFIJQB7JZNX7B34","A1PHDT66U6IK4Q","33Q5P9PUSP8QOKKNNN5S19YACNVCZX","","img/set1/S4.jpg","74","4","structured_incentive","74","true","structured_incentive,random,structured_normal","1,2,2,3","",""
"null","","html-keyboard-response","345","604568","0.0-274.0","32ZKVD547G98F6JIFIJQB7JZNX7B34","A1PHDT66U6IK4Q","33Q5P9PUSP8QOKKNNN5S19YACNVCZX","","<img src=""img/set1/S4.jpg"" width=""540"" height = ""360"" style=""border:16px solid orange"">","null","","","","","","","",""
"null","","html-keyboard-response","346","604570","0.0-275.0","32ZKVD547G98F6JIFIJQB7JZNX7B34","A1PHDT66U6IK4Q","33Q5P9PUSP8QOKKNNN5S19YACNVCZX","","","null","","","","","","","",""
"767.5999999046326","","image-keyboard-response","347","605339","0.0-276.0","32ZKVD547G98F6JIFIJQB7JZNX7B34","A1PHDT66U6IK4Q","33Q5P9PUSP8QOKKNNN5S19YACNVCZX","","img/set1/S3.jpg","72","3","structured_incentive","72","true","structured_incentive,random,structured_normal","1,2,2,3","",""
"null","","html-keyboard-response","348","605696","0.0-277.0","32ZKVD547G98F6JIFIJQB7JZNX7B34","A1PHDT66U6IK4Q","33Q5P9PUSP8QOKKNNN5S19YACNVCZX","","<img src=""img/set1/S3.jpg"" width=""540"" height = ""360"" style=""border:16px solid Violet"">","null","","","","","","","",""
"null","","html-keyboard-response","349","605698","0.0-278.0","32ZKVD547G98F6JIFIJQB7JZNX7B34","A1PHDT66U6IK4Q","33Q5P9PUSP8QOKKNNN5S19YACNVCZX","","","null","","","","","","","",""
"1125.7999999523163","","image-keyboard-response","350","606825","0.0-279.0","32ZKVD547G98F6JIFIJQB7JZNX7B34","A1PHDT66U6IK4Q","33Q5P9PUSP8QOKKNNN5S19YACNVCZX","","img/set1/S3.jpg","72","3","structured_incentive","72","true","structured_incentive,random,structured_normal","1,2,2,3","",""
"null","","html-keyboard-response","351","607191","0.0-280.0","32ZKVD547G98F6JIFIJQB7JZNX7B34","A1PHDT66U6IK4Q","33Q5P9PUSP8QOKKNNN5S19YACNVCZX","","<img src=""img/set1/S3.jpg"" width=""540"" height = ""360"" style=""border:16px solid Violet"">","null","","","","","","","",""
"null","","html-keyboard-response","352","607192","0.0-281.0","32ZKVD547G98F6JIFIJQB7JZNX7B34","A1PHDT66U6IK4Q","33Q5P9PUSP8QOKKNNN5S19YACNVCZX","","","null","","","","","","","",""
"1097.5","","image-keyboard-response","353","608291","0.0-282.0","32ZKVD547G98F6JIFIJQB7JZNX7B34","A1PHDT66U6IK4Q","33Q5P9PUSP8QOKKNNN5S19YACNVCZX","","img/set1/S4.jpg","74","4","structured_incentive","74","true","structured_incentive,random,structured_normal","1,2,2,3","",""
"null","","html-keyboard-response","354","608650","0.0-283.0","32ZKVD547G98F6JIFIJQB7JZNX7B34","A1PHDT66U6IK4Q","33Q5P9PUSP8QOKKNNN5S19YACNVCZX","","<img src=""img/set1/S4.jpg"" width=""540"" height = ""360"" style=""border:16px solid orange"">","null","","","","","","","",""
"null","","html-keyboard-response","355","608652","0.0-284.0","32ZKVD547G98F6JIFIJQB7JZNX7B34","A1PHDT66U6IK4Q","33Q5P9PUSP8QOKKNNN5S19YACNVCZX","","","null","","","","","","","",""
"1389.3999999761581","","image-keyboard-response","356","610042","0.0-285.0","32ZKVD547G98F6JIFIJQB7JZNX7B34","A1PHDT66U6IK4Q","33Q5P9PUSP8QOKKNNN5S19YACNVCZX","","img/set1/S1.jpg","83","1","structured_incentive","83","true","structured_incentive,random,structured_normal","1,2,2,3","",""
"null","","html-keyboard-response","357","610399","0.0-286.0","32ZKVD547G98F6JIFIJQB7JZNX7B34","A1PHDT66U6IK4Q","33Q5P9PUSP8QOKKNNN5S19YACNVCZX","","<img src=""img/set1/S1.jpg"" width=""540"" height = ""360"" style=""border:16px solid orange"">","null","","","","","","","",""
"null","","html-keyboard-response","358","610400","0.0-287.0","32ZKVD547G98F6JIFIJQB7JZNX7B34","A1PHDT66U6IK4Q","33Q5P9PUSP8QOKKNNN5S19YACNVCZX","","","null","","","","","","","",""
"871.3000000715256","","image-keyboard-response","359","611273","0.0-288.0","32ZKVD547G98F6JIFIJQB7JZNX7B34","A1PHDT66U6IK4Q","33Q5P9PUSP8QOKKNNN5S19YACNVCZX","","img/set1/S2.jpg","68","2","structured_incentive","68","true","structured_incentive,random,structured_normal","1,2,2,3","",""
"null","","html-keyboard-response","360","611626","0.0-289.0","32ZKVD547G98F6JIFIJQB7JZNX7B34","A1PHDT66U6IK4Q","33Q5P9PUSP8QOKKNNN5S19YACNVCZX","","<img src=""img/set1/S2.jpg"" width=""540"" height = ""360"" style=""border:16px solid orange"">","null","","","","","","","",""
"null","","html-keyboard-response","361","611627","0.0-290.0","32ZKVD547G98F6JIFIJQB7JZNX7B34","A1PHDT66U6IK4Q","33Q5P9PUSP8QOKKNNN5S19YACNVCZX","","","null","","","","","","","",""
"927","","image-keyboard-response","362","612555","0.0-291.0","32ZKVD547G98F6JIFIJQB7JZNX7B34","A1PHDT66U6IK4Q","33Q5P9PUSP8QOKKNNN5S19YACNVCZX","","img/set1/S3.jpg","72","3","structured_incentive","72","true","structured_incentive,random,structured_normal","1,2,2,3","",""
"null","","html-keyboard-response","363","612910","0.0-292.0","32ZKVD547G98F6JIFIJQB7JZNX7B34","A1PHDT66U6IK4Q","33Q5P9PUSP8QOKKNNN5S19YACNVCZX","","<img src=""img/set1/S3.jpg"" width=""540"" height = ""360"" style=""border:16px solid Violet"">","null","","","","","","","",""
"null","","html-keyboard-response","364","612911","0.0-293.0","32ZKVD547G98F6JIFIJQB7JZNX7B34","A1PHDT66U6IK4Q","33Q5P9PUSP8QOKKNNN5S19YACNVCZX","","","null","","","","","","","",""
"799.8999999761581","","image-keyboard-response","365","613713","0.0-294.0","32ZKVD547G98F6JIFIJQB7JZNX7B34","A1PHDT66U6IK4Q","33Q5P9PUSP8QOKKNNN5S19YACNVCZX","","img/set1/S4.jpg","74","4","structured_incentive","74","true","structured_incentive,random,structured_normal","1,2,2,3","",""
"null","","html-keyboard-response","366","614065","0.0-295.0","32ZKVD547G98F6JIFIJQB7JZNX7B34","A1PHDT66U6IK4Q","33Q5P9PUSP8QOKKNNN5S19YACNVCZX","","<img src=""img/set1/S4.jpg"" width=""540"" height = ""360"" style=""border:16px solid orange"">","null","","","","","","","",""
"null","","html-keyboard-response","367","614067","0.0-296.0","32ZKVD547G98F6JIFIJQB7JZNX7B34","A1PHDT66U6IK4Q","33Q5P9PUSP8QOKKNNN5S19YACNVCZX","","","null","","","","","","","",""
"949.7999999523163","","image-keyboard-response","368","615018","0.0-297.0","32ZKVD547G98F6JIFIJQB7JZNX7B34","A1PHDT66U6IK4Q","33Q5P9PUSP8QOKKNNN5S19YACNVCZX","","img/set1/S1.jpg","83","1","structured_incentive","83","true","structured_incentive,random,structured_normal","1,2,2,3","",""
"null","","html-keyboard-response","369","615381","0.0-298.0","32ZKVD547G98F6JIFIJQB7JZNX7B34","A1PHDT66U6IK4Q","33Q5P9PUSP8QOKKNNN5S19YACNVCZX","","<img src=""img/set1/S1.jpg"" width=""540"" height = ""360"" style=""border:16px solid orange"">","null","","","","","","","",""
"null","","html-keyboard-response","370","615383","0.0-299.0","32ZKVD547G98F6JIFIJQB7JZNX7B34","A1PHDT66U6IK4Q","33Q5P9PUSP8QOKKNNN5S19YACNVCZX","","","null","","","","","","","",""
"660","","image-keyboard-response","371","616044","0.0-300.0","32ZKVD547G98F6JIFIJQB7JZNX7B34","A1PHDT66U6IK4Q","33Q5P9PUSP8QOKKNNN5S19YACNVCZX","","img/set1/S2.jpg","68","2","structured_incentive","68","true","structured_incentive,random,structured_normal","1,2,2,3","",""
"null","","html-keyboard-response","372","616399","0.0-301.0","32ZKVD547G98F6JIFIJQB7JZNX7B34","A1PHDT66U6IK4Q","33Q5P9PUSP8QOKKNNN5S19YACNVCZX","","<img src=""img/set1/S2.jpg"" width=""540"" height = ""360"" style=""border:16px solid orange"">","null","","","","","","","",""
"null","","html-keyboard-response","373","616400","0.0-302.0","32ZKVD547G98F6JIFIJQB7JZNX7B34","A1PHDT66U6IK4Q","33Q5P9PUSP8QOKKNNN5S19YACNVCZX","","","null","","","","","","","",""
"884.3999999761581","","image-keyboard-response","374","617286","0.0-303.0","32ZKVD547G98F6JIFIJQB7JZNX7B34","A1PHDT66U6IK4Q","33Q5P9PUSP8QOKKNNN5S19YACNVCZX","","img/set1/S4.jpg","74","4","structured_incentive","74","true","structured_incentive,random,structured_normal","1,2,2,3","",""
"null","","html-keyboard-response","375","617641","0.0-304.0","32ZKVD547G98F6JIFIJQB7JZNX7B34","A1PHDT66U6IK4Q","33Q5P9PUSP8QOKKNNN5S19YACNVCZX","","<img src=""img/set1/S4.jpg"" width=""540"" height = ""360"" style=""border:16px solid orange"">","null","","","","","","","",""
"null","","html-keyboard-response","376","617643","0.0-305.0","32ZKVD547G98F6JIFIJQB7JZNX7B34","A1PHDT66U6IK4Q","33Q5P9PUSP8QOKKNNN5S19YACNVCZX","","","null","","","","","","","",""
"1052.5999999046326","","image-keyboard-response","377","618696","0.0-306.0","32ZKVD547G98F6JIFIJQB7JZNX7B34","A1PHDT66U6IK4Q","33Q5P9PUSP8QOKKNNN5S19YACNVCZX","","img/set1/S4.jpg","74","4","structured_incentive","74","true","structured_incentive,random,structured_normal","1,2,2,3","",""
"null","","html-keyboard-response","378","619052","0.0-307.0","32ZKVD547G98F6JIFIJQB7JZNX7B34","A1PHDT66U6IK4Q","33Q5P9PUSP8QOKKNNN5S19YACNVCZX","","<img src=""img/set1/S4.jpg"" width=""540"" height = ""360"" style=""border:16px solid orange"">","null","","","","","","","",""
"null","","html-keyboard-response","379","619053","0.0-308.0","32ZKVD547G98F6JIFIJQB7JZNX7B34","A1PHDT66U6IK4Q","33Q5P9PUSP8QOKKNNN5S19YACNVCZX","","","null","","","","","","","",""
"1124","","image-keyboard-response","380","620179","0.0-309.0","32ZKVD547G98F6JIFIJQB7JZNX7B34","A1PHDT66U6IK4Q","33Q5P9PUSP8QOKKNNN5S19YACNVCZX","","img/set1/S4.jpg","74","4","structured_incentive","74","true","structured_incentive,random,structured_normal","1,2,2,3","",""
"null","","html-keyboard-response","381","620535","0.0-310.0","32ZKVD547G98F6JIFIJQB7JZNX7B34","A1PHDT66U6IK4Q","33Q5P9PUSP8QOKKNNN5S19YACNVCZX","","<img src=""img/set1/S4.jpg"" width=""540"" height = ""360"" style=""border:16px solid orange"">","null","","","","","","","",""
"null","","html-keyboard-response","382","620537","0.0-311.0","32ZKVD547G98F6JIFIJQB7JZNX7B34","A1PHDT66U6IK4Q","33Q5P9PUSP8QOKKNNN5S19YACNVCZX","","","null","","","","","","","",""
"879.6999999284744","","image-keyboard-response","383","621418","0.0-312.0","32ZKVD547G98F6JIFIJQB7JZNX7B34","A1PHDT66U6IK4Q","33Q5P9PUSP8QOKKNNN5S19YACNVCZX","","img/set1/S1.jpg","68","1","structured_incentive","83","false","structured_incentive,random,structured_normal","1,2,2,3","",""
"null","","html-keyboard-response","384","621772","0.0-313.0","32ZKVD547G98F6JIFIJQB7JZNX7B34","A1PHDT66U6IK4Q","33Q5P9PUSP8QOKKNNN5S19YACNVCZX","","<img src=""img/set1/S1.jpg"" width=""540"" height = ""360"">","null","","","","","","","",""
"null","","html-keyboard-response","385","621774","0.0-314.0","32ZKVD547G98F6JIFIJQB7JZNX7B34","A1PHDT66U6IK4Q","33Q5P9PUSP8QOKKNNN5S19YACNVCZX","","","null","","","","","","","",""
"939.3999999761581","","image-keyboard-response","386","622715","0.0-315.0","32ZKVD547G98F6JIFIJQB7JZNX7B34","A1PHDT66U6IK4Q","33Q5P9PUSP8QOKKNNN5S19YACNVCZX","","img/set1/S2.jpg","68","2","structured_incentive","68","true","structured_incentive,random,structured_normal","1,2,2,3","",""
"null","","html-keyboard-response","387","623073","0.0-316.0","32ZKVD547G98F6JIFIJQB7JZNX7B34","A1PHDT66U6IK4Q","33Q5P9PUSP8QOKKNNN5S19YACNVCZX","","<img src=""img/set1/S2.jpg"" width=""540"" height = ""360"" style=""border:16px solid orange"">","null","","","","","","","",""
"null","","html-keyboard-response","388","623075","0.0-317.0","32ZKVD547G98F6JIFIJQB7JZNX7B34","A1PHDT66U6IK4Q","33Q5P9PUSP8QOKKNNN5S19YACNVCZX","","","null","","","","","","","",""
"1377","","image-keyboard-response","389","624454","0.0-318.0","32ZKVD547G98F6JIFIJQB7JZNX7B34","A1PHDT66U6IK4Q","33Q5P9PUSP8QOKKNNN5S19YACNVCZX","","img/set1/S3.jpg","72","3","structured_incentive","72","true","structured_incentive,random,structured_normal","1,2,2,3","",""
"null","","html-keyboard-response","390","624810","0.0-319.0","32ZKVD547G98F6JIFIJQB7JZNX7B34","A1PHDT66U6IK4Q","33Q5P9PUSP8QOKKNNN5S19YACNVCZX","","<img src=""img/set1/S3.jpg"" width=""540"" height = ""360"" style=""border:16px solid Violet"">","null","","","","","","","",""
"null","","html-keyboard-response","391","624812","0.0-320.0","32ZKVD547G98F6JIFIJQB7JZNX7B34","A1PHDT66U6IK4Q","33Q5P9PUSP8QOKKNNN5S19YACNVCZX","","","null","","","","","","","",""
"773.8999999761581","","image-keyboard-response","392","625587","0.0-321.0","32ZKVD547G98F6JIFIJQB7JZNX7B34","A1PHDT66U6IK4Q","33Q5P9PUSP8QOKKNNN5S19YACNVCZX","","img/set1/S4.jpg","74","4","structured_incentive","74","true","structured_incentive,random,structured_normal","1,2,2,3","",""
"null","","html-keyboard-response","393","625947","0.0-322.0","32ZKVD547G98F6JIFIJQB7JZNX7B34","A1PHDT66U6IK4Q","33Q5P9PUSP8QOKKNNN5S19YACNVCZX","","<img src=""img/set1/S4.jpg"" width=""540"" height = ""360"" style=""border:16px solid orange"">","null","","","","","","","",""
"null","","html-keyboard-response","394","625949","0.0-323.0","32ZKVD547G98F6JIFIJQB7JZNX7B34","A1PHDT66U6IK4Q","33Q5P9PUSP8QOKKNNN5S19YACNVCZX","","","null","","","","","","","",""
"875.3999999761581","","image-keyboard-response","395","626826","0.0-324.0","32ZKVD547G98F6JIFIJQB7JZNX7B34","A1PHDT66U6IK4Q","33Q5P9PUSP8QOKKNNN5S19YACNVCZX","","img/set1/S2.jpg","68","2","structured_incentive","68","true","structured_incentive,random,structured_normal","1,2,2,3","",""
"null","","html-keyboard-response","396","627184","0.0-325.0","32ZKVD547G98F6JIFIJQB7JZNX7B34","A1PHDT66U6IK4Q","33Q5P9PUSP8QOKKNNN5S19YACNVCZX","","<img src=""img/set1/S2.jpg"" width=""540"" height = ""360"" style=""border:16px solid orange"">","null","","","","","","","",""
"null","","html-keyboard-response","397","627186","0.0-326.0","32ZKVD547G98F6JIFIJQB7JZNX7B34","A1PHDT66U6IK4Q","33Q5P9PUSP8QOKKNNN5S19YACNVCZX","","","null","","","","","","","",""
"774.7000000476837","","image-keyboard-response","398","627962","0.0-327.0","32ZKVD547G98F6JIFIJQB7JZNX7B34","A1PHDT66U6IK4Q","33Q5P9PUSP8QOKKNNN5S19YACNVCZX","","img/set1/S1.jpg","83","1","structured_incentive","83","true","structured_incentive,random,structured_normal","1,2,2,3","",""
"null","","html-keyboard-response","399","628316","0.0-328.0","32ZKVD547G98F6JIFIJQB7JZNX7B34","A1PHDT66U6IK4Q","33Q5P9PUSP8QOKKNNN5S19YACNVCZX","","<img src=""img/set1/S1.jpg"" width=""540"" height = ""360"" style=""border:16px solid orange"">","null","","","","","","","",""
"null","","html-keyboard-response","400","628317","0.0-329.0","32ZKVD547G98F6JIFIJQB7JZNX7B34","A1PHDT66U6IK4Q","33Q5P9PUSP8QOKKNNN5S19YACNVCZX","","","null","","","","","","","",""
"744.1000000238419","","image-keyboard-response","401","629063","0.0-330.0","32ZKVD547G98F6JIFIJQB7JZNX7B34","A1PHDT66U6IK4Q","33Q5P9PUSP8QOKKNNN5S19YACNVCZX","","img/set1/S3.jpg","72","3","structured_incentive","72","true","structured_incentive,random,structured_normal","1,2,2,3","",""
"null","","html-keyboard-response","402","629420","0.0-331.0","32ZKVD547G98F6JIFIJQB7JZNX7B34","A1PHDT66U6IK4Q","33Q5P9PUSP8QOKKNNN5S19YACNVCZX","","<img src=""img/set1/S3.jpg"" width=""540"" height = ""360"" style=""border:16px solid Violet"">","null","","","","","","","",""
"null","","html-keyboard-response","403","629421","0.0-332.0","32ZKVD547G98F6JIFIJQB7JZNX7B34","A1PHDT66U6IK4Q","33Q5P9PUSP8QOKKNNN5S19YACNVCZX","","","null","","","","","","","",""
"758.3999999761581","","image-keyboard-response","404","630181","0.0-333.0","32ZKVD547G98F6JIFIJQB7JZNX7B34","A1PHDT66U6IK4Q","33Q5P9PUSP8QOKKNNN5S19YACNVCZX","","img/set1/S4.jpg","74","4","structured_incentive","74","true","structured_incentive,random,structured_normal","1,2,2,3","",""
"null","","html-keyboard-response","405","630540","0.0-334.0","32ZKVD547G98F6JIFIJQB7JZNX7B34","A1PHDT66U6IK4Q","33Q5P9PUSP8QOKKNNN5S19YACNVCZX","","<img src=""img/set1/S4.jpg"" width=""540"" height = ""360"" style=""border:16px solid orange"">","null","","","","","","","",""
"null","","html-keyboard-response","406","630542","0.0-335.0","32ZKVD547G98F6JIFIJQB7JZNX7B34","A1PHDT66U6IK4Q","33Q5P9PUSP8QOKKNNN5S19YACNVCZX","","","null","","","","","","","",""
"698.5","","image-keyboard-response","407","631241","0.0-336.0","32ZKVD547G98F6JIFIJQB7JZNX7B34","A1PHDT66U6IK4Q","33Q5P9PUSP8QOKKNNN5S19YACNVCZX","","img/set1/S1.jpg","83","1","structured_incentive","83","true","structured_incentive,random,structured_normal","1,2,2,3","",""
"null","","html-keyboard-response","408","631595","0.0-337.0","32ZKVD547G98F6JIFIJQB7JZNX7B34","A1PHDT66U6IK4Q","33Q5P9PUSP8QOKKNNN5S19YACNVCZX","","<img src=""img/set1/S1.jpg"" width=""540"" height = ""360"" style=""border:16px solid orange"">","null","","","","","","","",""
"null","","html-keyboard-response","409","631597","0.0-338.0","32ZKVD547G98F6JIFIJQB7JZNX7B34","A1PHDT66U6IK4Q","33Q5P9PUSP8QOKKNNN5S19YACNVCZX","","","null","","","","","","","",""
"656.3999999761581","","image-keyboard-response","410","632254","0.0-339.0","32ZKVD547G98F6JIFIJQB7JZNX7B34","A1PHDT66U6IK4Q","33Q5P9PUSP8QOKKNNN5S19YACNVCZX","","img/set1/S2.jpg","68","2","structured_incentive","68","true","structured_incentive,random,structured_normal","1,2,2,3","",""
"null","","html-keyboard-response","411","632610","0.0-340.0","32ZKVD547G98F6JIFIJQB7JZNX7B34","A1PHDT66U6IK4Q","33Q5P9PUSP8QOKKNNN5S19YACNVCZX","","<img src=""img/set1/S2.jpg"" width=""540"" height = ""360"" style=""border:16px solid orange"">","null","","","","","","","",""
