"rt","url","trial_type","trial_index","time_elapsed","internal_node_id","assignmentID","mturkID","hitID","view_history","stimulus","key_press","state","test_part","correct_response","correct","order_block","order_chunk","bonus","responses"
"29326.5","consent.html","external-html","0","29422","0.0-0.0","3SKEMFQBZ4RV96TIXCRF1RA0QD88KD","A1SHLWKA0UH1IS","3R5LWXWHR0UE010DORDQUF3E2FPGXE","","","","","","","","","","",""
"93894.90000009537","","instructions","1","123322","0.0-1.0","3SKEMFQBZ4RV96TIXCRF1RA0QD88KD","A1SHLWKA0UH1IS","3R5LWXWHR0UE010DORDQUF3E2FPGXE","[{""page_index"":0,""viewing_time"":8510.299999952316},{""page_index"":1,""viewing_time"":5527.900000095367},{""page_index"":2,""viewing_time"":8592.099999904633},{""page_index"":3,""viewing_time"":23271.5},{""page_index"":4,""viewing_time"":17224.5},{""page_index"":5,""viewing_time"":11703.900000095367},{""page_index"":6,""viewing_time"":8864},{""page_index"":7,""viewing_time"":10200}]","","","","","","","","","",""
"1527.9000000953674","","image-keyboard-response","2","124851","0.0-2.0-0.0","3SKEMFQBZ4RV96TIXCRF1RA0QD88KD","A1SHLWKA0UH1IS","3R5LWXWHR0UE010DORDQUF3E2FPGXE","","img/practice/S4.jpg","72","4","practice","74","false","","","",""
"null","","html-keyboard-response","3","125155","0.0-2.0-1.0","3SKEMFQBZ4RV96TIXCRF1RA0QD88KD","A1SHLWKA0UH1IS","3R5LWXWHR0UE010DORDQUF3E2FPGXE","","<img src=""img/practice/S4.jpg"" width=""540"" height = ""360"">","null","","","","","","","",""
"null","","html-keyboard-response","4","125157","0.0-2.0-2.0","3SKEMFQBZ4RV96TIXCRF1RA0QD88KD","A1SHLWKA0UH1IS","3R5LWXWHR0UE010DORDQUF3E2FPGXE","","","null","","","","","","","",""
"935.2000000476837","","image-keyboard-response","5","126093","0.0-2.0-0.1","3SKEMFQBZ4RV96TIXCRF1RA0QD88KD","A1SHLWKA0UH1IS","3R5LWXWHR0UE010DORDQUF3E2FPGXE","","img/practice/S3.jpg","74","3","practice","72","false","","","",""
"null","","html-keyboard-response","6","126399","0.0-2.0-1.1","3SKEMFQBZ4RV96TIXCRF1RA0QD88KD","A1SHLWKA0UH1IS","3R5LWXWHR0UE010DORDQUF3E2FPGXE","","<img src=""img/practice/S3.jpg"" width=""540"" height = ""360"">","null","","","","","","","",""
"null","","html-keyboard-response","7","126401","0.0-2.0-2.1","3SKEMFQBZ4RV96TIXCRF1RA0QD88KD","A1SHLWKA0UH1IS","3R5LWXWHR0UE010DORDQUF3E2FPGXE","","","null","","","","","","","",""
"906.5999999046326","","image-keyboard-response","8","127308","0.0-2.0-0.2","3SKEMFQBZ4RV96TIXCRF1RA0QD88KD","A1SHLWKA0UH1IS","3R5LWXWHR0UE010DORDQUF3E2FPGXE","","img/practice/S1.jpg","68","1","practice","83","false","","","",""
"null","","html-keyboard-response","9","127613","0.0-2.0-1.2","3SKEMFQBZ4RV96TIXCRF1RA0QD88KD","A1SHLWKA0UH1IS","3R5LWXWHR0UE010DORDQUF3E2FPGXE","","<img src=""img/practice/S1.jpg"" width=""540"" height = ""360"">","null","","","","","","","",""
"null","","html-keyboard-response","10","127615","0.0-2.0-2.2","3SKEMFQBZ4RV96TIXCRF1RA0QD88KD","A1SHLWKA0UH1IS","3R5LWXWHR0UE010DORDQUF3E2FPGXE","","","null","","","","","","","",""
"845.2999999523163","","image-keyboard-response","11","128461","0.0-2.0-0.3","3SKEMFQBZ4RV96TIXCRF1RA0QD88KD","A1SHLWKA0UH1IS","3R5LWXWHR0UE010DORDQUF3E2FPGXE","","img/practice/S2.jpg","83","2","practice","68","false","","","",""
"null","","html-keyboard-response","12","128763","0.0-2.0-1.3","3SKEMFQBZ4RV96TIXCRF1RA0QD88KD","A1SHLWKA0UH1IS","3R5LWXWHR0UE010DORDQUF3E2FPGXE","","<img src=""img/practice/S2.jpg"" width=""540"" height = ""360"">","null","","","","","","","",""
"null","","html-keyboard-response","13","128764","0.0-2.0-2.3","3SKEMFQBZ4RV96TIXCRF1RA0QD88KD","A1SHLWKA0UH1IS","3R5LWXWHR0UE010DORDQUF3E2FPGXE","","","null","","","","","","","",""
"1202.2999999523163","","image-keyboard-response","14","129967","0.0-2.0-0.4","3SKEMFQBZ4RV96TIXCRF1RA0QD88KD","A1SHLWKA0UH1IS","3R5LWXWHR0UE010DORDQUF3E2FPGXE","","img/practice/S4.jpg","68","4","practice","74","false","","","",""
"null","","html-keyboard-response","15","130273","0.0-2.0-1.4","3SKEMFQBZ4RV96TIXCRF1RA0QD88KD","A1SHLWKA0UH1IS","3R5LWXWHR0UE010DORDQUF3E2FPGXE","","<img src=""img/practice/S4.jpg"" width=""540"" height = ""360"">","null","","","","","","","",""
"null","","html-keyboard-response","16","130275","0.0-2.0-2.4","3SKEMFQBZ4RV96TIXCRF1RA0QD88KD","A1SHLWKA0UH1IS","3R5LWXWHR0UE010DORDQUF3E2FPGXE","","","null","","","","","","","",""
"598.9000000953674","","image-keyboard-response","17","130875","0.0-2.0-0.5","3SKEMFQBZ4RV96TIXCRF1RA0QD88KD","A1SHLWKA0UH1IS","3R5LWXWHR0UE010DORDQUF3E2FPGXE","","img/practice/S2.jpg","83","2","practice","68","false","","","",""
"null","","html-keyboard-response","18","131178","0.0-2.0-1.5","3SKEMFQBZ4RV96TIXCRF1RA0QD88KD","A1SHLWKA0UH1IS","3R5LWXWHR0UE010DORDQUF3E2FPGXE","","<img src=""img/practice/S2.jpg"" width=""540"" height = ""360"">","null","","","","","","","",""
"null","","html-keyboard-response","19","131179","0.0-2.0-2.5","3SKEMFQBZ4RV96TIXCRF1RA0QD88KD","A1SHLWKA0UH1IS","3R5LWXWHR0UE010DORDQUF3E2FPGXE","","","null","","","","","","","",""
"873.5999999046326","","image-keyboard-response","20","132054","0.0-2.0-0.6","3SKEMFQBZ4RV96TIXCRF1RA0QD88KD","A1SHLWKA0UH1IS","3R5LWXWHR0UE010DORDQUF3E2FPGXE","","img/practice/S3.jpg","72","3","practice","72","true","","","",""
"null","","html-keyboard-response","21","132359","0.0-2.0-1.6","3SKEMFQBZ4RV96TIXCRF1RA0QD88KD","A1SHLWKA0UH1IS","3R5LWXWHR0UE010DORDQUF3E2FPGXE","","<img src=""img/practice/S3.jpg"" width=""540"" height = ""360"" style=""border:16px solid orange"">","null","","","","","","","",""
"null","","html-keyboard-response","22","132361","0.0-2.0-2.6","3SKEMFQBZ4RV96TIXCRF1RA0QD88KD","A1SHLWKA0UH1IS","3R5LWXWHR0UE010DORDQUF3E2FPGXE","","","null","","","","","","","",""
"1083.5","","image-keyboard-response","23","133445","0.0-2.0-0.7","3SKEMFQBZ4RV96TIXCRF1RA0QD88KD","A1SHLWKA0UH1IS","3R5LWXWHR0UE010DORDQUF3E2FPGXE","","img/practice/S1.jpg","74","1","practice","83","false","","","",""
"null","","html-keyboard-response","24","133750","0.0-2.0-1.7","3SKEMFQBZ4RV96TIXCRF1RA0QD88KD","A1SHLWKA0UH1IS","3R5LWXWHR0UE010DORDQUF3E2FPGXE","","<img src=""img/practice/S1.jpg"" width=""540"" height = ""360"">","null","","","","","","","",""
"null","","html-keyboard-response","25","133751","0.0-2.0-2.7","3SKEMFQBZ4RV96TIXCRF1RA0QD88KD","A1SHLWKA0UH1IS","3R5LWXWHR0UE010DORDQUF3E2FPGXE","","","null","","","","","","","",""
"960.5999999046326","","image-keyboard-response","26","134712","0.0-2.0-0.8","3SKEMFQBZ4RV96TIXCRF1RA0QD88KD","A1SHLWKA0UH1IS","3R5LWXWHR0UE010DORDQUF3E2FPGXE","","img/practice/S4.jpg","68","4","practice","74","false","","","",""
"null","","html-keyboard-response","27","135015","0.0-2.0-1.8","3SKEMFQBZ4RV96TIXCRF1RA0QD88KD","A1SHLWKA0UH1IS","3R5LWXWHR0UE010DORDQUF3E2FPGXE","","<img src=""img/practice/S4.jpg"" width=""540"" height = ""360"">","null","","","","","","","",""
"null","","html-keyboard-response","28","135017","0.0-2.0-2.8","3SKEMFQBZ4RV96TIXCRF1RA0QD88KD","A1SHLWKA0UH1IS","3R5LWXWHR0UE010DORDQUF3E2FPGXE","","","null","","","","","","","",""
"478.7000000476837","","image-keyboard-response","29","135496","0.0-2.0-0.9","3SKEMFQBZ4RV96TIXCRF1RA0QD88KD","A1SHLWKA0UH1IS","3R5LWXWHR0UE010DORDQUF3E2FPGXE","","img/practice/S1.jpg","83","1","practice","83","true","","","",""
"null","","html-keyboard-response","30","135799","0.0-2.0-1.9","3SKEMFQBZ4RV96TIXCRF1RA0QD88KD","A1SHLWKA0UH1IS","3R5LWXWHR0UE010DORDQUF3E2FPGXE","","<img src=""img/practice/S1.jpg"" width=""540"" height = ""360"" style=""border:16px solid orange"">","null","","","","","","","",""
"null","","html-keyboard-response","31","135801","0.0-2.0-2.9","3SKEMFQBZ4RV96TIXCRF1RA0QD88KD","A1SHLWKA0UH1IS","3R5LWXWHR0UE010DORDQUF3E2FPGXE","","","null","","","","","","","",""
"1049.3000001907349","","image-keyboard-response","32","136851","0.0-2.0-0.10","3SKEMFQBZ4RV96TIXCRF1RA0QD88KD","A1SHLWKA0UH1IS","3R5LWXWHR0UE010DORDQUF3E2FPGXE","","img/practice/S2.jpg","72","2","practice","68","false","","","",""
"null","","html-keyboard-response","33","137153","0.0-2.0-1.10","3SKEMFQBZ4RV96TIXCRF1RA0QD88KD","A1SHLWKA0UH1IS","3R5LWXWHR0UE010DORDQUF3E2FPGXE","","<img src=""img/practice/S2.jpg"" width=""540"" height = ""360"">","null","","","","","","","",""
"null","","html-keyboard-response","34","137154","0.0-2.0-2.10","3SKEMFQBZ4RV96TIXCRF1RA0QD88KD","A1SHLWKA0UH1IS","3R5LWXWHR0UE010DORDQUF3E2FPGXE","","","null","","","","","","","",""
"539.5","","image-keyboard-response","35","137695","0.0-2.0-0.11","3SKEMFQBZ4RV96TIXCRF1RA0QD88KD","A1SHLWKA0UH1IS","3R5LWXWHR0UE010DORDQUF3E2FPGXE","","img/practice/S3.jpg","72","3","practice","72","true","","","",""
"null","","html-keyboard-response","36","137999","0.0-2.0-1.11","3SKEMFQBZ4RV96TIXCRF1RA0QD88KD","A1SHLWKA0UH1IS","3R5LWXWHR0UE010DORDQUF3E2FPGXE","","<img src=""img/practice/S3.jpg"" width=""540"" height = ""360"" style=""border:16px solid orange"">","null","","","","","","","",""
"null","","html-keyboard-response","37","138001","0.0-2.0-2.11","3SKEMFQBZ4RV96TIXCRF1RA0QD88KD","A1SHLWKA0UH1IS","3R5LWXWHR0UE010DORDQUF3E2FPGXE","","","null","","","","","","","",""
"954.3000001907349","","image-keyboard-response","38","138956","0.0-2.0-0.12","3SKEMFQBZ4RV96TIXCRF1RA0QD88KD","A1SHLWKA0UH1IS","3R5LWXWHR0UE010DORDQUF3E2FPGXE","","img/practice/S3.jpg","74","3","practice","72","false","","","",""
"null","","html-keyboard-response","39","139259","0.0-2.0-1.12","3SKEMFQBZ4RV96TIXCRF1RA0QD88KD","A1SHLWKA0UH1IS","3R5LWXWHR0UE010DORDQUF3E2FPGXE","","<img src=""img/practice/S3.jpg"" width=""540"" height = ""360"">","null","","","","","","","",""
"null","","html-keyboard-response","40","139261","0.0-2.0-2.12","3SKEMFQBZ4RV96TIXCRF1RA0QD88KD","A1SHLWKA0UH1IS","3R5LWXWHR0UE010DORDQUF3E2FPGXE","","","null","","","","","","","",""
"90.09999990463257","","image-keyboard-response","41","139352","0.0-2.0-0.13","3SKEMFQBZ4RV96TIXCRF1RA0QD88KD","A1SHLWKA0UH1IS","3R5LWXWHR0UE010DORDQUF3E2FPGXE","","img/practice/S1.jpg","72","1","practice","83","false","","","",""
"null","","html-keyboard-response","42","139657","0.0-2.0-1.13","3SKEMFQBZ4RV96TIXCRF1RA0QD88KD","A1SHLWKA0UH1IS","3R5LWXWHR0UE010DORDQUF3E2FPGXE","","<img src=""img/practice/S1.jpg"" width=""540"" height = ""360"">","null","","","","","","","",""
"null","","html-keyboard-response","43","139659","0.0-2.0-2.13","3SKEMFQBZ4RV96TIXCRF1RA0QD88KD","A1SHLWKA0UH1IS","3R5LWXWHR0UE010DORDQUF3E2FPGXE","","","null","","","","","","","",""
"483.5","","image-keyboard-response","44","140143","0.0-2.0-0.14","3SKEMFQBZ4RV96TIXCRF1RA0QD88KD","A1SHLWKA0UH1IS","3R5LWXWHR0UE010DORDQUF3E2FPGXE","","img/practice/S4.jpg","83","4","practice","74","false","","","",""
"null","","html-keyboard-response","45","140445","0.0-2.0-1.14","3SKEMFQBZ4RV96TIXCRF1RA0QD88KD","A1SHLWKA0UH1IS","3R5LWXWHR0UE010DORDQUF3E2FPGXE","","<img src=""img/practice/S4.jpg"" width=""540"" height = ""360"">","null","","","","","","","",""
"null","","html-keyboard-response","46","140446","0.0-2.0-2.14","3SKEMFQBZ4RV96TIXCRF1RA0QD88KD","A1SHLWKA0UH1IS","3R5LWXWHR0UE010DORDQUF3E2FPGXE","","","null","","","","","","","",""
"716","","image-keyboard-response","47","141163","0.0-2.0-0.15","3SKEMFQBZ4RV96TIXCRF1RA0QD88KD","A1SHLWKA0UH1IS","3R5LWXWHR0UE010DORDQUF3E2FPGXE","","img/practice/S2.jpg","68","2","practice","68","true","","","",""
"null","","html-keyboard-response","48","141465","0.0-2.0-1.15","3SKEMFQBZ4RV96TIXCRF1RA0QD88KD","A1SHLWKA0UH1IS","3R5LWXWHR0UE010DORDQUF3E2FPGXE","","<img src=""img/practice/S2.jpg"" width=""540"" height = ""360"" style=""border:16px solid orange"">","null","","","","","","","",""
"null","","html-keyboard-response","49","141466","0.0-2.0-2.15","3SKEMFQBZ4RV96TIXCRF1RA0QD88KD","A1SHLWKA0UH1IS","3R5LWXWHR0UE010DORDQUF3E2FPGXE","","","null","","","","","","","",""
"1077.4000000953674","","image-keyboard-response","50","142545","0.0-2.0-0.16","3SKEMFQBZ4RV96TIXCRF1RA0QD88KD","A1SHLWKA0UH1IS","3R5LWXWHR0UE010DORDQUF3E2FPGXE","","img/practice/S4.jpg","83","4","practice","74","false","","","",""
"null","","html-keyboard-response","51","142847","0.0-2.0-1.16","3SKEMFQBZ4RV96TIXCRF1RA0QD88KD","A1SHLWKA0UH1IS","3R5LWXWHR0UE010DORDQUF3E2FPGXE","","<img src=""img/practice/S4.jpg"" width=""540"" height = ""360"">","null","","","","","","","",""
"null","","html-keyboard-response","52","142849","0.0-2.0-2.16","3SKEMFQBZ4RV96TIXCRF1RA0QD88KD","A1SHLWKA0UH1IS","3R5LWXWHR0UE010DORDQUF3E2FPGXE","","","null","","","","","","","",""
"1022.5999999046326","","image-keyboard-response","53","143872","0.0-2.0-0.17","3SKEMFQBZ4RV96TIXCRF1RA0QD88KD","A1SHLWKA0UH1IS","3R5LWXWHR0UE010DORDQUF3E2FPGXE","","img/practice/S2.jpg","68","2","practice","68","true","","","",""
"null","","html-keyboard-response","54","144175","0.0-2.0-1.17","3SKEMFQBZ4RV96TIXCRF1RA0QD88KD","A1SHLWKA0UH1IS","3R5LWXWHR0UE010DORDQUF3E2FPGXE","","<img src=""img/practice/S2.jpg"" width=""540"" height = ""360"" style=""border:16px solid orange"">","null","","","","","","","",""
"null","","html-keyboard-response","55","144177","0.0-2.0-2.17","3SKEMFQBZ4RV96TIXCRF1RA0QD88KD","A1SHLWKA0UH1IS","3R5LWXWHR0UE010DORDQUF3E2FPGXE","","","null","","","","","","","",""
"817.2000000476837","","image-keyboard-response","56","144995","0.0-2.0-0.18","3SKEMFQBZ4RV96TIXCRF1RA0QD88KD","A1SHLWKA0UH1IS","3R5LWXWHR0UE010DORDQUF3E2FPGXE","","img/practice/S3.jpg","72","3","practice","72","true","","","",""
"null","","html-keyboard-response","57","145298","0.0-2.0-1.18","3SKEMFQBZ4RV96TIXCRF1RA0QD88KD","A1SHLWKA0UH1IS","3R5LWXWHR0UE010DORDQUF3E2FPGXE","","<img src=""img/practice/S3.jpg"" width=""540"" height = ""360"" style=""border:16px solid orange"">","null","","","","","","","",""
"null","","html-keyboard-response","58","145300","0.0-2.0-2.18","3SKEMFQBZ4RV96TIXCRF1RA0QD88KD","A1SHLWKA0UH1IS","3R5LWXWHR0UE010DORDQUF3E2FPGXE","","","null","","","","","","","",""
"822.1000001430511","","image-keyboard-response","59","146123","0.0-2.0-0.19","3SKEMFQBZ4RV96TIXCRF1RA0QD88KD","A1SHLWKA0UH1IS","3R5LWXWHR0UE010DORDQUF3E2FPGXE","","img/practice/S1.jpg","83","1","practice","83","true","","","",""
"null","","html-keyboard-response","60","146428","0.0-2.0-1.19","3SKEMFQBZ4RV96TIXCRF1RA0QD88KD","A1SHLWKA0UH1IS","3R5LWXWHR0UE010DORDQUF3E2FPGXE","","<img src=""img/practice/S1.jpg"" width=""540"" height = ""360"" style=""border:16px solid orange"">","null","","","","","","","",""
"null","","html-keyboard-response","61","146429","0.0-2.0-2.19","3SKEMFQBZ4RV96TIXCRF1RA0QD88KD","A1SHLWKA0UH1IS","3R5LWXWHR0UE010DORDQUF3E2FPGXE","","","null","","","","","","","",""
"983.2999999523163","","image-keyboard-response","62","147413","0.0-2.0-0.20","3SKEMFQBZ4RV96TIXCRF1RA0QD88KD","A1SHLWKA0UH1IS","3R5LWXWHR0UE010DORDQUF3E2FPGXE","","img/practice/S2.jpg","68","2","practice","68","true","","","",""
"null","","html-keyboard-response","63","147717","0.0-2.0-1.20","3SKEMFQBZ4RV96TIXCRF1RA0QD88KD","A1SHLWKA0UH1IS","3R5LWXWHR0UE010DORDQUF3E2FPGXE","","<img src=""img/practice/S2.jpg"" width=""540"" height = ""360"" style=""border:16px solid orange"">","null","","","","","","","",""
"null","","html-keyboard-response","64","147719","0.0-2.0-2.20","3SKEMFQBZ4RV96TIXCRF1RA0QD88KD","A1SHLWKA0UH1IS","3R5LWXWHR0UE010DORDQUF3E2FPGXE","","","null","","","","","","","",""
"674.1000001430511","","image-keyboard-response","65","148393","0.0-2.0-0.21","3SKEMFQBZ4RV96TIXCRF1RA0QD88KD","A1SHLWKA0UH1IS","3R5LWXWHR0UE010DORDQUF3E2FPGXE","","img/practice/S3.jpg","72","3","practice","72","true","","","",""
"null","","html-keyboard-response","66","148698","0.0-2.0-1.21","3SKEMFQBZ4RV96TIXCRF1RA0QD88KD","A1SHLWKA0UH1IS","3R5LWXWHR0UE010DORDQUF3E2FPGXE","","<img src=""img/practice/S3.jpg"" width=""540"" height = ""360"" style=""border:16px solid orange"">","null","","","","","","","",""
"null","","html-keyboard-response","67","148700","0.0-2.0-2.21","3SKEMFQBZ4RV96TIXCRF1RA0QD88KD","A1SHLWKA0UH1IS","3R5LWXWHR0UE010DORDQUF3E2FPGXE","","","null","","","","","","","",""
"784.0999999046326","","image-keyboard-response","68","149485","0.0-2.0-0.22","3SKEMFQBZ4RV96TIXCRF1RA0QD88KD","A1SHLWKA0UH1IS","3R5LWXWHR0UE010DORDQUF3E2FPGXE","","img/practice/S1.jpg","74","1","practice","83","false","","","",""
"null","","html-keyboard-response","69","149789","0.0-2.0-1.22","3SKEMFQBZ4RV96TIXCRF1RA0QD88KD","A1SHLWKA0UH1IS","3R5LWXWHR0UE010DORDQUF3E2FPGXE","","<img src=""img/practice/S1.jpg"" width=""540"" height = ""360"">","null","","","","","","","",""
"null","","html-keyboard-response","70","149792","0.0-2.0-2.22","3SKEMFQBZ4RV96TIXCRF1RA0QD88KD","A1SHLWKA0UH1IS","3R5LWXWHR0UE010DORDQUF3E2FPGXE","","","null","","","","","","","",""
"1306.4000000953674","","image-keyboard-response","71","151099","0.0-2.0-0.23","3SKEMFQBZ4RV96TIXCRF1RA0QD88KD","A1SHLWKA0UH1IS","3R5LWXWHR0UE010DORDQUF3E2FPGXE","","img/practice/S4.jpg","74","4","practice","74","true","","","",""
"null","","html-keyboard-response","72","151404","0.0-2.0-1.23","3SKEMFQBZ4RV96TIXCRF1RA0QD88KD","A1SHLWKA0UH1IS","3R5LWXWHR0UE010DORDQUF3E2FPGXE","","<img src=""img/practice/S4.jpg"" width=""540"" height = ""360"" style=""border:16px solid orange"">","null","","","","","","","",""
"null","","html-keyboard-response","73","151405","0.0-2.0-2.23","3SKEMFQBZ4RV96TIXCRF1RA0QD88KD","A1SHLWKA0UH1IS","3R5LWXWHR0UE010DORDQUF3E2FPGXE","","","null","","","","","","","",""
"2298.899999856949","","instructions","74","153705","0.0-3.0","3SKEMFQBZ4RV96TIXCRF1RA0QD88KD","A1SHLWKA0UH1IS","3R5LWXWHR0UE010DORDQUF3E2FPGXE","[{""page_index"":0,""viewing_time"":2298.7000000476837}]","","","","","","","","","",""
"10343.299999952316","","instructions","75","164049","0.0-4.0","3SKEMFQBZ4RV96TIXCRF1RA0QD88KD","A1SHLWKA0UH1IS","3R5LWXWHR0UE010DORDQUF3E2FPGXE","[{""page_index"":0,""viewing_time"":10343.099999904633}]","","","","","","","","","",""
"14360.400000095367","","instructions","76","178410","0.0-5.0","3SKEMFQBZ4RV96TIXCRF1RA0QD88KD","A1SHLWKA0UH1IS","3R5LWXWHR0UE010DORDQUF3E2FPGXE","[{""page_index"":0,""viewing_time"":7304.300000190735},{""page_index"":1,""viewing_time"":7055.899999856949}]","","","","","","","","","",""
"1424","","image-keyboard-response","77","179835","0.0-6.0","3SKEMFQBZ4RV96TIXCRF1RA0QD88KD","A1SHLWKA0UH1IS","3R5LWXWHR0UE010DORDQUF3E2FPGXE","","img/set1/S1.jpg","74","1","structured_incentive","83","false","structured_incentive,structured_normal,random","1,2,2,3","",""
"null","","html-keyboard-response","78","180190","0.0-7.0","3SKEMFQBZ4RV96TIXCRF1RA0QD88KD","A1SHLWKA0UH1IS","3R5LWXWHR0UE010DORDQUF3E2FPGXE","","<img src=""img/set1/S1.jpg"" width=""540"" height = ""360"">","null","","","","","","","",""
"null","","html-keyboard-response","79","180192","0.0-8.0","3SKEMFQBZ4RV96TIXCRF1RA0QD88KD","A1SHLWKA0UH1IS","3R5LWXWHR0UE010DORDQUF3E2FPGXE","","","null","","","","","","","",""
"1624.0999999046326","","image-keyboard-response","80","181817","0.0-9.0","3SKEMFQBZ4RV96TIXCRF1RA0QD88KD","A1SHLWKA0UH1IS","3R5LWXWHR0UE010DORDQUF3E2FPGXE","","img/set1/S2.jpg","72","2","structured_incentive","68","false","structured_incentive,structured_normal,random","1,2,2,3","",""
"null","","html-keyboard-response","81","182172","0.0-10.0","3SKEMFQBZ4RV96TIXCRF1RA0QD88KD","A1SHLWKA0UH1IS","3R5LWXWHR0UE010DORDQUF3E2FPGXE","","<img src=""img/set1/S2.jpg"" width=""540"" height = ""360"">","null","","","","","","","",""
"null","","html-keyboard-response","82","182174","0.0-11.0","3SKEMFQBZ4RV96TIXCRF1RA0QD88KD","A1SHLWKA0UH1IS","3R5LWXWHR0UE010DORDQUF3E2FPGXE","","","null","","","","","","","",""
"884.3999998569489","","image-keyboard-response","83","183059","0.0-12.0","3SKEMFQBZ4RV96TIXCRF1RA0QD88KD","A1SHLWKA0UH1IS","3R5LWXWHR0UE010DORDQUF3E2FPGXE","","img/set1/S3.jpg","72","3","structured_incentive","72","true","structured_incentive,structured_normal,random","1,2,2,3","",""
"null","","html-keyboard-response","84","183413","0.0-13.0","3SKEMFQBZ4RV96TIXCRF1RA0QD88KD","A1SHLWKA0UH1IS","3R5LWXWHR0UE010DORDQUF3E2FPGXE","","<img src=""img/set1/S3.jpg"" width=""540"" height = ""360"" style=""border:16px solid Violet"">","null","","","","","","","",""
"null","","html-keyboard-response","85","183414","0.0-14.0","3SKEMFQBZ4RV96TIXCRF1RA0QD88KD","A1SHLWKA0UH1IS","3R5LWXWHR0UE010DORDQUF3E2FPGXE","","","null","","","","","","","",""
"765","","image-keyboard-response","86","184180","0.0-15.0","3SKEMFQBZ4RV96TIXCRF1RA0QD88KD","A1SHLWKA0UH1IS","3R5LWXWHR0UE010DORDQUF3E2FPGXE","","img/set1/S3.jpg","72","3","structured_incentive","72","true","structured_incentive,structured_normal,random","1,2,2,3","",""
"null","","html-keyboard-response","87","184533","0.0-16.0","3SKEMFQBZ4RV96TIXCRF1RA0QD88KD","A1SHLWKA0UH1IS","3R5LWXWHR0UE010DORDQUF3E2FPGXE","","<img src=""img/set1/S3.jpg"" width=""540"" height = ""360"" style=""border:16px solid Violet"">","null","","","","","","","",""
"null","","html-keyboard-response","88","184534","0.0-17.0","3SKEMFQBZ4RV96TIXCRF1RA0QD88KD","A1SHLWKA0UH1IS","3R5LWXWHR0UE010DORDQUF3E2FPGXE","","","null","","","","","","","",""
"778.8999998569489","","image-keyboard-response","89","185314","0.0-18.0","3SKEMFQBZ4RV96TIXCRF1RA0QD88KD","A1SHLWKA0UH1IS","3R5LWXWHR0UE010DORDQUF3E2FPGXE","","img/set1/S4.jpg","74","4","structured_incentive","74","true","structured_incentive,structured_normal,random","1,2,2,3","",""
"null","","html-keyboard-response","90","185669","0.0-19.0","3SKEMFQBZ4RV96TIXCRF1RA0QD88KD","A1SHLWKA0UH1IS","3R5LWXWHR0UE010DORDQUF3E2FPGXE","","<img src=""img/set1/S4.jpg"" width=""540"" height = ""360"" style=""border:16px solid orange"">","null","","","","","","","",""
"null","","html-keyboard-response","91","185670","0.0-20.0","3SKEMFQBZ4RV96TIXCRF1RA0QD88KD","A1SHLWKA0UH1IS","3R5LWXWHR0UE010DORDQUF3E2FPGXE","","","null","","","","","","","",""
"587.7999999523163","","image-keyboard-response","92","186259","0.0-21.0","3SKEMFQBZ4RV96TIXCRF1RA0QD88KD","A1SHLWKA0UH1IS","3R5LWXWHR0UE010DORDQUF3E2FPGXE","","img/set1/S4.jpg","74","4","structured_incentive","74","true","structured_incentive,structured_normal,random","1,2,2,3","",""
"null","","html-keyboard-response","93","186612","0.0-22.0","3SKEMFQBZ4RV96TIXCRF1RA0QD88KD","A1SHLWKA0UH1IS","3R5LWXWHR0UE010DORDQUF3E2FPGXE","","<img src=""img/set1/S4.jpg"" width=""540"" height = ""360"" style=""border:16px solid orange"">","null","","","","","","","",""
"null","","html-keyboard-response","94","186614","0.0-23.0","3SKEMFQBZ4RV96TIXCRF1RA0QD88KD","A1SHLWKA0UH1IS","3R5LWXWHR0UE010DORDQUF3E2FPGXE","","","null","","","","","","","",""
"578.2999999523163","","image-keyboard-response","95","187193","0.0-24.0","3SKEMFQBZ4RV96TIXCRF1RA0QD88KD","A1SHLWKA0UH1IS","3R5LWXWHR0UE010DORDQUF3E2FPGXE","","img/set1/S4.jpg","74","4","structured_incentive","74","true","structured_incentive,structured_normal,random","1,2,2,3","",""
"null","","html-keyboard-response","96","187549","0.0-25.0","3SKEMFQBZ4RV96TIXCRF1RA0QD88KD","A1SHLWKA0UH1IS","3R5LWXWHR0UE010DORDQUF3E2FPGXE","","<img src=""img/set1/S4.jpg"" width=""540"" height = ""360"" style=""border:16px solid orange"">","null","","","","","","","",""
"null","","html-keyboard-response","97","187550","0.0-26.0","3SKEMFQBZ4RV96TIXCRF1RA0QD88KD","A1SHLWKA0UH1IS","3R5LWXWHR0UE010DORDQUF3E2FPGXE","","","null","","","","","","","",""
"585","","image-keyboard-response","98","188136","0.0-27.0","3SKEMFQBZ4RV96TIXCRF1RA0QD88KD","A1SHLWKA0UH1IS","3R5LWXWHR0UE010DORDQUF3E2FPGXE","","img/set1/S3.jpg","72","3","structured_incentive","72","true","structured_incentive,structured_normal,random","1,2,2,3","",""
"null","","html-keyboard-response","99","188489","0.0-28.0","3SKEMFQBZ4RV96TIXCRF1RA0QD88KD","A1SHLWKA0UH1IS","3R5LWXWHR0UE010DORDQUF3E2FPGXE","","<img src=""img/set1/S3.jpg"" width=""540"" height = ""360"" style=""border:16px solid Violet"">","null","","","","","","","",""
"null","","html-keyboard-response","100","188491","0.0-29.0","3SKEMFQBZ4RV96TIXCRF1RA0QD88KD","A1SHLWKA0UH1IS","3R5LWXWHR0UE010DORDQUF3E2FPGXE","","","null","","","","","","","",""
"841.4000000953674","","image-keyboard-response","101","189333","0.0-30.0","3SKEMFQBZ4RV96TIXCRF1RA0QD88KD","A1SHLWKA0UH1IS","3R5LWXWHR0UE010DORDQUF3E2FPGXE","","img/set1/S1.jpg","68","1","structured_incentive","83","false","structured_incentive,structured_normal,random","1,2,2,3","",""
"null","","html-keyboard-response","102","189689","0.0-31.0","3SKEMFQBZ4RV96TIXCRF1RA0QD88KD","A1SHLWKA0UH1IS","3R5LWXWHR0UE010DORDQUF3E2FPGXE","","<img src=""img/set1/S1.jpg"" width=""540"" height = ""360"">","null","","","","","","","",""
"null","","html-keyboard-response","103","189690","0.0-32.0","3SKEMFQBZ4RV96TIXCRF1RA0QD88KD","A1SHLWKA0UH1IS","3R5LWXWHR0UE010DORDQUF3E2FPGXE","","","null","","","","","","","",""
"1015.2000000476837","","image-keyboard-response","104","190706","0.0-33.0","3SKEMFQBZ4RV96TIXCRF1RA0QD88KD","A1SHLWKA0UH1IS","3R5LWXWHR0UE010DORDQUF3E2FPGXE","","img/set1/S2.jpg","83","2","structured_incentive","68","false","structured_incentive,structured_normal,random","1,2,2,3","",""
"null","","html-keyboard-response","105","191061","0.0-34.0","3SKEMFQBZ4RV96TIXCRF1RA0QD88KD","A1SHLWKA0UH1IS","3R5LWXWHR0UE010DORDQUF3E2FPGXE","","<img src=""img/set1/S2.jpg"" width=""540"" height = ""360"">","null","","","","","","","",""
"null","","html-keyboard-response","106","191062","0.0-35.0","3SKEMFQBZ4RV96TIXCRF1RA0QD88KD","A1SHLWKA0UH1IS","3R5LWXWHR0UE010DORDQUF3E2FPGXE","","","null","","","","","","","",""
"988.1000001430511","","image-keyboard-response","107","192051","0.0-36.0","3SKEMFQBZ4RV96TIXCRF1RA0QD88KD","A1SHLWKA0UH1IS","3R5LWXWHR0UE010DORDQUF3E2FPGXE","","img/set1/S1.jpg","83","1","structured_incentive","83","true","structured_incentive,structured_normal,random","1,2,2,3","",""
"null","","html-keyboard-response","108","192405","0.0-37.0","3SKEMFQBZ4RV96TIXCRF1RA0QD88KD","A1SHLWKA0UH1IS","3R5LWXWHR0UE010DORDQUF3E2FPGXE","","<img src=""img/set1/S1.jpg"" width=""540"" height = ""360"" style=""border:16px solid orange"">","null","","","","","","","",""
"null","","html-keyboard-response","109","192407","0.0-38.0","3SKEMFQBZ4RV96TIXCRF1RA0QD88KD","A1SHLWKA0UH1IS","3R5LWXWHR0UE010DORDQUF3E2FPGXE","","","null","","","","","","","",""
"769","","image-keyboard-response","110","193176","0.0-39.0","3SKEMFQBZ4RV96TIXCRF1RA0QD88KD","A1SHLWKA0UH1IS","3R5LWXWHR0UE010DORDQUF3E2FPGXE","","img/set1/S3.jpg","72","3","structured_incentive","72","true","structured_incentive,structured_normal,random","1,2,2,3","",""
"null","","html-keyboard-response","111","193532","0.0-40.0","3SKEMFQBZ4RV96TIXCRF1RA0QD88KD","A1SHLWKA0UH1IS","3R5LWXWHR0UE010DORDQUF3E2FPGXE","","<img src=""img/set1/S3.jpg"" width=""540"" height = ""360"" style=""border:16px solid Violet"">","null","","","","","","","",""
"null","","html-keyboard-response","112","193533","0.0-41.0","3SKEMFQBZ4RV96TIXCRF1RA0QD88KD","A1SHLWKA0UH1IS","3R5LWXWHR0UE010DORDQUF3E2FPGXE","","","null","","","","","","","",""
"801.0999999046326","","image-keyboard-response","113","194335","0.0-42.0","3SKEMFQBZ4RV96TIXCRF1RA0QD88KD","A1SHLWKA0UH1IS","3R5LWXWHR0UE010DORDQUF3E2FPGXE","","img/set1/S4.jpg","74","4","structured_incentive","74","true","structured_incentive,structured_normal,random","1,2,2,3","",""
"null","","html-keyboard-response","114","194687","0.0-43.0","3SKEMFQBZ4RV96TIXCRF1RA0QD88KD","A1SHLWKA0UH1IS","3R5LWXWHR0UE010DORDQUF3E2FPGXE","","<img src=""img/set1/S4.jpg"" width=""540"" height = ""360"" style=""border:16px solid orange"">","null","","","","","","","",""
"null","","html-keyboard-response","115","194688","0.0-44.0","3SKEMFQBZ4RV96TIXCRF1RA0QD88KD","A1SHLWKA0UH1IS","3R5LWXWHR0UE010DORDQUF3E2FPGXE","","","null","","","","","","","",""
"498.89999985694885","","image-keyboard-response","116","195188","0.0-45.0","3SKEMFQBZ4RV96TIXCRF1RA0QD88KD","A1SHLWKA0UH1IS","3R5LWXWHR0UE010DORDQUF3E2FPGXE","","img/set1/S4.jpg","74","4","structured_incentive","74","true","structured_incentive,structured_normal,random","1,2,2,3","",""
"null","","html-keyboard-response","117","195541","0.0-46.0","3SKEMFQBZ4RV96TIXCRF1RA0QD88KD","A1SHLWKA0UH1IS","3R5LWXWHR0UE010DORDQUF3E2FPGXE","","<img src=""img/set1/S4.jpg"" width=""540"" height = ""360"" style=""border:16px solid orange"">","null","","","","","","","",""
"null","","html-keyboard-response","118","195542","0.0-47.0","3SKEMFQBZ4RV96TIXCRF1RA0QD88KD","A1SHLWKA0UH1IS","3R5LWXWHR0UE010DORDQUF3E2FPGXE","","","null","","","","","","","",""
"881.0999999046326","","image-keyboard-response","119","196424","0.0-48.0","3SKEMFQBZ4RV96TIXCRF1RA0QD88KD","A1SHLWKA0UH1IS","3R5LWXWHR0UE010DORDQUF3E2FPGXE","","img/set1/S1.jpg","68","1","structured_incentive","83","false","structured_incentive,structured_normal,random","1,2,2,3","",""
"null","","html-keyboard-response","120","196777","0.0-49.0","3SKEMFQBZ4RV96TIXCRF1RA0QD88KD","A1SHLWKA0UH1IS","3R5LWXWHR0UE010DORDQUF3E2FPGXE","","<img src=""img/set1/S1.jpg"" width=""540"" height = ""360"">","null","","","","","","","",""
"null","","html-keyboard-response","121","196778","0.0-50.0","3SKEMFQBZ4RV96TIXCRF1RA0QD88KD","A1SHLWKA0UH1IS","3R5LWXWHR0UE010DORDQUF3E2FPGXE","","","null","","","","","","","",""
"1135.3999998569489","","image-keyboard-response","122","197914","0.0-51.0","3SKEMFQBZ4RV96TIXCRF1RA0QD88KD","A1SHLWKA0UH1IS","3R5LWXWHR0UE010DORDQUF3E2FPGXE","","img/set1/S2.jpg","68","2","structured_incentive","68","true","structured_incentive,structured_normal,random","1,2,2,3","",""
"null","","html-keyboard-response","123","198269","0.0-52.0","3SKEMFQBZ4RV96TIXCRF1RA0QD88KD","A1SHLWKA0UH1IS","3R5LWXWHR0UE010DORDQUF3E2FPGXE","","<img src=""img/set1/S2.jpg"" width=""540"" height = ""360"" style=""border:16px solid orange"">","null","","","","","","","",""
"null","","html-keyboard-response","124","198270","0.0-53.0","3SKEMFQBZ4RV96TIXCRF1RA0QD88KD","A1SHLWKA0UH1IS","3R5LWXWHR0UE010DORDQUF3E2FPGXE","","","null","","","","","","","",""
"643.3999998569489","","image-keyboard-response","125","198914","0.0-54.0","3SKEMFQBZ4RV96TIXCRF1RA0QD88KD","A1SHLWKA0UH1IS","3R5LWXWHR0UE010DORDQUF3E2FPGXE","","img/set1/S2.jpg","68","2","structured_incentive","68","true","structured_incentive,structured_normal,random","1,2,2,3","",""
"null","","html-keyboard-response","126","199267","0.0-55.0","3SKEMFQBZ4RV96TIXCRF1RA0QD88KD","A1SHLWKA0UH1IS","3R5LWXWHR0UE010DORDQUF3E2FPGXE","","<img src=""img/set1/S2.jpg"" width=""540"" height = ""360"" style=""border:16px solid orange"">","null","","","","","","","",""
"null","","html-keyboard-response","127","199269","0.0-56.0","3SKEMFQBZ4RV96TIXCRF1RA0QD88KD","A1SHLWKA0UH1IS","3R5LWXWHR0UE010DORDQUF3E2FPGXE","","","null","","","","","","","",""
"1081.4000000953674","","image-keyboard-response","128","200351","0.0-57.0","3SKEMFQBZ4RV96TIXCRF1RA0QD88KD","A1SHLWKA0UH1IS","3R5LWXWHR0UE010DORDQUF3E2FPGXE","","img/set1/S4.jpg","74","4","structured_incentive","74","true","structured_incentive,structured_normal,random","1,2,2,3","",""
"null","","html-keyboard-response","129","200707","0.0-58.0","3SKEMFQBZ4RV96TIXCRF1RA0QD88KD","A1SHLWKA0UH1IS","3R5LWXWHR0UE010DORDQUF3E2FPGXE","","<img src=""img/set1/S4.jpg"" width=""540"" height = ""360"" style=""border:16px solid orange"">","null","","","","","","","",""
"null","","html-keyboard-response","130","200708","0.0-59.0","3SKEMFQBZ4RV96TIXCRF1RA0QD88KD","A1SHLWKA0UH1IS","3R5LWXWHR0UE010DORDQUF3E2FPGXE","","","null","","","","","","","",""
"427.09999990463257","","image-keyboard-response","131","201136","0.0-60.0","3SKEMFQBZ4RV96TIXCRF1RA0QD88KD","A1SHLWKA0UH1IS","3R5LWXWHR0UE010DORDQUF3E2FPGXE","","img/set1/S4.jpg","74","4","structured_incentive","74","true","structured_incentive,structured_normal,random","1,2,2,3","",""
"null","","html-keyboard-response","132","201490","0.0-61.0","3SKEMFQBZ4RV96TIXCRF1RA0QD88KD","A1SHLWKA0UH1IS","3R5LWXWHR0UE010DORDQUF3E2FPGXE","","<img src=""img/set1/S4.jpg"" width=""540"" height = ""360"" style=""border:16px solid orange"">","null","","","","","","","",""
"null","","html-keyboard-response","133","201491","0.0-62.0","3SKEMFQBZ4RV96TIXCRF1RA0QD88KD","A1SHLWKA0UH1IS","3R5LWXWHR0UE010DORDQUF3E2FPGXE","","","null","","","","","","","",""
"773.5999999046326","","image-keyboard-response","134","202266","0.0-63.0","3SKEMFQBZ4RV96TIXCRF1RA0QD88KD","A1SHLWKA0UH1IS","3R5LWXWHR0UE010DORDQUF3E2FPGXE","","img/set1/S1.jpg","68","1","structured_incentive","83","false","structured_incentive,structured_normal,random","1,2,2,3","",""
"null","","html-keyboard-response","135","202620","0.0-64.0","3SKEMFQBZ4RV96TIXCRF1RA0QD88KD","A1SHLWKA0UH1IS","3R5LWXWHR0UE010DORDQUF3E2FPGXE","","<img src=""img/set1/S1.jpg"" width=""540"" height = ""360"">","null","","","","","","","",""
"null","","html-keyboard-response","136","202621","0.0-65.0","3SKEMFQBZ4RV96TIXCRF1RA0QD88KD","A1SHLWKA0UH1IS","3R5LWXWHR0UE010DORDQUF3E2FPGXE","","","null","","","","","","","",""
"855.1999998092651","","image-keyboard-response","137","203477","0.0-66.0","3SKEMFQBZ4RV96TIXCRF1RA0QD88KD","A1SHLWKA0UH1IS","3R5LWXWHR0UE010DORDQUF3E2FPGXE","","img/set1/S3.jpg","72","3","structured_incentive","72","true","structured_incentive,structured_normal,random","1,2,2,3","",""
"null","","html-keyboard-response","138","203829","0.0-67.0","3SKEMFQBZ4RV96TIXCRF1RA0QD88KD","A1SHLWKA0UH1IS","3R5LWXWHR0UE010DORDQUF3E2FPGXE","","<img src=""img/set1/S3.jpg"" width=""540"" height = ""360"" style=""border:16px solid Violet"">","null","","","","","","","",""
"null","","html-keyboard-response","139","203831","0.0-68.0","3SKEMFQBZ4RV96TIXCRF1RA0QD88KD","A1SHLWKA0UH1IS","3R5LWXWHR0UE010DORDQUF3E2FPGXE","","","null","","","","","","","",""
"1158.1000001430511","","image-keyboard-response","140","204990","0.0-69.0","3SKEMFQBZ4RV96TIXCRF1RA0QD88KD","A1SHLWKA0UH1IS","3R5LWXWHR0UE010DORDQUF3E2FPGXE","","img/set1/S4.jpg","74","4","structured_incentive","74","true","structured_incentive,structured_normal,random","1,2,2,3","",""
"null","","html-keyboard-response","141","205345","0.0-70.0","3SKEMFQBZ4RV96TIXCRF1RA0QD88KD","A1SHLWKA0UH1IS","3R5LWXWHR0UE010DORDQUF3E2FPGXE","","<img src=""img/set1/S4.jpg"" width=""540"" height = ""360"" style=""border:16px solid orange"">","null","","","","","","","",""
"null","","html-keyboard-response","142","205347","0.0-71.0","3SKEMFQBZ4RV96TIXCRF1RA0QD88KD","A1SHLWKA0UH1IS","3R5LWXWHR0UE010DORDQUF3E2FPGXE","","","null","","","","","","","",""
"941.2000000476837","","image-keyboard-response","143","206289","0.0-72.0","3SKEMFQBZ4RV96TIXCRF1RA0QD88KD","A1SHLWKA0UH1IS","3R5LWXWHR0UE010DORDQUF3E2FPGXE","","img/set1/S1.jpg","83","1","structured_incentive","83","true","structured_incentive,structured_normal,random","1,2,2,3","",""
"null","","html-keyboard-response","144","206645","0.0-73.0","3SKEMFQBZ4RV96TIXCRF1RA0QD88KD","A1SHLWKA0UH1IS","3R5LWXWHR0UE010DORDQUF3E2FPGXE","","<img src=""img/set1/S1.jpg"" width=""540"" height = ""360"" style=""border:16px solid orange"">","null","","","","","","","",""
"null","","html-keyboard-response","145","206646","0.0-74.0","3SKEMFQBZ4RV96TIXCRF1RA0QD88KD","A1SHLWKA0UH1IS","3R5LWXWHR0UE010DORDQUF3E2FPGXE","","","null","","","","","","","",""
"796.7000000476837","","image-keyboard-response","146","207444","0.0-75.0","3SKEMFQBZ4RV96TIXCRF1RA0QD88KD","A1SHLWKA0UH1IS","3R5LWXWHR0UE010DORDQUF3E2FPGXE","","img/set1/S2.jpg","68","2","structured_incentive","68","true","structured_incentive,structured_normal,random","1,2,2,3","",""
"null","","html-keyboard-response","147","207795","0.0-76.0","3SKEMFQBZ4RV96TIXCRF1RA0QD88KD","A1SHLWKA0UH1IS","3R5LWXWHR0UE010DORDQUF3E2FPGXE","","<img src=""img/set1/S2.jpg"" width=""540"" height = ""360"" style=""border:16px solid orange"">","null","","","","","","","",""
"null","","html-keyboard-response","148","207797","0.0-77.0","3SKEMFQBZ4RV96TIXCRF1RA0QD88KD","A1SHLWKA0UH1IS","3R5LWXWHR0UE010DORDQUF3E2FPGXE","","","null","","","","","","","",""
"614.5","","image-keyboard-response","149","208412","0.0-78.0","3SKEMFQBZ4RV96TIXCRF1RA0QD88KD","A1SHLWKA0UH1IS","3R5LWXWHR0UE010DORDQUF3E2FPGXE","","img/set1/S1.jpg","83","1","structured_incentive","83","true","structured_incentive,structured_normal,random","1,2,2,3","",""
"null","","html-keyboard-response","150","208765","0.0-79.0","3SKEMFQBZ4RV96TIXCRF1RA0QD88KD","A1SHLWKA0UH1IS","3R5LWXWHR0UE010DORDQUF3E2FPGXE","","<img src=""img/set1/S1.jpg"" width=""540"" height = ""360"" style=""border:16px solid orange"">","null","","","","","","","",""
"null","","html-keyboard-response","151","208767","0.0-80.0","3SKEMFQBZ4RV96TIXCRF1RA0QD88KD","A1SHLWKA0UH1IS","3R5LWXWHR0UE010DORDQUF3E2FPGXE","","","null","","","","","","","",""
"700","","image-keyboard-response","152","209468","0.0-81.0","3SKEMFQBZ4RV96TIXCRF1RA0QD88KD","A1SHLWKA0UH1IS","3R5LWXWHR0UE010DORDQUF3E2FPGXE","","img/set1/S2.jpg","68","2","structured_incentive","68","true","structured_incentive,structured_normal,random","1,2,2,3","",""
"null","","html-keyboard-response","153","209821","0.0-82.0","3SKEMFQBZ4RV96TIXCRF1RA0QD88KD","A1SHLWKA0UH1IS","3R5LWXWHR0UE010DORDQUF3E2FPGXE","","<img src=""img/set1/S2.jpg"" width=""540"" height = ""360"" style=""border:16px solid orange"">","null","","","","","","","",""
"null","","html-keyboard-response","154","209822","0.0-83.0","3SKEMFQBZ4RV96TIXCRF1RA0QD88KD","A1SHLWKA0UH1IS","3R5LWXWHR0UE010DORDQUF3E2FPGXE","","","null","","","","","","","",""
"672.2999999523163","","image-keyboard-response","155","210495","0.0-84.0","3SKEMFQBZ4RV96TIXCRF1RA0QD88KD","A1SHLWKA0UH1IS","3R5LWXWHR0UE010DORDQUF3E2FPGXE","","img/set1/S3.jpg","72","3","structured_incentive","72","true","structured_incentive,structured_normal,random","1,2,2,3","",""
"null","","html-keyboard-response","156","210850","0.0-85.0","3SKEMFQBZ4RV96TIXCRF1RA0QD88KD","A1SHLWKA0UH1IS","3R5LWXWHR0UE010DORDQUF3E2FPGXE","","<img src=""img/set1/S3.jpg"" width=""540"" height = ""360"" style=""border:16px solid Violet"">","null","","","","","","","",""
"null","","html-keyboard-response","157","210851","0.0-86.0","3SKEMFQBZ4RV96TIXCRF1RA0QD88KD","A1SHLWKA0UH1IS","3R5LWXWHR0UE010DORDQUF3E2FPGXE","","","null","","","","","","","",""
"739.8999998569489","","image-keyboard-response","158","211592","0.0-87.0","3SKEMFQBZ4RV96TIXCRF1RA0QD88KD","A1SHLWKA0UH1IS","3R5LWXWHR0UE010DORDQUF3E2FPGXE","","img/set1/S1.jpg","83","1","structured_incentive","83","true","structured_incentive,structured_normal,random","1,2,2,3","",""
"null","","html-keyboard-response","159","211945","0.0-88.0","3SKEMFQBZ4RV96TIXCRF1RA0QD88KD","A1SHLWKA0UH1IS","3R5LWXWHR0UE010DORDQUF3E2FPGXE","","<img src=""img/set1/S1.jpg"" width=""540"" height = ""360"" style=""border:16px solid orange"">","null","","","","","","","",""
"null","","html-keyboard-response","160","211947","0.0-89.0","3SKEMFQBZ4RV96TIXCRF1RA0QD88KD","A1SHLWKA0UH1IS","3R5LWXWHR0UE010DORDQUF3E2FPGXE","","","null","","","","","","","",""
"769.8000001907349","","image-keyboard-response","161","212717","0.0-90.0","3SKEMFQBZ4RV96TIXCRF1RA0QD88KD","A1SHLWKA0UH1IS","3R5LWXWHR0UE010DORDQUF3E2FPGXE","","img/set1/S2.jpg","68","2","structured_incentive","68","true","structured_incentive,structured_normal,random","1,2,2,3","",""
"null","","html-keyboard-response","162","213072","0.0-91.0","3SKEMFQBZ4RV96TIXCRF1RA0QD88KD","A1SHLWKA0UH1IS","3R5LWXWHR0UE010DORDQUF3E2FPGXE","","<img src=""img/set1/S2.jpg"" width=""540"" height = ""360"" style=""border:16px solid orange"">","null","","","","","","","",""
"null","","html-keyboard-response","163","213073","0.0-92.0","3SKEMFQBZ4RV96TIXCRF1RA0QD88KD","A1SHLWKA0UH1IS","3R5LWXWHR0UE010DORDQUF3E2FPGXE","","","null","","","","","","","",""
"669.2000000476837","","image-keyboard-response","164","213743","0.0-93.0","3SKEMFQBZ4RV96TIXCRF1RA0QD88KD","A1SHLWKA0UH1IS","3R5LWXWHR0UE010DORDQUF3E2FPGXE","","img/set1/S4.jpg","74","4","structured_incentive","74","true","structured_incentive,structured_normal,random","1,2,2,3","",""
"null","","html-keyboard-response","165","214098","0.0-94.0","3SKEMFQBZ4RV96TIXCRF1RA0QD88KD","A1SHLWKA0UH1IS","3R5LWXWHR0UE010DORDQUF3E2FPGXE","","<img src=""img/set1/S4.jpg"" width=""540"" height = ""360"" style=""border:16px solid orange"">","null","","","","","","","",""
"null","","html-keyboard-response","166","214099","0.0-95.0","3SKEMFQBZ4RV96TIXCRF1RA0QD88KD","A1SHLWKA0UH1IS","3R5LWXWHR0UE010DORDQUF3E2FPGXE","","","null","","","","","","","",""
"459.7999999523163","","image-keyboard-response","167","214560","0.0-96.0","3SKEMFQBZ4RV96TIXCRF1RA0QD88KD","A1SHLWKA0UH1IS","3R5LWXWHR0UE010DORDQUF3E2FPGXE","","img/set1/S4.jpg","74","4","structured_incentive","74","true","structured_incentive,structured_normal,random","1,2,2,3","",""
"null","","html-keyboard-response","168","214914","0.0-97.0","3SKEMFQBZ4RV96TIXCRF1RA0QD88KD","A1SHLWKA0UH1IS","3R5LWXWHR0UE010DORDQUF3E2FPGXE","","<img src=""img/set1/S4.jpg"" width=""540"" height = ""360"" style=""border:16px solid orange"">","null","","","","","","","",""
"null","","html-keyboard-response","169","214915","0.0-98.0","3SKEMFQBZ4RV96TIXCRF1RA0QD88KD","A1SHLWKA0UH1IS","3R5LWXWHR0UE010DORDQUF3E2FPGXE","","","null","","","","","","","",""
"531.5","","image-keyboard-response","170","215448","0.0-99.0","3SKEMFQBZ4RV96TIXCRF1RA0QD88KD","A1SHLWKA0UH1IS","3R5LWXWHR0UE010DORDQUF3E2FPGXE","","img/set1/S4.jpg","74","4","structured_incentive","74","true","structured_incentive,structured_normal,random","1,2,2,3","",""
"null","","html-keyboard-response","171","215803","0.0-100.0","3SKEMFQBZ4RV96TIXCRF1RA0QD88KD","A1SHLWKA0UH1IS","3R5LWXWHR0UE010DORDQUF3E2FPGXE","","<img src=""img/set1/S4.jpg"" width=""540"" height = ""360"" style=""border:16px solid orange"">","null","","","","","","","",""
"null","","html-keyboard-response","172","215805","0.0-101.0","3SKEMFQBZ4RV96TIXCRF1RA0QD88KD","A1SHLWKA0UH1IS","3R5LWXWHR0UE010DORDQUF3E2FPGXE","","","null","","","","","","","",""
"1160.5999999046326","","image-keyboard-response","173","216966","0.0-102.0","3SKEMFQBZ4RV96TIXCRF1RA0QD88KD","A1SHLWKA0UH1IS","3R5LWXWHR0UE010DORDQUF3E2FPGXE","","img/set1/S3.jpg","72","3","structured_incentive","72","true","structured_incentive,structured_normal,random","1,2,2,3","",""
"null","","html-keyboard-response","174","217321","0.0-103.0","3SKEMFQBZ4RV96TIXCRF1RA0QD88KD","A1SHLWKA0UH1IS","3R5LWXWHR0UE010DORDQUF3E2FPGXE","","<img src=""img/set1/S3.jpg"" width=""540"" height = ""360"" style=""border:16px solid Violet"">","null","","","","","","","",""
"null","","html-keyboard-response","175","217323","0.0-104.0","3SKEMFQBZ4RV96TIXCRF1RA0QD88KD","A1SHLWKA0UH1IS","3R5LWXWHR0UE010DORDQUF3E2FPGXE","","","null","","","","","","","",""
"744.2999999523163","","image-keyboard-response","176","218068","0.0-105.0","3SKEMFQBZ4RV96TIXCRF1RA0QD88KD","A1SHLWKA0UH1IS","3R5LWXWHR0UE010DORDQUF3E2FPGXE","","img/set1/S1.jpg","68","1","structured_incentive","83","false","structured_incentive,structured_normal,random","1,2,2,3","",""
"null","","html-keyboard-response","177","218422","0.0-106.0","3SKEMFQBZ4RV96TIXCRF1RA0QD88KD","A1SHLWKA0UH1IS","3R5LWXWHR0UE010DORDQUF3E2FPGXE","","<img src=""img/set1/S1.jpg"" width=""540"" height = ""360"">","null","","","","","","","",""
"null","","html-keyboard-response","178","218423","0.0-107.0","3SKEMFQBZ4RV96TIXCRF1RA0QD88KD","A1SHLWKA0UH1IS","3R5LWXWHR0UE010DORDQUF3E2FPGXE","","","null","","","","","","","",""
"834.7999999523163","","image-keyboard-response","179","219259","0.0-108.0","3SKEMFQBZ4RV96TIXCRF1RA0QD88KD","A1SHLWKA0UH1IS","3R5LWXWHR0UE010DORDQUF3E2FPGXE","","img/set1/S2.jpg","68","2","structured_incentive","68","true","structured_incentive,structured_normal,random","1,2,2,3","",""
"null","","html-keyboard-response","180","219613","0.0-109.0","3SKEMFQBZ4RV96TIXCRF1RA0QD88KD","A1SHLWKA0UH1IS","3R5LWXWHR0UE010DORDQUF3E2FPGXE","","<img src=""img/set1/S2.jpg"" width=""540"" height = ""360"" style=""border:16px solid orange"">","null","","","","","","","",""
"null","","html-keyboard-response","181","219615","0.0-110.0","3SKEMFQBZ4RV96TIXCRF1RA0QD88KD","A1SHLWKA0UH1IS","3R5LWXWHR0UE010DORDQUF3E2FPGXE","","","null","","","","","","","",""
"620.2000000476837","","image-keyboard-response","182","220236","0.0-111.0","3SKEMFQBZ4RV96TIXCRF1RA0QD88KD","A1SHLWKA0UH1IS","3R5LWXWHR0UE010DORDQUF3E2FPGXE","","img/set1/S4.jpg","74","4","structured_incentive","74","true","structured_incentive,structured_normal,random","1,2,2,3","",""
"null","","html-keyboard-response","183","220589","0.0-112.0","3SKEMFQBZ4RV96TIXCRF1RA0QD88KD","A1SHLWKA0UH1IS","3R5LWXWHR0UE010DORDQUF3E2FPGXE","","<img src=""img/set1/S4.jpg"" width=""540"" height = ""360"" style=""border:16px solid orange"">","null","","","","","","","",""
"null","","html-keyboard-response","184","220591","0.0-113.0","3SKEMFQBZ4RV96TIXCRF1RA0QD88KD","A1SHLWKA0UH1IS","3R5LWXWHR0UE010DORDQUF3E2FPGXE","","","null","","","","","","","",""
"814.2000000476837","","image-keyboard-response","185","221406","0.0-114.0","3SKEMFQBZ4RV96TIXCRF1RA0QD88KD","A1SHLWKA0UH1IS","3R5LWXWHR0UE010DORDQUF3E2FPGXE","","img/set1/S2.jpg","68","2","structured_incentive","68","true","structured_incentive,structured_normal,random","1,2,2,3","",""
"null","","html-keyboard-response","186","221761","0.0-115.0","3SKEMFQBZ4RV96TIXCRF1RA0QD88KD","A1SHLWKA0UH1IS","3R5LWXWHR0UE010DORDQUF3E2FPGXE","","<img src=""img/set1/S2.jpg"" width=""540"" height = ""360"" style=""border:16px solid orange"">","null","","","","","","","",""
"null","","html-keyboard-response","187","221763","0.0-116.0","3SKEMFQBZ4RV96TIXCRF1RA0QD88KD","A1SHLWKA0UH1IS","3R5LWXWHR0UE010DORDQUF3E2FPGXE","","","null","","","","","","","",""
"638.3999998569489","","image-keyboard-response","188","222402","0.0-117.0","3SKEMFQBZ4RV96TIXCRF1RA0QD88KD","A1SHLWKA0UH1IS","3R5LWXWHR0UE010DORDQUF3E2FPGXE","","img/set1/S1.jpg","83","1","structured_incentive","83","true","structured_incentive,structured_normal,random","1,2,2,3","",""
"null","","html-keyboard-response","189","222757","0.0-118.0","3SKEMFQBZ4RV96TIXCRF1RA0QD88KD","A1SHLWKA0UH1IS","3R5LWXWHR0UE010DORDQUF3E2FPGXE","","<img src=""img/set1/S1.jpg"" width=""540"" height = ""360"" style=""border:16px solid orange"">","null","","","","","","","",""
"null","","html-keyboard-response","190","222758","0.0-119.0","3SKEMFQBZ4RV96TIXCRF1RA0QD88KD","A1SHLWKA0UH1IS","3R5LWXWHR0UE010DORDQUF3E2FPGXE","","","null","","","","","","","",""
"725.9000000953674","","image-keyboard-response","191","223485","0.0-120.0","3SKEMFQBZ4RV96TIXCRF1RA0QD88KD","A1SHLWKA0UH1IS","3R5LWXWHR0UE010DORDQUF3E2FPGXE","","img/set1/S3.jpg","72","3","structured_incentive","72","true","structured_incentive,structured_normal,random","1,2,2,3","",""
"null","","html-keyboard-response","192","223840","0.0-121.0","3SKEMFQBZ4RV96TIXCRF1RA0QD88KD","A1SHLWKA0UH1IS","3R5LWXWHR0UE010DORDQUF3E2FPGXE","","<img src=""img/set1/S3.jpg"" width=""540"" height = ""360"" style=""border:16px solid Violet"">","null","","","","","","","",""
"null","","html-keyboard-response","193","223842","0.0-122.0","3SKEMFQBZ4RV96TIXCRF1RA0QD88KD","A1SHLWKA0UH1IS","3R5LWXWHR0UE010DORDQUF3E2FPGXE","","","null","","","","","","","",""
"840.7999999523163","","image-keyboard-response","194","224683","0.0-123.0","3SKEMFQBZ4RV96TIXCRF1RA0QD88KD","A1SHLWKA0UH1IS","3R5LWXWHR0UE010DORDQUF3E2FPGXE","","img/set1/S4.jpg","74","4","structured_incentive","74","true","structured_incentive,structured_normal,random","1,2,2,3","",""
"null","","html-keyboard-response","195","225038","0.0-124.0","3SKEMFQBZ4RV96TIXCRF1RA0QD88KD","A1SHLWKA0UH1IS","3R5LWXWHR0UE010DORDQUF3E2FPGXE","","<img src=""img/set1/S4.jpg"" width=""540"" height = ""360"" style=""border:16px solid orange"">","null","","","","","","","",""
"null","","html-keyboard-response","196","225040","0.0-125.0","3SKEMFQBZ4RV96TIXCRF1RA0QD88KD","A1SHLWKA0UH1IS","3R5LWXWHR0UE010DORDQUF3E2FPGXE","","","null","","","","","","","",""
"686.7000000476837","","image-keyboard-response","197","225727","0.0-126.0","3SKEMFQBZ4RV96TIXCRF1RA0QD88KD","A1SHLWKA0UH1IS","3R5LWXWHR0UE010DORDQUF3E2FPGXE","","img/set1/S3.jpg","72","3","structured_incentive","72","true","structured_incentive,structured_normal,random","1,2,2,3","",""
"null","","html-keyboard-response","198","226082","0.0-127.0","3SKEMFQBZ4RV96TIXCRF1RA0QD88KD","A1SHLWKA0UH1IS","3R5LWXWHR0UE010DORDQUF3E2FPGXE","","<img src=""img/set1/S3.jpg"" width=""540"" height = ""360"" style=""border:16px solid Violet"">","null","","","","","","","",""
"null","","html-keyboard-response","199","226083","0.0-128.0","3SKEMFQBZ4RV96TIXCRF1RA0QD88KD","A1SHLWKA0UH1IS","3R5LWXWHR0UE010DORDQUF3E2FPGXE","","","null","","","","","","","",""
"463.09999990463257","","image-keyboard-response","200","226547","0.0-129.0","3SKEMFQBZ4RV96TIXCRF1RA0QD88KD","A1SHLWKA0UH1IS","3R5LWXWHR0UE010DORDQUF3E2FPGXE","","img/set1/S3.jpg","72","3","structured_incentive","72","true","structured_incentive,structured_normal,random","1,2,2,3","",""
"null","","html-keyboard-response","201","226901","0.0-130.0","3SKEMFQBZ4RV96TIXCRF1RA0QD88KD","A1SHLWKA0UH1IS","3R5LWXWHR0UE010DORDQUF3E2FPGXE","","<img src=""img/set1/S3.jpg"" width=""540"" height = ""360"" style=""border:16px solid Violet"">","null","","","","","","","",""
"null","","html-keyboard-response","202","226903","0.0-131.0","3SKEMFQBZ4RV96TIXCRF1RA0QD88KD","A1SHLWKA0UH1IS","3R5LWXWHR0UE010DORDQUF3E2FPGXE","","","null","","","","","","","",""
"515.7000000476837","","image-keyboard-response","203","227419","0.0-132.0","3SKEMFQBZ4RV96TIXCRF1RA0QD88KD","A1SHLWKA0UH1IS","3R5LWXWHR0UE010DORDQUF3E2FPGXE","","img/set1/S3.jpg","72","3","structured_incentive","72","true","structured_incentive,structured_normal,random","1,2,2,3","",""
"null","","html-keyboard-response","204","227773","0.0-133.0","3SKEMFQBZ4RV96TIXCRF1RA0QD88KD","A1SHLWKA0UH1IS","3R5LWXWHR0UE010DORDQUF3E2FPGXE","","<img src=""img/set1/S3.jpg"" width=""540"" height = ""360"" style=""border:16px solid Violet"">","null","","","","","","","",""
"null","","html-keyboard-response","205","227774","0.0-134.0","3SKEMFQBZ4RV96TIXCRF1RA0QD88KD","A1SHLWKA0UH1IS","3R5LWXWHR0UE010DORDQUF3E2FPGXE","","","null","","","","","","","",""
"604.7000000476837","","image-keyboard-response","206","228380","0.0-135.0","3SKEMFQBZ4RV96TIXCRF1RA0QD88KD","A1SHLWKA0UH1IS","3R5LWXWHR0UE010DORDQUF3E2FPGXE","","img/set1/S4.jpg","74","4","structured_incentive","74","true","structured_incentive,structured_normal,random","1,2,2,3","",""
"null","","html-keyboard-response","207","228734","0.0-136.0","3SKEMFQBZ4RV96TIXCRF1RA0QD88KD","A1SHLWKA0UH1IS","3R5LWXWHR0UE010DORDQUF3E2FPGXE","","<img src=""img/set1/S4.jpg"" width=""540"" height = ""360"" style=""border:16px solid orange"">","null","","","","","","","",""
"null","","html-keyboard-response","208","228736","0.0-137.0","3SKEMFQBZ4RV96TIXCRF1RA0QD88KD","A1SHLWKA0UH1IS","3R5LWXWHR0UE010DORDQUF3E2FPGXE","","","null","","","","","","","",""
"767.1000001430511","","image-keyboard-response","209","229503","0.0-138.0","3SKEMFQBZ4RV96TIXCRF1RA0QD88KD","A1SHLWKA0UH1IS","3R5LWXWHR0UE010DORDQUF3E2FPGXE","","img/set1/S1.jpg","83","1","structured_incentive","83","true","structured_incentive,structured_normal,random","1,2,2,3","",""
"null","","html-keyboard-response","210","229858","0.0-139.0","3SKEMFQBZ4RV96TIXCRF1RA0QD88KD","A1SHLWKA0UH1IS","3R5LWXWHR0UE010DORDQUF3E2FPGXE","","<img src=""img/set1/S1.jpg"" width=""540"" height = ""360"" style=""border:16px solid orange"">","null","","","","","","","",""
"null","","html-keyboard-response","211","229860","0.0-140.0","3SKEMFQBZ4RV96TIXCRF1RA0QD88KD","A1SHLWKA0UH1IS","3R5LWXWHR0UE010DORDQUF3E2FPGXE","","","null","","","","","","","",""
"641","","image-keyboard-response","212","230501","0.0-141.0","3SKEMFQBZ4RV96TIXCRF1RA0QD88KD","A1SHLWKA0UH1IS","3R5LWXWHR0UE010DORDQUF3E2FPGXE","","img/set1/S2.jpg","68","2","structured_incentive","68","true","structured_incentive,structured_normal,random","1,2,2,3","",""
"null","","html-keyboard-response","213","230855","0.0-142.0","3SKEMFQBZ4RV96TIXCRF1RA0QD88KD","A1SHLWKA0UH1IS","3R5LWXWHR0UE010DORDQUF3E2FPGXE","","<img src=""img/set1/S2.jpg"" width=""540"" height = ""360"" style=""border:16px solid orange"">","null","","","","","","","",""
"null","","html-keyboard-response","214","230857","0.0-143.0","3SKEMFQBZ4RV96TIXCRF1RA0QD88KD","A1SHLWKA0UH1IS","3R5LWXWHR0UE010DORDQUF3E2FPGXE","","","null","","","","","","","",""
"696.2000000476837","","image-keyboard-response","215","231554","0.0-144.0","3SKEMFQBZ4RV96TIXCRF1RA0QD88KD","A1SHLWKA0UH1IS","3R5LWXWHR0UE010DORDQUF3E2FPGXE","","img/set1/S4.jpg","74","4","structured_incentive","74","true","structured_incentive,structured_normal,random","1,2,2,3","",""
"null","","html-keyboard-response","216","231906","0.0-145.0","3SKEMFQBZ4RV96TIXCRF1RA0QD88KD","A1SHLWKA0UH1IS","3R5LWXWHR0UE010DORDQUF3E2FPGXE","","<img src=""img/set1/S4.jpg"" width=""540"" height = ""360"" style=""border:16px solid orange"">","null","","","","","","","",""
"null","","html-keyboard-response","217","231907","0.0-146.0","3SKEMFQBZ4RV96TIXCRF1RA0QD88KD","A1SHLWKA0UH1IS","3R5LWXWHR0UE010DORDQUF3E2FPGXE","","","null","","","","","","","",""
"730.2999999523163","","image-keyboard-response","218","232638","0.0-147.0","3SKEMFQBZ4RV96TIXCRF1RA0QD88KD","A1SHLWKA0UH1IS","3R5LWXWHR0UE010DORDQUF3E2FPGXE","","img/set1/S3.jpg","72","3","structured_incentive","72","true","structured_incentive,structured_normal,random","1,2,2,3","",""
"null","","html-keyboard-response","219","232994","0.0-148.0","3SKEMFQBZ4RV96TIXCRF1RA0QD88KD","A1SHLWKA0UH1IS","3R5LWXWHR0UE010DORDQUF3E2FPGXE","","<img src=""img/set1/S3.jpg"" width=""540"" height = ""360"" style=""border:16px solid Violet"">","null","","","","","","","",""
"null","","html-keyboard-response","220","232996","0.0-149.0","3SKEMFQBZ4RV96TIXCRF1RA0QD88KD","A1SHLWKA0UH1IS","3R5LWXWHR0UE010DORDQUF3E2FPGXE","","","null","","","","","","","",""
"562.5999999046326","","image-keyboard-response","221","233559","0.0-150.0","3SKEMFQBZ4RV96TIXCRF1RA0QD88KD","A1SHLWKA0UH1IS","3R5LWXWHR0UE010DORDQUF3E2FPGXE","","img/set1/S4.jpg","74","4","structured_incentive","74","true","structured_incentive,structured_normal,random","1,2,2,3","",""
"null","","html-keyboard-response","222","233912","0.0-151.0","3SKEMFQBZ4RV96TIXCRF1RA0QD88KD","A1SHLWKA0UH1IS","3R5LWXWHR0UE010DORDQUF3E2FPGXE","","<img src=""img/set1/S4.jpg"" width=""540"" height = ""360"" style=""border:16px solid orange"">","null","","","","","","","",""
"null","","html-keyboard-response","223","233914","0.0-152.0","3SKEMFQBZ4RV96TIXCRF1RA0QD88KD","A1SHLWKA0UH1IS","3R5LWXWHR0UE010DORDQUF3E2FPGXE","","","null","","","","","","","",""
"920.5","","image-keyboard-response","224","234835","0.0-153.0","3SKEMFQBZ4RV96TIXCRF1RA0QD88KD","A1SHLWKA0UH1IS","3R5LWXWHR0UE010DORDQUF3E2FPGXE","","img/set1/S2.jpg","83","2","structured_incentive","68","false","structured_incentive,structured_normal,random","1,2,2,3","",""
"null","","html-keyboard-response","225","235190","0.0-154.0","3SKEMFQBZ4RV96TIXCRF1RA0QD88KD","A1SHLWKA0UH1IS","3R5LWXWHR0UE010DORDQUF3E2FPGXE","","<img src=""img/set1/S2.jpg"" width=""540"" height = ""360"">","null","","","","","","","",""
"null","","html-keyboard-response","226","235191","0.0-155.0","3SKEMFQBZ4RV96TIXCRF1RA0QD88KD","A1SHLWKA0UH1IS","3R5LWXWHR0UE010DORDQUF3E2FPGXE","","","null","","","","","","","",""
"77.70000004768372","","image-keyboard-response","227","235270","0.0-156.0","3SKEMFQBZ4RV96TIXCRF1RA0QD88KD","A1SHLWKA0UH1IS","3R5LWXWHR0UE010DORDQUF3E2FPGXE","","img/set1/S4.jpg","68","4","structured_incentive","74","false","structured_incentive,structured_normal,random","1,2,2,3","",""
"null","","html-keyboard-response","228","235626","0.0-157.0","3SKEMFQBZ4RV96TIXCRF1RA0QD88KD","A1SHLWKA0UH1IS","3R5LWXWHR0UE010DORDQUF3E2FPGXE","","<img src=""img/set1/S4.jpg"" width=""540"" height = ""360"">","null","","","","","","","",""
"null","","html-keyboard-response","229","235628","0.0-158.0","3SKEMFQBZ4RV96TIXCRF1RA0QD88KD","A1SHLWKA0UH1IS","3R5LWXWHR0UE010DORDQUF3E2FPGXE","","","null","","","","","","","",""
"1007.1000001430511","","image-keyboard-response","230","236635","0.0-159.0","3SKEMFQBZ4RV96TIXCRF1RA0QD88KD","A1SHLWKA0UH1IS","3R5LWXWHR0UE010DORDQUF3E2FPGXE","","img/set1/S3.jpg","72","3","structured_incentive","72","true","structured_incentive,structured_normal,random","1,2,2,3","",""
"null","","html-keyboard-response","231","236990","0.0-160.0","3SKEMFQBZ4RV96TIXCRF1RA0QD88KD","A1SHLWKA0UH1IS","3R5LWXWHR0UE010DORDQUF3E2FPGXE","","<img src=""img/set1/S3.jpg"" width=""540"" height = ""360"" style=""border:16px solid Violet"">","null","","","","","","","",""
"null","","html-keyboard-response","232","236992","0.0-161.0","3SKEMFQBZ4RV96TIXCRF1RA0QD88KD","A1SHLWKA0UH1IS","3R5LWXWHR0UE010DORDQUF3E2FPGXE","","","null","","","","","","","",""
"448.10000014305115","","image-keyboard-response","233","237440","0.0-162.0","3SKEMFQBZ4RV96TIXCRF1RA0QD88KD","A1SHLWKA0UH1IS","3R5LWXWHR0UE010DORDQUF3E2FPGXE","","img/set1/S3.jpg","72","3","structured_incentive","72","true","structured_incentive,structured_normal,random","1,2,2,3","",""
"null","","html-keyboard-response","234","237796","0.0-163.0","3SKEMFQBZ4RV96TIXCRF1RA0QD88KD","A1SHLWKA0UH1IS","3R5LWXWHR0UE010DORDQUF3E2FPGXE","","<img src=""img/set1/S3.jpg"" width=""540"" height = ""360"" style=""border:16px solid Violet"">","null","","","","","","","",""
"null","","html-keyboard-response","235","237798","0.0-164.0","3SKEMFQBZ4RV96TIXCRF1RA0QD88KD","A1SHLWKA0UH1IS","3R5LWXWHR0UE010DORDQUF3E2FPGXE","","","null","","","","","","","",""
"819.7000000476837","","image-keyboard-response","236","238618","0.0-165.0","3SKEMFQBZ4RV96TIXCRF1RA0QD88KD","A1SHLWKA0UH1IS","3R5LWXWHR0UE010DORDQUF3E2FPGXE","","img/set1/S1.jpg","83","1","structured_incentive","83","true","structured_incentive,structured_normal,random","1,2,2,3","",""
"null","","html-keyboard-response","237","238971","0.0-166.0","3SKEMFQBZ4RV96TIXCRF1RA0QD88KD","A1SHLWKA0UH1IS","3R5LWXWHR0UE010DORDQUF3E2FPGXE","","<img src=""img/set1/S1.jpg"" width=""540"" height = ""360"" style=""border:16px solid orange"">","null","","","","","","","",""
"null","","html-keyboard-response","238","238972","0.0-167.0","3SKEMFQBZ4RV96TIXCRF1RA0QD88KD","A1SHLWKA0UH1IS","3R5LWXWHR0UE010DORDQUF3E2FPGXE","","","null","","","","","","","",""
"689.8999998569489","","image-keyboard-response","239","239663","0.0-168.0","3SKEMFQBZ4RV96TIXCRF1RA0QD88KD","A1SHLWKA0UH1IS","3R5LWXWHR0UE010DORDQUF3E2FPGXE","","img/set1/S2.jpg","68","2","structured_incentive","68","true","structured_incentive,structured_normal,random","1,2,2,3","",""
"null","","html-keyboard-response","240","240015","0.0-169.0","3SKEMFQBZ4RV96TIXCRF1RA0QD88KD","A1SHLWKA0UH1IS","3R5LWXWHR0UE010DORDQUF3E2FPGXE","","<img src=""img/set1/S2.jpg"" width=""540"" height = ""360"" style=""border:16px solid orange"">","null","","","","","","","",""
"null","","html-keyboard-response","241","240016","0.0-170.0","3SKEMFQBZ4RV96TIXCRF1RA0QD88KD","A1SHLWKA0UH1IS","3R5LWXWHR0UE010DORDQUF3E2FPGXE","","","null","","","","","","","",""
"603.1000001430511","","image-keyboard-response","242","240620","0.0-171.0","3SKEMFQBZ4RV96TIXCRF1RA0QD88KD","A1SHLWKA0UH1IS","3R5LWXWHR0UE010DORDQUF3E2FPGXE","","img/set1/S1.jpg","83","1","structured_incentive","83","true","structured_incentive,structured_normal,random","1,2,2,3","",""
"null","","html-keyboard-response","243","240975","0.0-172.0","3SKEMFQBZ4RV96TIXCRF1RA0QD88KD","A1SHLWKA0UH1IS","3R5LWXWHR0UE010DORDQUF3E2FPGXE","","<img src=""img/set1/S1.jpg"" width=""540"" height = ""360"" style=""border:16px solid orange"">","null","","","","","","","",""
"null","","html-keyboard-response","244","240976","0.0-173.0","3SKEMFQBZ4RV96TIXCRF1RA0QD88KD","A1SHLWKA0UH1IS","3R5LWXWHR0UE010DORDQUF3E2FPGXE","","","null","","","","","","","",""
"664.7999999523163","","image-keyboard-response","245","241642","0.0-174.0","3SKEMFQBZ4RV96TIXCRF1RA0QD88KD","A1SHLWKA0UH1IS","3R5LWXWHR0UE010DORDQUF3E2FPGXE","","img/set1/S3.jpg","72","3","structured_incentive","72","true","structured_incentive,structured_normal,random","1,2,2,3","",""
"null","","html-keyboard-response","246","241994","0.0-175.0","3SKEMFQBZ4RV96TIXCRF1RA0QD88KD","A1SHLWKA0UH1IS","3R5LWXWHR0UE010DORDQUF3E2FPGXE","","<img src=""img/set1/S3.jpg"" width=""540"" height = ""360"" style=""border:16px solid Violet"">","null","","","","","","","",""
"null","","html-keyboard-response","247","241996","0.0-176.0","3SKEMFQBZ4RV96TIXCRF1RA0QD88KD","A1SHLWKA0UH1IS","3R5LWXWHR0UE010DORDQUF3E2FPGXE","","","null","","","","","","","",""
"787.5","","image-keyboard-response","248","242784","0.0-177.0","3SKEMFQBZ4RV96TIXCRF1RA0QD88KD","A1SHLWKA0UH1IS","3R5LWXWHR0UE010DORDQUF3E2FPGXE","","img/set1/S4.jpg","74","4","structured_incentive","74","true","structured_incentive,structured_normal,random","1,2,2,3","",""
"null","","html-keyboard-response","249","243135","0.0-178.0","3SKEMFQBZ4RV96TIXCRF1RA0QD88KD","A1SHLWKA0UH1IS","3R5LWXWHR0UE010DORDQUF3E2FPGXE","","<img src=""img/set1/S4.jpg"" width=""540"" height = ""360"" style=""border:16px solid orange"">","null","","","","","","","",""
"null","","html-keyboard-response","250","243137","0.0-179.0","3SKEMFQBZ4RV96TIXCRF1RA0QD88KD","A1SHLWKA0UH1IS","3R5LWXWHR0UE010DORDQUF3E2FPGXE","","","null","","","","","","","",""
"767","","image-keyboard-response","251","243904","0.0-180.0","3SKEMFQBZ4RV96TIXCRF1RA0QD88KD","A1SHLWKA0UH1IS","3R5LWXWHR0UE010DORDQUF3E2FPGXE","","img/set1/S1.jpg","83","1","structured_incentive","83","true","structured_incentive,structured_normal,random","1,2,2,3","",""
"null","","html-keyboard-response","252","244259","0.0-181.0","3SKEMFQBZ4RV96TIXCRF1RA0QD88KD","A1SHLWKA0UH1IS","3R5LWXWHR0UE010DORDQUF3E2FPGXE","","<img src=""img/set1/S1.jpg"" width=""540"" height = ""360"" style=""border:16px solid orange"">","null","","","","","","","",""
"null","","html-keyboard-response","253","244260","0.0-182.0","3SKEMFQBZ4RV96TIXCRF1RA0QD88KD","A1SHLWKA0UH1IS","3R5LWXWHR0UE010DORDQUF3E2FPGXE","","","null","","","","","","","",""
"518.7000000476837","","image-keyboard-response","254","244780","0.0-183.0","3SKEMFQBZ4RV96TIXCRF1RA0QD88KD","A1SHLWKA0UH1IS","3R5LWXWHR0UE010DORDQUF3E2FPGXE","","img/set1/S2.jpg","68","2","structured_incentive","68","true","structured_incentive,structured_normal,random","1,2,2,3","",""
"null","","html-keyboard-response","255","245134","0.0-184.0","3SKEMFQBZ4RV96TIXCRF1RA0QD88KD","A1SHLWKA0UH1IS","3R5LWXWHR0UE010DORDQUF3E2FPGXE","","<img src=""img/set1/S2.jpg"" width=""540"" height = ""360"" style=""border:16px solid orange"">","null","","","","","","","",""
"null","","html-keyboard-response","256","245136","0.0-185.0","3SKEMFQBZ4RV96TIXCRF1RA0QD88KD","A1SHLWKA0UH1IS","3R5LWXWHR0UE010DORDQUF3E2FPGXE","","","null","","","","","","","",""
"578.7999999523163","","image-keyboard-response","257","245715","0.0-186.0","3SKEMFQBZ4RV96TIXCRF1RA0QD88KD","A1SHLWKA0UH1IS","3R5LWXWHR0UE010DORDQUF3E2FPGXE","","img/set1/S4.jpg","74","4","structured_incentive","74","true","structured_incentive,structured_normal,random","1,2,2,3","",""
"null","","html-keyboard-response","258","246068","0.0-187.0","3SKEMFQBZ4RV96TIXCRF1RA0QD88KD","A1SHLWKA0UH1IS","3R5LWXWHR0UE010DORDQUF3E2FPGXE","","<img src=""img/set1/S4.jpg"" width=""540"" height = ""360"" style=""border:16px solid orange"">","null","","","","","","","",""
"null","","html-keyboard-response","259","246070","0.0-188.0","3SKEMFQBZ4RV96TIXCRF1RA0QD88KD","A1SHLWKA0UH1IS","3R5LWXWHR0UE010DORDQUF3E2FPGXE","","","null","","","","","","","",""
"658.4000000953674","","image-keyboard-response","260","246729","0.0-189.0","3SKEMFQBZ4RV96TIXCRF1RA0QD88KD","A1SHLWKA0UH1IS","3R5LWXWHR0UE010DORDQUF3E2FPGXE","","img/set1/S1.jpg","83","1","structured_incentive","83","true","structured_incentive,structured_normal,random","1,2,2,3","",""
"null","","html-keyboard-response","261","247084","0.0-190.0","3SKEMFQBZ4RV96TIXCRF1RA0QD88KD","A1SHLWKA0UH1IS","3R5LWXWHR0UE010DORDQUF3E2FPGXE","","<img src=""img/set1/S1.jpg"" width=""540"" height = ""360"" style=""border:16px solid orange"">","null","","","","","","","",""
"null","","html-keyboard-response","262","247086","0.0-191.0","3SKEMFQBZ4RV96TIXCRF1RA0QD88KD","A1SHLWKA0UH1IS","3R5LWXWHR0UE010DORDQUF3E2FPGXE","","","null","","","","","","","",""
"496.90000009536743","","image-keyboard-response","263","247584","0.0-192.0","3SKEMFQBZ4RV96TIXCRF1RA0QD88KD","A1SHLWKA0UH1IS","3R5LWXWHR0UE010DORDQUF3E2FPGXE","","img/set1/S2.jpg","68","2","structured_incentive","68","true","structured_incentive,structured_normal,random","1,2,2,3","",""
"null","","html-keyboard-response","264","247938","0.0-193.0","3SKEMFQBZ4RV96TIXCRF1RA0QD88KD","A1SHLWKA0UH1IS","3R5LWXWHR0UE010DORDQUF3E2FPGXE","","<img src=""img/set1/S2.jpg"" width=""540"" height = ""360"" style=""border:16px solid orange"">","null","","","","","","","",""
"null","","html-keyboard-response","265","247940","0.0-194.0","3SKEMFQBZ4RV96TIXCRF1RA0QD88KD","A1SHLWKA0UH1IS","3R5LWXWHR0UE010DORDQUF3E2FPGXE","","","null","","","","","","","",""
"674.5","","image-keyboard-response","266","248615","0.0-195.0","3SKEMFQBZ4RV96TIXCRF1RA0QD88KD","A1SHLWKA0UH1IS","3R5LWXWHR0UE010DORDQUF3E2FPGXE","","img/set1/S1.jpg","83","1","structured_incentive","83","true","structured_incentive,structured_normal,random","1,2,2,3","",""
"null","","html-keyboard-response","267","248970","0.0-196.0","3SKEMFQBZ4RV96TIXCRF1RA0QD88KD","A1SHLWKA0UH1IS","3R5LWXWHR0UE010DORDQUF3E2FPGXE","","<img src=""img/set1/S1.jpg"" width=""540"" height = ""360"" style=""border:16px solid orange"">","null","","","","","","","",""
"null","","html-keyboard-response","268","248972","0.0-197.0","3SKEMFQBZ4RV96TIXCRF1RA0QD88KD","A1SHLWKA0UH1IS","3R5LWXWHR0UE010DORDQUF3E2FPGXE","","","null","","","","","","","",""
"758.7000000476837","","image-keyboard-response","269","249731","0.0-198.0","3SKEMFQBZ4RV96TIXCRF1RA0QD88KD","A1SHLWKA0UH1IS","3R5LWXWHR0UE010DORDQUF3E2FPGXE","","img/set1/S2.jpg","68","2","structured_incentive","68","true","structured_incentive,structured_normal,random","1,2,2,3","",""
"null","","html-keyboard-response","270","250086","0.0-199.0","3SKEMFQBZ4RV96TIXCRF1RA0QD88KD","A1SHLWKA0UH1IS","3R5LWXWHR0UE010DORDQUF3E2FPGXE","","<img src=""img/set1/S2.jpg"" width=""540"" height = ""360"" style=""border:16px solid orange"">","null","","","","","","","",""
"null","","html-keyboard-response","271","250088","0.0-200.0","3SKEMFQBZ4RV96TIXCRF1RA0QD88KD","A1SHLWKA0UH1IS","3R5LWXWHR0UE010DORDQUF3E2FPGXE","","","null","","","","","","","",""
"866.8999998569489","","image-keyboard-response","272","250955","0.0-201.0","3SKEMFQBZ4RV96TIXCRF1RA0QD88KD","A1SHLWKA0UH1IS","3R5LWXWHR0UE010DORDQUF3E2FPGXE","","img/set1/S1.jpg","83","1","structured_incentive","83","true","structured_incentive,structured_normal,random","1,2,2,3","",""
"null","","html-keyboard-response","273","251310","0.0-202.0","3SKEMFQBZ4RV96TIXCRF1RA0QD88KD","A1SHLWKA0UH1IS","3R5LWXWHR0UE010DORDQUF3E2FPGXE","","<img src=""img/set1/S1.jpg"" width=""540"" height = ""360"" style=""border:16px solid orange"">","null","","","","","","","",""
"null","","html-keyboard-response","274","251312","0.0-203.0","3SKEMFQBZ4RV96TIXCRF1RA0QD88KD","A1SHLWKA0UH1IS","3R5LWXWHR0UE010DORDQUF3E2FPGXE","","","null","","","","","","","",""
"684.0999999046326","","image-keyboard-response","275","251997","0.0-204.0","3SKEMFQBZ4RV96TIXCRF1RA0QD88KD","A1SHLWKA0UH1IS","3R5LWXWHR0UE010DORDQUF3E2FPGXE","","img/set1/S2.jpg","68","2","structured_incentive","68","true","structured_incentive,structured_normal,random","1,2,2,3","",""
"null","","html-keyboard-response","276","252350","0.0-205.0","3SKEMFQBZ4RV96TIXCRF1RA0QD88KD","A1SHLWKA0UH1IS","3R5LWXWHR0UE010DORDQUF3E2FPGXE","","<img src=""img/set1/S2.jpg"" width=""540"" height = ""360"" style=""border:16px solid orange"">","null","","","","","","","",""
"null","","html-keyboard-response","277","252352","0.0-206.0","3SKEMFQBZ4RV96TIXCRF1RA0QD88KD","A1SHLWKA0UH1IS","3R5LWXWHR0UE010DORDQUF3E2FPGXE","","","null","","","","","","","",""
"579.2999999523163","","image-keyboard-response","278","252932","0.0-207.0","3SKEMFQBZ4RV96TIXCRF1RA0QD88KD","A1SHLWKA0UH1IS","3R5LWXWHR0UE010DORDQUF3E2FPGXE","","img/set1/S3.jpg","72","3","structured_incentive","72","true","structured_incentive,structured_normal,random","1,2,2,3","",""
"null","","html-keyboard-response","279","253287","0.0-208.0","3SKEMFQBZ4RV96TIXCRF1RA0QD88KD","A1SHLWKA0UH1IS","3R5LWXWHR0UE010DORDQUF3E2FPGXE","","<img src=""img/set1/S3.jpg"" width=""540"" height = ""360"" style=""border:16px solid Violet"">","null","","","","","","","",""
"null","","html-keyboard-response","280","253288","0.0-209.0","3SKEMFQBZ4RV96TIXCRF1RA0QD88KD","A1SHLWKA0UH1IS","3R5LWXWHR0UE010DORDQUF3E2FPGXE","","","null","","","","","","","",""
"574.6000001430511","","image-keyboard-response","281","253864","0.0-210.0","3SKEMFQBZ4RV96TIXCRF1RA0QD88KD","A1SHLWKA0UH1IS","3R5LWXWHR0UE010DORDQUF3E2FPGXE","","img/set1/S4.jpg","74","4","structured_incentive","74","true","structured_incentive,structured_normal,random","1,2,2,3","",""
"null","","html-keyboard-response","282","254220","0.0-211.0","3SKEMFQBZ4RV96TIXCRF1RA0QD88KD","A1SHLWKA0UH1IS","3R5LWXWHR0UE010DORDQUF3E2FPGXE","","<img src=""img/set1/S4.jpg"" width=""540"" height = ""360"" style=""border:16px solid orange"">","null","","","","","","","",""
"null","","html-keyboard-response","283","254221","0.0-212.0","3SKEMFQBZ4RV96TIXCRF1RA0QD88KD","A1SHLWKA0UH1IS","3R5LWXWHR0UE010DORDQUF3E2FPGXE","","","null","","","","","","","",""
"400.5","","image-keyboard-response","284","254622","0.0-213.0","3SKEMFQBZ4RV96TIXCRF1RA0QD88KD","A1SHLWKA0UH1IS","3R5LWXWHR0UE010DORDQUF3E2FPGXE","","img/set1/S4.jpg","74","4","structured_incentive","74","true","structured_incentive,structured_normal,random","1,2,2,3","",""
"null","","html-keyboard-response","285","254974","0.0-214.0","3SKEMFQBZ4RV96TIXCRF1RA0QD88KD","A1SHLWKA0UH1IS","3R5LWXWHR0UE010DORDQUF3E2FPGXE","","<img src=""img/set1/S4.jpg"" width=""540"" height = ""360"" style=""border:16px solid orange"">","null","","","","","","","",""
"null","","html-keyboard-response","286","254976","0.0-215.0","3SKEMFQBZ4RV96TIXCRF1RA0QD88KD","A1SHLWKA0UH1IS","3R5LWXWHR0UE010DORDQUF3E2FPGXE","","","null","","","","","","","",""
"625.0999999046326","","image-keyboard-response","287","255602","0.0-216.0","3SKEMFQBZ4RV96TIXCRF1RA0QD88KD","A1SHLWKA0UH1IS","3R5LWXWHR0UE010DORDQUF3E2FPGXE","","img/set1/S1.jpg","83","1","structured_incentive","83","true","structured_incentive,structured_normal,random","1,2,2,3","",""
"null","","html-keyboard-response","288","255955","0.0-217.0","3SKEMFQBZ4RV96TIXCRF1RA0QD88KD","A1SHLWKA0UH1IS","3R5LWXWHR0UE010DORDQUF3E2FPGXE","","<img src=""img/set1/S1.jpg"" width=""540"" height = ""360"" style=""border:16px solid orange"">","null","","","","","","","",""
"null","","html-keyboard-response","289","255956","0.0-218.0","3SKEMFQBZ4RV96TIXCRF1RA0QD88KD","A1SHLWKA0UH1IS","3R5LWXWHR0UE010DORDQUF3E2FPGXE","","","null","","","","","","","",""
"869.2000000476837","","image-keyboard-response","290","256826","0.0-219.0","3SKEMFQBZ4RV96TIXCRF1RA0QD88KD","A1SHLWKA0UH1IS","3R5LWXWHR0UE010DORDQUF3E2FPGXE","","img/set1/S3.jpg","72","3","structured_incentive","72","true","structured_incentive,structured_normal,random","1,2,2,3","",""
"null","","html-keyboard-response","291","257179","0.0-220.0","3SKEMFQBZ4RV96TIXCRF1RA0QD88KD","A1SHLWKA0UH1IS","3R5LWXWHR0UE010DORDQUF3E2FPGXE","","<img src=""img/set1/S3.jpg"" width=""540"" height = ""360"" style=""border:16px solid Violet"">","null","","","","","","","",""
"null","","html-keyboard-response","292","257180","0.0-221.0","3SKEMFQBZ4RV96TIXCRF1RA0QD88KD","A1SHLWKA0UH1IS","3R5LWXWHR0UE010DORDQUF3E2FPGXE","","","null","","","","","","","",""
"614.0999999046326","","image-keyboard-response","293","257795","0.0-222.0","3SKEMFQBZ4RV96TIXCRF1RA0QD88KD","A1SHLWKA0UH1IS","3R5LWXWHR0UE010DORDQUF3E2FPGXE","","img/set1/S4.jpg","74","4","structured_incentive","74","true","structured_incentive,structured_normal,random","1,2,2,3","",""
"null","","html-keyboard-response","294","258151","0.0-223.0","3SKEMFQBZ4RV96TIXCRF1RA0QD88KD","A1SHLWKA0UH1IS","3R5LWXWHR0UE010DORDQUF3E2FPGXE","","<img src=""img/set1/S4.jpg"" width=""540"" height = ""360"" style=""border:16px solid orange"">","null","","","","","","","",""
"null","","html-keyboard-response","295","258152","0.0-224.0","3SKEMFQBZ4RV96TIXCRF1RA0QD88KD","A1SHLWKA0UH1IS","3R5LWXWHR0UE010DORDQUF3E2FPGXE","","","null","","","","","","","",""
"482.40000009536743","","image-keyboard-response","296","258635","0.0-225.0","3SKEMFQBZ4RV96TIXCRF1RA0QD88KD","A1SHLWKA0UH1IS","3R5LWXWHR0UE010DORDQUF3E2FPGXE","","img/set1/S4.jpg","74","4","structured_incentive","74","true","structured_incentive,structured_normal,random","1,2,2,3","",""
"null","","html-keyboard-response","297","258991","0.0-226.0","3SKEMFQBZ4RV96TIXCRF1RA0QD88KD","A1SHLWKA0UH1IS","3R5LWXWHR0UE010DORDQUF3E2FPGXE","","<img src=""img/set1/S4.jpg"" width=""540"" height = ""360"" style=""border:16px solid orange"">","null","","","","","","","",""
"null","","html-keyboard-response","298","258992","0.0-227.0","3SKEMFQBZ4RV96TIXCRF1RA0QD88KD","A1SHLWKA0UH1IS","3R5LWXWHR0UE010DORDQUF3E2FPGXE","","","null","","","","","","","",""
"597.4000000953674","","image-keyboard-response","299","259590","0.0-228.0","3SKEMFQBZ4RV96TIXCRF1RA0QD88KD","A1SHLWKA0UH1IS","3R5LWXWHR0UE010DORDQUF3E2FPGXE","","img/set1/S1.jpg","83","1","structured_incentive","83","true","structured_incentive,structured_normal,random","1,2,2,3","",""
"null","","html-keyboard-response","300","259942","0.0-229.0","3SKEMFQBZ4RV96TIXCRF1RA0QD88KD","A1SHLWKA0UH1IS","3R5LWXWHR0UE010DORDQUF3E2FPGXE","","<img src=""img/set1/S1.jpg"" width=""540"" height = ""360"" style=""border:16px solid orange"">","null","","","","","","","",""
"null","","html-keyboard-response","301","259944","0.0-230.0","3SKEMFQBZ4RV96TIXCRF1RA0QD88KD","A1SHLWKA0UH1IS","3R5LWXWHR0UE010DORDQUF3E2FPGXE","","","null","","","","","","","",""
"510","","image-keyboard-response","302","260454","0.0-231.0","3SKEMFQBZ4RV96TIXCRF1RA0QD88KD","A1SHLWKA0UH1IS","3R5LWXWHR0UE010DORDQUF3E2FPGXE","","img/set1/S2.jpg","68","2","structured_incentive","68","true","structured_incentive,structured_normal,random","1,2,2,3","",""
"null","","html-keyboard-response","303","260807","0.0-232.0","3SKEMFQBZ4RV96TIXCRF1RA0QD88KD","A1SHLWKA0UH1IS","3R5LWXWHR0UE010DORDQUF3E2FPGXE","","<img src=""img/set1/S2.jpg"" width=""540"" height = ""360"" style=""border:16px solid orange"">","null","","","","","","","",""
"null","","html-keyboard-response","304","260808","0.0-233.0","3SKEMFQBZ4RV96TIXCRF1RA0QD88KD","A1SHLWKA0UH1IS","3R5LWXWHR0UE010DORDQUF3E2FPGXE","","","null","","","","","","","",""
"462.2000000476837","","image-keyboard-response","305","261271","0.0-234.0","3SKEMFQBZ4RV96TIXCRF1RA0QD88KD","A1SHLWKA0UH1IS","3R5LWXWHR0UE010DORDQUF3E2FPGXE","","img/set1/S2.jpg","68","2","structured_incentive","68","true","structured_incentive,structured_normal,random","1,2,2,3","",""
"null","","html-keyboard-response","306","261627","0.0-235.0","3SKEMFQBZ4RV96TIXCRF1RA0QD88KD","A1SHLWKA0UH1IS","3R5LWXWHR0UE010DORDQUF3E2FPGXE","","<img src=""img/set1/S2.jpg"" width=""540"" height = ""360"" style=""border:16px solid orange"">","null","","","","","","","",""
"null","","html-keyboard-response","307","261629","0.0-236.0","3SKEMFQBZ4RV96TIXCRF1RA0QD88KD","A1SHLWKA0UH1IS","3R5LWXWHR0UE010DORDQUF3E2FPGXE","","","null","","","","","","","",""
"646.3999998569489","","image-keyboard-response","308","262276","0.0-237.0","3SKEMFQBZ4RV96TIXCRF1RA0QD88KD","A1SHLWKA0UH1IS","3R5LWXWHR0UE010DORDQUF3E2FPGXE","","img/set1/S3.jpg","72","3","structured_incentive","72","true","structured_incentive,structured_normal,random","1,2,2,3","",""
"null","","html-keyboard-response","309","262631","0.0-238.0","3SKEMFQBZ4RV96TIXCRF1RA0QD88KD","A1SHLWKA0UH1IS","3R5LWXWHR0UE010DORDQUF3E2FPGXE","","<img src=""img/set1/S3.jpg"" width=""540"" height = ""360"" style=""border:16px solid Violet"">","null","","","","","","","",""
"null","","html-keyboard-response","310","262632","0.0-239.0","3SKEMFQBZ4RV96TIXCRF1RA0QD88KD","A1SHLWKA0UH1IS","3R5LWXWHR0UE010DORDQUF3E2FPGXE","","","null","","","","","","","",""
"600.2999999523163","","image-keyboard-response","311","263233","0.0-240.0","3SKEMFQBZ4RV96TIXCRF1RA0QD88KD","A1SHLWKA0UH1IS","3R5LWXWHR0UE010DORDQUF3E2FPGXE","","img/set1/S4.jpg","74","4","structured_incentive","74","true","structured_incentive,structured_normal,random","1,2,2,3","",""
"null","","html-keyboard-response","312","263588","0.0-241.0","3SKEMFQBZ4RV96TIXCRF1RA0QD88KD","A1SHLWKA0UH1IS","3R5LWXWHR0UE010DORDQUF3E2FPGXE","","<img src=""img/set1/S4.jpg"" width=""540"" height = ""360"" style=""border:16px solid orange"">","null","","","","","","","",""
"null","","html-keyboard-response","313","263590","0.0-242.0","3SKEMFQBZ4RV96TIXCRF1RA0QD88KD","A1SHLWKA0UH1IS","3R5LWXWHR0UE010DORDQUF3E2FPGXE","","","null","","","","","","","",""
"580.9000000953674","","image-keyboard-response","314","264171","0.0-243.0","3SKEMFQBZ4RV96TIXCRF1RA0QD88KD","A1SHLWKA0UH1IS","3R5LWXWHR0UE010DORDQUF3E2FPGXE","","img/set1/S3.jpg","83","3","structured_incentive","72","false","structured_incentive,structured_normal,random","1,2,2,3","",""
"null","","html-keyboard-response","315","264523","0.0-244.0","3SKEMFQBZ4RV96TIXCRF1RA0QD88KD","A1SHLWKA0UH1IS","3R5LWXWHR0UE010DORDQUF3E2FPGXE","","<img src=""img/set1/S3.jpg"" width=""540"" height = ""360"">","null","","","","","","","",""
"null","","html-keyboard-response","316","264525","0.0-245.0","3SKEMFQBZ4RV96TIXCRF1RA0QD88KD","A1SHLWKA0UH1IS","3R5LWXWHR0UE010DORDQUF3E2FPGXE","","","null","","","","","","","",""
"82.09999990463257","","image-keyboard-response","317","264608","0.0-246.0","3SKEMFQBZ4RV96TIXCRF1RA0QD88KD","A1SHLWKA0UH1IS","3R5LWXWHR0UE010DORDQUF3E2FPGXE","","img/set1/S3.jpg","72","3","structured_incentive","72","true","structured_incentive,structured_normal,random","1,2,2,3","",""
"null","","html-keyboard-response","318","264963","0.0-247.0","3SKEMFQBZ4RV96TIXCRF1RA0QD88KD","A1SHLWKA0UH1IS","3R5LWXWHR0UE010DORDQUF3E2FPGXE","","<img src=""img/set1/S3.jpg"" width=""540"" height = ""360"" style=""border:16px solid Violet"">","null","","","","","","","",""
"null","","html-keyboard-response","319","264965","0.0-248.0","3SKEMFQBZ4RV96TIXCRF1RA0QD88KD","A1SHLWKA0UH1IS","3R5LWXWHR0UE010DORDQUF3E2FPGXE","","","null","","","","","","","",""
"865.7000000476837","","image-keyboard-response","320","265831","0.0-249.0","3SKEMFQBZ4RV96TIXCRF1RA0QD88KD","A1SHLWKA0UH1IS","3R5LWXWHR0UE010DORDQUF3E2FPGXE","","img/set1/S4.jpg","74","4","structured_incentive","74","true","structured_incentive,structured_normal,random","1,2,2,3","",""
"null","","html-keyboard-response","321","266183","0.0-250.0","3SKEMFQBZ4RV96TIXCRF1RA0QD88KD","A1SHLWKA0UH1IS","3R5LWXWHR0UE010DORDQUF3E2FPGXE","","<img src=""img/set1/S4.jpg"" width=""540"" height = ""360"" style=""border:16px solid orange"">","null","","","","","","","",""
"null","","html-keyboard-response","322","266185","0.0-251.0","3SKEMFQBZ4RV96TIXCRF1RA0QD88KD","A1SHLWKA0UH1IS","3R5LWXWHR0UE010DORDQUF3E2FPGXE","","","null","","","","","","","",""
"979","","image-keyboard-response","323","267164","0.0-252.0","3SKEMFQBZ4RV96TIXCRF1RA0QD88KD","A1SHLWKA0UH1IS","3R5LWXWHR0UE010DORDQUF3E2FPGXE","","img/set1/S1.jpg","83","1","structured_incentive","83","true","structured_incentive,structured_normal,random","1,2,2,3","",""
"null","","html-keyboard-response","324","267518","0.0-253.0","3SKEMFQBZ4RV96TIXCRF1RA0QD88KD","A1SHLWKA0UH1IS","3R5LWXWHR0UE010DORDQUF3E2FPGXE","","<img src=""img/set1/S1.jpg"" width=""540"" height = ""360"" style=""border:16px solid orange"">","null","","","","","","","",""
"null","","html-keyboard-response","325","267520","0.0-254.0","3SKEMFQBZ4RV96TIXCRF1RA0QD88KD","A1SHLWKA0UH1IS","3R5LWXWHR0UE010DORDQUF3E2FPGXE","","","null","","","","","","","",""
"656.7000000476837","","image-keyboard-response","326","268177","0.0-255.0","3SKEMFQBZ4RV96TIXCRF1RA0QD88KD","A1SHLWKA0UH1IS","3R5LWXWHR0UE010DORDQUF3E2FPGXE","","img/set1/S2.jpg","68","2","structured_incentive","68","true","structured_incentive,structured_normal,random","1,2,2,3","",""
"null","","html-keyboard-response","327","268533","0.0-256.0","3SKEMFQBZ4RV96TIXCRF1RA0QD88KD","A1SHLWKA0UH1IS","3R5LWXWHR0UE010DORDQUF3E2FPGXE","","<img src=""img/set1/S2.jpg"" width=""540"" height = ""360"" style=""border:16px solid orange"">","null","","","","","","","",""
"null","","html-keyboard-response","328","268535","0.0-257.0","3SKEMFQBZ4RV96TIXCRF1RA0QD88KD","A1SHLWKA0UH1IS","3R5LWXWHR0UE010DORDQUF3E2FPGXE","","","null","","","","","","","",""
"588.0999999046326","","image-keyboard-response","329","269124","0.0-258.0","3SKEMFQBZ4RV96TIXCRF1RA0QD88KD","A1SHLWKA0UH1IS","3R5LWXWHR0UE010DORDQUF3E2FPGXE","","img/set1/S3.jpg","72","3","structured_incentive","72","true","structured_incentive,structured_normal,random","1,2,2,3","",""
"null","","html-keyboard-response","330","269475","0.0-259.0","3SKEMFQBZ4RV96TIXCRF1RA0QD88KD","A1SHLWKA0UH1IS","3R5LWXWHR0UE010DORDQUF3E2FPGXE","","<img src=""img/set1/S3.jpg"" width=""540"" height = ""360"" style=""border:16px solid Violet"">","null","","","","","","","",""
"null","","html-keyboard-response","331","269476","0.0-260.0","3SKEMFQBZ4RV96TIXCRF1RA0QD88KD","A1SHLWKA0UH1IS","3R5LWXWHR0UE010DORDQUF3E2FPGXE","","","null","","","","","","","",""
"468.2000000476837","","image-keyboard-response","332","269946","0.0-261.0","3SKEMFQBZ4RV96TIXCRF1RA0QD88KD","A1SHLWKA0UH1IS","3R5LWXWHR0UE010DORDQUF3E2FPGXE","","img/set1/S3.jpg","72","3","structured_incentive","72","true","structured_incentive,structured_normal,random","1,2,2,3","",""
"null","","html-keyboard-response","333","270300","0.0-262.0","3SKEMFQBZ4RV96TIXCRF1RA0QD88KD","A1SHLWKA0UH1IS","3R5LWXWHR0UE010DORDQUF3E2FPGXE","","<img src=""img/set1/S3.jpg"" width=""540"" height = ""360"" style=""border:16px solid Violet"">","null","","","","","","","",""
"null","","html-keyboard-response","334","270302","0.0-263.0","3SKEMFQBZ4RV96TIXCRF1RA0QD88KD","A1SHLWKA0UH1IS","3R5LWXWHR0UE010DORDQUF3E2FPGXE","","","null","","","","","","","",""
"783.1000001430511","","image-keyboard-response","335","271086","0.0-264.0","3SKEMFQBZ4RV96TIXCRF1RA0QD88KD","A1SHLWKA0UH1IS","3R5LWXWHR0UE010DORDQUF3E2FPGXE","","img/set1/S1.jpg","83","1","structured_incentive","83","true","structured_incentive,structured_normal,random","1,2,2,3","",""
"null","","html-keyboard-response","336","271441","0.0-265.0","3SKEMFQBZ4RV96TIXCRF1RA0QD88KD","A1SHLWKA0UH1IS","3R5LWXWHR0UE010DORDQUF3E2FPGXE","","<img src=""img/set1/S1.jpg"" width=""540"" height = ""360"" style=""border:16px solid orange"">","null","","","","","","","",""
"null","","html-keyboard-response","337","271443","0.0-266.0","3SKEMFQBZ4RV96TIXCRF1RA0QD88KD","A1SHLWKA0UH1IS","3R5LWXWHR0UE010DORDQUF3E2FPGXE","","","null","","","","","","","",""
"662.7999999523163","","image-keyboard-response","338","272107","0.0-267.0","3SKEMFQBZ4RV96TIXCRF1RA0QD88KD","A1SHLWKA0UH1IS","3R5LWXWHR0UE010DORDQUF3E2FPGXE","","img/set1/S2.jpg","68","2","structured_incentive","68","true","structured_incentive,structured_normal,random","1,2,2,3","",""
"null","","html-keyboard-response","339","272463","0.0-268.0","3SKEMFQBZ4RV96TIXCRF1RA0QD88KD","A1SHLWKA0UH1IS","3R5LWXWHR0UE010DORDQUF3E2FPGXE","","<img src=""img/set1/S2.jpg"" width=""540"" height = ""360"" style=""border:16px solid orange"">","null","","","","","","","",""
"null","","html-keyboard-response","340","272464","0.0-269.0","3SKEMFQBZ4RV96TIXCRF1RA0QD88KD","A1SHLWKA0UH1IS","3R5LWXWHR0UE010DORDQUF3E2FPGXE","","","null","","","","","","","",""
"625.6000001430511","","image-keyboard-response","341","273091","0.0-270.0","3SKEMFQBZ4RV96TIXCRF1RA0QD88KD","A1SHLWKA0UH1IS","3R5LWXWHR0UE010DORDQUF3E2FPGXE","","img/set1/S1.jpg","83","1","structured_incentive","83","true","structured_incentive,structured_normal,random","1,2,2,3","",""
"null","","html-keyboard-response","342","273443","0.0-271.0","3SKEMFQBZ4RV96TIXCRF1RA0QD88KD","A1SHLWKA0UH1IS","3R5LWXWHR0UE010DORDQUF3E2FPGXE","","<img src=""img/set1/S1.jpg"" width=""540"" height = ""360"" style=""border:16px solid orange"">","null","","","","","","","",""
"null","","html-keyboard-response","343","273445","0.0-272.0","3SKEMFQBZ4RV96TIXCRF1RA0QD88KD","A1SHLWKA0UH1IS","3R5LWXWHR0UE010DORDQUF3E2FPGXE","","","null","","","","","","","",""
"1094.7999999523163","","image-keyboard-response","344","274541","0.0-273.0","3SKEMFQBZ4RV96TIXCRF1RA0QD88KD","A1SHLWKA0UH1IS","3R5LWXWHR0UE010DORDQUF3E2FPGXE","","img/set1/S3.jpg","72","3","structured_incentive","72","true","structured_incentive,structured_normal,random","1,2,2,3","",""
"null","","html-keyboard-response","345","274896","0.0-274.0","3SKEMFQBZ4RV96TIXCRF1RA0QD88KD","A1SHLWKA0UH1IS","3R5LWXWHR0UE010DORDQUF3E2FPGXE","","<img src=""img/set1/S3.jpg"" width=""540"" height = ""360"" style=""border:16px solid Violet"">","null","","","","","","","",""
"null","","html-keyboard-response","346","274898","0.0-275.0","3SKEMFQBZ4RV96TIXCRF1RA0QD88KD","A1SHLWKA0UH1IS","3R5LWXWHR0UE010DORDQUF3E2FPGXE","","","null","","","","","","","",""
"644.0999999046326","","image-keyboard-response","347","275543","0.0-276.0","3SKEMFQBZ4RV96TIXCRF1RA0QD88KD","A1SHLWKA0UH1IS","3R5LWXWHR0UE010DORDQUF3E2FPGXE","","img/set1/S4.jpg","74","4","structured_incentive","74","true","structured_incentive,structured_normal,random","1,2,2,3","",""
"null","","html-keyboard-response","348","275899","0.0-277.0","3SKEMFQBZ4RV96TIXCRF1RA0QD88KD","A1SHLWKA0UH1IS","3R5LWXWHR0UE010DORDQUF3E2FPGXE","","<img src=""img/set1/S4.jpg"" width=""540"" height = ""360"" style=""border:16px solid orange"">","null","","","","","","","",""
"null","","html-keyboard-response","349","275900","0.0-278.0","3SKEMFQBZ4RV96TIXCRF1RA0QD88KD","A1SHLWKA0UH1IS","3R5LWXWHR0UE010DORDQUF3E2FPGXE","","","null","","","","","","","",""
"693.2999999523163","","image-keyboard-response","350","276595","0.0-279.0","3SKEMFQBZ4RV96TIXCRF1RA0QD88KD","A1SHLWKA0UH1IS","3R5LWXWHR0UE010DORDQUF3E2FPGXE","","img/set1/S1.jpg","83","1","structured_incentive","83","true","structured_incentive,structured_normal,random","1,2,2,3","",""
"null","","html-keyboard-response","351","276950","0.0-280.0","3SKEMFQBZ4RV96TIXCRF1RA0QD88KD","A1SHLWKA0UH1IS","3R5LWXWHR0UE010DORDQUF3E2FPGXE","","<img src=""img/set1/S1.jpg"" width=""540"" height = ""360"" style=""border:16px solid orange"">","null","","","","","","","",""
"null","","html-keyboard-response","352","276952","0.0-281.0","3SKEMFQBZ4RV96TIXCRF1RA0QD88KD","A1SHLWKA0UH1IS","3R5LWXWHR0UE010DORDQUF3E2FPGXE","","","null","","","","","","","",""
"619.1000001430511","","image-keyboard-response","353","277572","0.0-282.0","3SKEMFQBZ4RV96TIXCRF1RA0QD88KD","A1SHLWKA0UH1IS","3R5LWXWHR0UE010DORDQUF3E2FPGXE","","img/set1/S2.jpg","68","2","structured_incentive","68","true","structured_incentive,structured_normal,random","1,2,2,3","",""
"null","","html-keyboard-response","354","277926","0.0-283.0","3SKEMFQBZ4RV96TIXCRF1RA0QD88KD","A1SHLWKA0UH1IS","3R5LWXWHR0UE010DORDQUF3E2FPGXE","","<img src=""img/set1/S2.jpg"" width=""540"" height = ""360"" style=""border:16px solid orange"">","null","","","","","","","",""
"null","","html-keyboard-response","355","277928","0.0-284.0","3SKEMFQBZ4RV96TIXCRF1RA0QD88KD","A1SHLWKA0UH1IS","3R5LWXWHR0UE010DORDQUF3E2FPGXE","","","null","","","","","","","",""
"597.7000000476837","","image-keyboard-response","356","278527","0.0-285.0","3SKEMFQBZ4RV96TIXCRF1RA0QD88KD","A1SHLWKA0UH1IS","3R5LWXWHR0UE010DORDQUF3E2FPGXE","","img/set1/S3.jpg","72","3","structured_incentive","72","true","structured_incentive,structured_normal,random","1,2,2,3","",""
"null","","html-keyboard-response","357","278881","0.0-286.0","3SKEMFQBZ4RV96TIXCRF1RA0QD88KD","A1SHLWKA0UH1IS","3R5LWXWHR0UE010DORDQUF3E2FPGXE","","<img src=""img/set1/S3.jpg"" width=""540"" height = ""360"" style=""border:16px solid Violet"">","null","","","","","","","",""
"null","","html-keyboard-response","358","278883","0.0-287.0","3SKEMFQBZ4RV96TIXCRF1RA0QD88KD","A1SHLWKA0UH1IS","3R5LWXWHR0UE010DORDQUF3E2FPGXE","","","null","","","","","","","",""
"1005.5999999046326","","image-keyboard-response","359","279890","0.0-288.0","3SKEMFQBZ4RV96TIXCRF1RA0QD88KD","A1SHLWKA0UH1IS","3R5LWXWHR0UE010DORDQUF3E2FPGXE","","img/set1/S2.jpg","68","2","structured_incentive","68","true","structured_incentive,structured_normal,random","1,2,2,3","",""
"null","","html-keyboard-response","360","280245","0.0-289.0","3SKEMFQBZ4RV96TIXCRF1RA0QD88KD","A1SHLWKA0UH1IS","3R5LWXWHR0UE010DORDQUF3E2FPGXE","","<img src=""img/set1/S2.jpg"" width=""540"" height = ""360"" style=""border:16px solid orange"">","null","","","","","","","",""
"null","","html-keyboard-response","361","280246","0.0-290.0","3SKEMFQBZ4RV96TIXCRF1RA0QD88KD","A1SHLWKA0UH1IS","3R5LWXWHR0UE010DORDQUF3E2FPGXE","","","null","","","","","","","",""
"626.4000000953674","","image-keyboard-response","362","280874","0.0-291.0","3SKEMFQBZ4RV96TIXCRF1RA0QD88KD","A1SHLWKA0UH1IS","3R5LWXWHR0UE010DORDQUF3E2FPGXE","","img/set1/S1.jpg","83","1","structured_incentive","83","true","structured_incentive,structured_normal,random","1,2,2,3","",""
"null","","html-keyboard-response","363","281229","0.0-292.0","3SKEMFQBZ4RV96TIXCRF1RA0QD88KD","A1SHLWKA0UH1IS","3R5LWXWHR0UE010DORDQUF3E2FPGXE","","<img src=""img/set1/S1.jpg"" width=""540"" height = ""360"" style=""border:16px solid orange"">","null","","","","","","","",""
"null","","html-keyboard-response","364","281231","0.0-293.0","3SKEMFQBZ4RV96TIXCRF1RA0QD88KD","A1SHLWKA0UH1IS","3R5LWXWHR0UE010DORDQUF3E2FPGXE","","","null","","","","","","","",""
"501","","image-keyboard-response","365","281733","0.0-294.0","3SKEMFQBZ4RV96TIXCRF1RA0QD88KD","A1SHLWKA0UH1IS","3R5LWXWHR0UE010DORDQUF3E2FPGXE","","img/set1/S2.jpg","68","2","structured_incentive","68","true","structured_incentive,structured_normal,random","1,2,2,3","",""
"null","","html-keyboard-response","366","282087","0.0-295.0","3SKEMFQBZ4RV96TIXCRF1RA0QD88KD","A1SHLWKA0UH1IS","3R5LWXWHR0UE010DORDQUF3E2FPGXE","","<img src=""img/set1/S2.jpg"" width=""540"" height = ""360"" style=""border:16px solid orange"">","null","","","","","","","",""
"null","","html-keyboard-response","367","282089","0.0-296.0","3SKEMFQBZ4RV96TIXCRF1RA0QD88KD","A1SHLWKA0UH1IS","3R5LWXWHR0UE010DORDQUF3E2FPGXE","","","null","","","","","","","",""
"599.2000000476837","","image-keyboard-response","368","282689","0.0-297.0","3SKEMFQBZ4RV96TIXCRF1RA0QD88KD","A1SHLWKA0UH1IS","3R5LWXWHR0UE010DORDQUF3E2FPGXE","","img/set1/S3.jpg","72","3","structured_incentive","72","true","structured_incentive,structured_normal,random","1,2,2,3","",""
"null","","html-keyboard-response","369","283042","0.0-298.0","3SKEMFQBZ4RV96TIXCRF1RA0QD88KD","A1SHLWKA0UH1IS","3R5LWXWHR0UE010DORDQUF3E2FPGXE","","<img src=""img/set1/S3.jpg"" width=""540"" height = ""360"" style=""border:16px solid Violet"">","null","","","","","","","",""
"null","","html-keyboard-response","370","283043","0.0-299.0","3SKEMFQBZ4RV96TIXCRF1RA0QD88KD","A1SHLWKA0UH1IS","3R5LWXWHR0UE010DORDQUF3E2FPGXE","","","null","","","","","","","",""
"413.90000009536743","","image-keyboard-response","371","283458","0.0-300.0","3SKEMFQBZ4RV96TIXCRF1RA0QD88KD","A1SHLWKA0UH1IS","3R5LWXWHR0UE010DORDQUF3E2FPGXE","","img/set1/S3.jpg","72","3","structured_incentive","72","true","structured_incentive,structured_normal,random","1,2,2,3","",""
"null","","html-keyboard-response","372","283814","0.0-301.0","3SKEMFQBZ4RV96TIXCRF1RA0QD88KD","A1SHLWKA0UH1IS","3R5LWXWHR0UE010DORDQUF3E2FPGXE","","<img src=""img/set1/S3.jpg"" width=""540"" height = ""360"" style=""border:16px solid Violet"">","null","","","","","","","",""
"null","","html-keyboard-response","373","283815","0.0-302.0","3SKEMFQBZ4RV96TIXCRF1RA0QD88KD","A1SHLWKA0UH1IS","3R5LWXWHR0UE010DORDQUF3E2FPGXE","","","null","","","","","","","",""
"617.7999999523163","","image-keyboard-response","374","284434","0.0-303.0","3SKEMFQBZ4RV96TIXCRF1RA0QD88KD","A1SHLWKA0UH1IS","3R5LWXWHR0UE010DORDQUF3E2FPGXE","","img/set1/S4.jpg","74","4","structured_incentive","74","true","structured_incentive,structured_normal,random","1,2,2,3","",""
"null","","html-keyboard-response","375","284788","0.0-304.0","3SKEMFQBZ4RV96TIXCRF1RA0QD88KD","A1SHLWKA0UH1IS","3R5LWXWHR0UE010DORDQUF3E2FPGXE","","<img src=""img/set1/S4.jpg"" width=""540"" height = ""360"" style=""border:16px solid orange"">","null","","","","","","","",""
"null","","html-keyboard-response","376","284790","0.0-305.0","3SKEMFQBZ4RV96TIXCRF1RA0QD88KD","A1SHLWKA0UH1IS","3R5LWXWHR0UE010DORDQUF3E2FPGXE","","","null","","","","","","","",""
"989.4000000953674","","image-keyboard-response","377","285780","0.0-306.0","3SKEMFQBZ4RV96TIXCRF1RA0QD88KD","A1SHLWKA0UH1IS","3R5LWXWHR0UE010DORDQUF3E2FPGXE","","img/set1/S1.jpg","83","1","structured_incentive","83","true","structured_incentive,structured_normal,random","1,2,2,3","",""
"null","","html-keyboard-response","378","286135","0.0-307.0","3SKEMFQBZ4RV96TIXCRF1RA0QD88KD","A1SHLWKA0UH1IS","3R5LWXWHR0UE010DORDQUF3E2FPGXE","","<img src=""img/set1/S1.jpg"" width=""540"" height = ""360"" style=""border:16px solid orange"">","null","","","","","","","",""
"null","","html-keyboard-response","379","286137","0.0-308.0","3SKEMFQBZ4RV96TIXCRF1RA0QD88KD","A1SHLWKA0UH1IS","3R5LWXWHR0UE010DORDQUF3E2FPGXE","","","null","","","","","","","",""
"577.2000000476837","","image-keyboard-response","380","286715","0.0-309.0","3SKEMFQBZ4RV96TIXCRF1RA0QD88KD","A1SHLWKA0UH1IS","3R5LWXWHR0UE010DORDQUF3E2FPGXE","","img/set1/S2.jpg","68","2","structured_incentive","68","true","structured_incentive,structured_normal,random","1,2,2,3","",""
"null","","html-keyboard-response","381","287071","0.0-310.0","3SKEMFQBZ4RV96TIXCRF1RA0QD88KD","A1SHLWKA0UH1IS","3R5LWXWHR0UE010DORDQUF3E2FPGXE","","<img src=""img/set1/S2.jpg"" width=""540"" height = ""360"" style=""border:16px solid orange"">","null","","","","","","","",""
"null","","html-keyboard-response","382","287072","0.0-311.0","3SKEMFQBZ4RV96TIXCRF1RA0QD88KD","A1SHLWKA0UH1IS","3R5LWXWHR0UE010DORDQUF3E2FPGXE","","","null","","","","","","","",""
"656","","image-keyboard-response","383","287729","0.0-312.0","3SKEMFQBZ4RV96TIXCRF1RA0QD88KD","A1SHLWKA0UH1IS","3R5LWXWHR0UE010DORDQUF3E2FPGXE","","img/set1/S4.jpg","74","4","structured_incentive","74","true","structured_incentive,structured_normal,random","1,2,2,3","",""
"null","","html-keyboard-response","384","288081","0.0-313.0","3SKEMFQBZ4RV96TIXCRF1RA0QD88KD","A1SHLWKA0UH1IS","3R5LWXWHR0UE010DORDQUF3E2FPGXE","","<img src=""img/set1/S4.jpg"" width=""540"" height = ""360"" style=""border:16px solid orange"">","null","","","","","","","",""
"null","","html-keyboard-response","385","288082","0.0-314.0","3SKEMFQBZ4RV96TIXCRF1RA0QD88KD","A1SHLWKA0UH1IS","3R5LWXWHR0UE010DORDQUF3E2FPGXE","","","null","","","","","","","",""
"1174.6999998092651","","image-keyboard-response","386","289258","0.0-315.0","3SKEMFQBZ4RV96TIXCRF1RA0QD88KD","A1SHLWKA0UH1IS","3R5LWXWHR0UE010DORDQUF3E2FPGXE","","img/set1/S1.jpg","83","1","structured_incentive","83","true","structured_incentive,structured_normal,random","1,2,2,3","",""
"null","","html-keyboard-response","387","289613","0.0-316.0","3SKEMFQBZ4RV96TIXCRF1RA0QD88KD","A1SHLWKA0UH1IS","3R5LWXWHR0UE010DORDQUF3E2FPGXE","","<img src=""img/set1/S1.jpg"" width=""540"" height = ""360"" style=""border:16px solid orange"">","null","","","","","","","",""
"null","","html-keyboard-response","388","289615","0.0-317.0","3SKEMFQBZ4RV96TIXCRF1RA0QD88KD","A1SHLWKA0UH1IS","3R5LWXWHR0UE010DORDQUF3E2FPGXE","","","null","","","","","","","",""
"474.5","","image-keyboard-response","389","290090","0.0-318.0","3SKEMFQBZ4RV96TIXCRF1RA0QD88KD","A1SHLWKA0UH1IS","3R5LWXWHR0UE010DORDQUF3E2FPGXE","","img/set1/S2.jpg","68","2","structured_incentive","68","true","structured_incentive,structured_normal,random","1,2,2,3","",""
"null","","html-keyboard-response","390","290444","0.0-319.0","3SKEMFQBZ4RV96TIXCRF1RA0QD88KD","A1SHLWKA0UH1IS","3R5LWXWHR0UE010DORDQUF3E2FPGXE","","<img src=""img/set1/S2.jpg"" width=""540"" height = ""360"" style=""border:16px solid orange"">","null","","","","","","","",""
"null","","html-keyboard-response","391","290446","0.0-320.0","3SKEMFQBZ4RV96TIXCRF1RA0QD88KD","A1SHLWKA0UH1IS","3R5LWXWHR0UE010DORDQUF3E2FPGXE","","","null","","","","","","","",""
"597.9000000953674","","image-keyboard-response","392","291045","0.0-321.0","3SKEMFQBZ4RV96TIXCRF1RA0QD88KD","A1SHLWKA0UH1IS","3R5LWXWHR0UE010DORDQUF3E2FPGXE","","img/set1/S4.jpg","72","4","structured_incentive","74","false","structured_incentive,structured_normal,random","1,2,2,3","",""
"null","","html-keyboard-response","393","291397","0.0-322.0","3SKEMFQBZ4RV96TIXCRF1RA0QD88KD","A1SHLWKA0UH1IS","3R5LWXWHR0UE010DORDQUF3E2FPGXE","","<img src=""img/set1/S4.jpg"" width=""540"" height = ""360"">","null","","","","","","","",""
"null","","html-keyboard-response","394","291398","0.0-323.0","3SKEMFQBZ4RV96TIXCRF1RA0QD88KD","A1SHLWKA0UH1IS","3R5LWXWHR0UE010DORDQUF3E2FPGXE","","","null","","","","","","","",""
"686.7999999523163","","image-keyboard-response","395","292086","0.0-324.0","3SKEMFQBZ4RV96TIXCRF1RA0QD88KD","A1SHLWKA0UH1IS","3R5LWXWHR0UE010DORDQUF3E2FPGXE","","img/set1/S3.jpg","72","3","structured_incentive","72","true","structured_incentive,structured_normal,random","1,2,2,3","",""
"null","","html-keyboard-response","396","292442","0.0-325.0","3SKEMFQBZ4RV96TIXCRF1RA0QD88KD","A1SHLWKA0UH1IS","3R5LWXWHR0UE010DORDQUF3E2FPGXE","","<img src=""img/set1/S3.jpg"" width=""540"" height = ""360"" style=""border:16px solid Violet"">","null","","","","","","","",""
"null","","html-keyboard-response","397","292444","0.0-326.0","3SKEMFQBZ4RV96TIXCRF1RA0QD88KD","A1SHLWKA0UH1IS","3R5LWXWHR0UE010DORDQUF3E2FPGXE","","","null","","","","","","","",""
"546","","image-keyboard-response","398","292990","0.0-327.0","3SKEMFQBZ4RV96TIXCRF1RA0QD88KD","A1SHLWKA0UH1IS","3R5LWXWHR0UE010DORDQUF3E2FPGXE","","img/set1/S4.jpg","74","4","structured_incentive","74","true","structured_incentive,structured_normal,random","1,2,2,3","",""
"null","","html-keyboard-response","399","293342","0.0-328.0","3SKEMFQBZ4RV96TIXCRF1RA0QD88KD","A1SHLWKA0UH1IS","3R5LWXWHR0UE010DORDQUF3E2FPGXE","","<img src=""img/set1/S4.jpg"" width=""540"" height = ""360"" style=""border:16px solid orange"">","null","","","","","","","",""
"null","","html-keyboard-response","400","293343","0.0-329.0","3SKEMFQBZ4RV96TIXCRF1RA0QD88KD","A1SHLWKA0UH1IS","3R5LWXWHR0UE010DORDQUF3E2FPGXE","","","null","","","","","","","",""
"706.7000000476837","","image-keyboard-response","401","294051","0.0-330.0","3SKEMFQBZ4RV96TIXCRF1RA0QD88KD","A1SHLWKA0UH1IS","3R5LWXWHR0UE010DORDQUF3E2FPGXE","","img/set1/S1.jpg","83","1","structured_incentive","83","true","structured_incentive,structured_normal,random","1,2,2,3","",""
"null","","html-keyboard-response","402","294405","0.0-331.0","3SKEMFQBZ4RV96TIXCRF1RA0QD88KD","A1SHLWKA0UH1IS","3R5LWXWHR0UE010DORDQUF3E2FPGXE","","<img src=""img/set1/S1.jpg"" width=""540"" height = ""360"" style=""border:16px solid orange"">","null","","","","","","","",""
"null","","html-keyboard-response","403","294406","0.0-332.0","3SKEMFQBZ4RV96TIXCRF1RA0QD88KD","A1SHLWKA0UH1IS","3R5LWXWHR0UE010DORDQUF3E2FPGXE","","","null","","","","","","","",""
"629.3999998569489","","image-keyboard-response","404","295037","0.0-333.0","3SKEMFQBZ4RV96TIXCRF1RA0QD88KD","A1SHLWKA0UH1IS","3R5LWXWHR0UE010DORDQUF3E2FPGXE","","img/set1/S2.jpg","68","2","structured_incentive","68","true","structured_incentive,structured_normal,random","1,2,2,3","",""
"null","","html-keyboard-response","405","295392","0.0-334.0","3SKEMFQBZ4RV96TIXCRF1RA0QD88KD","A1SHLWKA0UH1IS","3R5LWXWHR0UE010DORDQUF3E2FPGXE","","<img src=""img/set1/S2.jpg"" width=""540"" height = ""360"" style=""border:16px solid orange"">","null","","","","","","","",""
"null","","html-keyboard-response","406","295393","0.0-335.0","3SKEMFQBZ4RV96TIXCRF1RA0QD88KD","A1SHLWKA0UH1IS","3R5LWXWHR0UE010DORDQUF3E2FPGXE","","","null","","","","","","","",""
