"rt","url","trial_type","trial_index","time_elapsed","internal_node_id","assignmentID","mturkID","hitID","view_history","stimulus","key_press","state","test_part","correct_response","correct","order_block","order_chunk","bonus","responses"
"16392.09999999404","consent.html","external-html","0","16588","0.0-0.0","32VNZTT0A8QGD9JBBTAZLRG9JKLR4Z","A1SOFLJOEQB591","3XUSYT70ITN3RRKBJPNBFGD6FGOD06","","","","","","","","","","",""
"68344.60000000894","","instructions","1","84938","0.0-1.0","32VNZTT0A8QGD9JBBTAZLRG9JKLR4Z","A1SOFLJOEQB591","3XUSYT70ITN3RRKBJPNBFGD6FGOD06","[{""page_index"":0,""viewing_time"":5280.20000000298},{""page_index"":1,""viewing_time"":5946.4000000059605},{""page_index"":2,""viewing_time"":1966.699999988079},{""page_index"":3,""viewing_time"":17189.20000000298},{""page_index"":4,""viewing_time"":5621.79999999702},{""page_index"":5,""viewing_time"":11171.40000000596},{""page_index"":6,""viewing_time"":7623.9000000059605},{""page_index"":7,""viewing_time"":13544.59999999404}]","","","","","","","","","",""
"1562.5999999940395","","image-keyboard-response","2","86504","0.0-2.0-0.0","32VNZTT0A8QGD9JBBTAZLRG9JKLR4Z","A1SOFLJOEQB591","3XUSYT70ITN3RRKBJPNBFGD6FGOD06","","img/practice/S2.jpg","72","2","practice","68","false","","","",""
"null","","html-keyboard-response","3","86811","0.0-2.0-1.0","32VNZTT0A8QGD9JBBTAZLRG9JKLR4Z","A1SOFLJOEQB591","3XUSYT70ITN3RRKBJPNBFGD6FGOD06","","<img src=""img/practice/S2.jpg"" width=""540"" height = ""360"">","null","","","","","","","",""
"null","","html-keyboard-response","4","86813","0.0-2.0-2.0","32VNZTT0A8QGD9JBBTAZLRG9JKLR4Z","A1SOFLJOEQB591","3XUSYT70ITN3RRKBJPNBFGD6FGOD06","","","null","","","","","","","",""
"785","","image-keyboard-response","5","87601","0.0-2.0-0.1","32VNZTT0A8QGD9JBBTAZLRG9JKLR4Z","A1SOFLJOEQB591","3XUSYT70ITN3RRKBJPNBFGD6FGOD06","","img/practice/S4.jpg","72","4","practice","74","false","","","",""
"null","","html-keyboard-response","6","87905","0.0-2.0-1.1","32VNZTT0A8QGD9JBBTAZLRG9JKLR4Z","A1SOFLJOEQB591","3XUSYT70ITN3RRKBJPNBFGD6FGOD06","","<img src=""img/practice/S4.jpg"" width=""540"" height = ""360"">","null","","","","","","","",""
"null","","html-keyboard-response","7","87909","0.0-2.0-2.1","32VNZTT0A8QGD9JBBTAZLRG9JKLR4Z","A1SOFLJOEQB591","3XUSYT70ITN3RRKBJPNBFGD6FGOD06","","","null","","","","","","","",""
"598.2000000029802","","image-keyboard-response","8","88509","0.0-2.0-0.2","32VNZTT0A8QGD9JBBTAZLRG9JKLR4Z","A1SOFLJOEQB591","3XUSYT70ITN3RRKBJPNBFGD6FGOD06","","img/practice/S3.jpg","74","3","practice","72","false","","","",""
"null","","html-keyboard-response","9","88813","0.0-2.0-1.2","32VNZTT0A8QGD9JBBTAZLRG9JKLR4Z","A1SOFLJOEQB591","3XUSYT70ITN3RRKBJPNBFGD6FGOD06","","<img src=""img/practice/S3.jpg"" width=""540"" height = ""360"">","null","","","","","","","",""
"null","","html-keyboard-response","10","88815","0.0-2.0-2.2","32VNZTT0A8QGD9JBBTAZLRG9JKLR4Z","A1SOFLJOEQB591","3XUSYT70ITN3RRKBJPNBFGD6FGOD06","","","null","","","","","","","",""
"1187","","image-keyboard-response","11","90003","0.0-2.0-0.3","32VNZTT0A8QGD9JBBTAZLRG9JKLR4Z","A1SOFLJOEQB591","3XUSYT70ITN3RRKBJPNBFGD6FGOD06","","img/practice/S1.jpg","74","1","practice","83","false","","","",""
"null","","html-keyboard-response","12","90307","0.0-2.0-1.3","32VNZTT0A8QGD9JBBTAZLRG9JKLR4Z","A1SOFLJOEQB591","3XUSYT70ITN3RRKBJPNBFGD6FGOD06","","<img src=""img/practice/S1.jpg"" width=""540"" height = ""360"">","null","","","","","","","",""
"null","","html-keyboard-response","13","90309","0.0-2.0-2.3","32VNZTT0A8QGD9JBBTAZLRG9JKLR4Z","A1SOFLJOEQB591","3XUSYT70ITN3RRKBJPNBFGD6FGOD06","","","null","","","","","","","",""
"1117.2999999970198","","image-keyboard-response","14","91428","0.0-2.0-0.4","32VNZTT0A8QGD9JBBTAZLRG9JKLR4Z","A1SOFLJOEQB591","3XUSYT70ITN3RRKBJPNBFGD6FGOD06","","img/practice/S1.jpg","74","1","practice","83","false","","","",""
"null","","html-keyboard-response","15","91734","0.0-2.0-1.4","32VNZTT0A8QGD9JBBTAZLRG9JKLR4Z","A1SOFLJOEQB591","3XUSYT70ITN3RRKBJPNBFGD6FGOD06","","<img src=""img/practice/S1.jpg"" width=""540"" height = ""360"">","null","","","","","","","",""
"null","","html-keyboard-response","16","91736","0.0-2.0-2.4","32VNZTT0A8QGD9JBBTAZLRG9JKLR4Z","A1SOFLJOEQB591","3XUSYT70ITN3RRKBJPNBFGD6FGOD06","","","null","","","","","","","",""
"624.3000000119209","","image-keyboard-response","17","92362","0.0-2.0-0.5","32VNZTT0A8QGD9JBBTAZLRG9JKLR4Z","A1SOFLJOEQB591","3XUSYT70ITN3RRKBJPNBFGD6FGOD06","","img/practice/S2.jpg","72","2","practice","68","false","","","",""
"null","","html-keyboard-response","18","92669","0.0-2.0-1.5","32VNZTT0A8QGD9JBBTAZLRG9JKLR4Z","A1SOFLJOEQB591","3XUSYT70ITN3RRKBJPNBFGD6FGOD06","","<img src=""img/practice/S2.jpg"" width=""540"" height = ""360"">","null","","","","","","","",""
"null","","html-keyboard-response","19","92671","0.0-2.0-2.5","32VNZTT0A8QGD9JBBTAZLRG9JKLR4Z","A1SOFLJOEQB591","3XUSYT70ITN3RRKBJPNBFGD6FGOD06","","","null","","","","","","","",""
"1014.5999999940395","","image-keyboard-response","20","93687","0.0-2.0-0.6","32VNZTT0A8QGD9JBBTAZLRG9JKLR4Z","A1SOFLJOEQB591","3XUSYT70ITN3RRKBJPNBFGD6FGOD06","","img/practice/S4.jpg","72","4","practice","74","false","","","",""
"null","","html-keyboard-response","21","93991","0.0-2.0-1.6","32VNZTT0A8QGD9JBBTAZLRG9JKLR4Z","A1SOFLJOEQB591","3XUSYT70ITN3RRKBJPNBFGD6FGOD06","","<img src=""img/practice/S4.jpg"" width=""540"" height = ""360"">","null","","","","","","","",""
"null","","html-keyboard-response","22","93993","0.0-2.0-2.6","32VNZTT0A8QGD9JBBTAZLRG9JKLR4Z","A1SOFLJOEQB591","3XUSYT70ITN3RRKBJPNBFGD6FGOD06","","","null","","","","","","","",""
"927.7000000029802","","image-keyboard-response","23","94922","0.0-2.0-0.7","32VNZTT0A8QGD9JBBTAZLRG9JKLR4Z","A1SOFLJOEQB591","3XUSYT70ITN3RRKBJPNBFGD6FGOD06","","img/practice/S3.jpg","72","3","practice","72","true","","","",""
"null","","html-keyboard-response","24","95224","0.0-2.0-1.7","32VNZTT0A8QGD9JBBTAZLRG9JKLR4Z","A1SOFLJOEQB591","3XUSYT70ITN3RRKBJPNBFGD6FGOD06","","<img src=""img/practice/S3.jpg"" width=""540"" height = ""360"" style=""border:16px solid orange"">","null","","","","","","","",""
"null","","html-keyboard-response","25","95226","0.0-2.0-2.7","32VNZTT0A8QGD9JBBTAZLRG9JKLR4Z","A1SOFLJOEQB591","3XUSYT70ITN3RRKBJPNBFGD6FGOD06","","","null","","","","","","","",""
"1324.4000000059605","","image-keyboard-response","26","96552","0.0-2.0-0.8","32VNZTT0A8QGD9JBBTAZLRG9JKLR4Z","A1SOFLJOEQB591","3XUSYT70ITN3RRKBJPNBFGD6FGOD06","","img/practice/S1.jpg","72","1","practice","83","false","","","",""
"null","","html-keyboard-response","27","96857","0.0-2.0-1.8","32VNZTT0A8QGD9JBBTAZLRG9JKLR4Z","A1SOFLJOEQB591","3XUSYT70ITN3RRKBJPNBFGD6FGOD06","","<img src=""img/practice/S1.jpg"" width=""540"" height = ""360"">","null","","","","","","","",""
"null","","html-keyboard-response","28","96859","0.0-2.0-2.8","32VNZTT0A8QGD9JBBTAZLRG9JKLR4Z","A1SOFLJOEQB591","3XUSYT70ITN3RRKBJPNBFGD6FGOD06","","","null","","","","","","","",""
"777","","image-keyboard-response","29","97638","0.0-2.0-0.9","32VNZTT0A8QGD9JBBTAZLRG9JKLR4Z","A1SOFLJOEQB591","3XUSYT70ITN3RRKBJPNBFGD6FGOD06","","img/practice/S2.jpg","74","2","practice","68","false","","","",""
"null","","html-keyboard-response","30","97943","0.0-2.0-1.9","32VNZTT0A8QGD9JBBTAZLRG9JKLR4Z","A1SOFLJOEQB591","3XUSYT70ITN3RRKBJPNBFGD6FGOD06","","<img src=""img/practice/S2.jpg"" width=""540"" height = ""360"">","null","","","","","","","",""
"null","","html-keyboard-response","31","97945","0.0-2.0-2.9","32VNZTT0A8QGD9JBBTAZLRG9JKLR4Z","A1SOFLJOEQB591","3XUSYT70ITN3RRKBJPNBFGD6FGOD06","","","null","","","","","","","",""
"851","","image-keyboard-response","32","98797","0.0-2.0-0.10","32VNZTT0A8QGD9JBBTAZLRG9JKLR4Z","A1SOFLJOEQB591","3XUSYT70ITN3RRKBJPNBFGD6FGOD06","","img/practice/S4.jpg","72","4","practice","74","false","","","",""
"null","","html-keyboard-response","33","99101","0.0-2.0-1.10","32VNZTT0A8QGD9JBBTAZLRG9JKLR4Z","A1SOFLJOEQB591","3XUSYT70ITN3RRKBJPNBFGD6FGOD06","","<img src=""img/practice/S4.jpg"" width=""540"" height = ""360"">","null","","","","","","","",""
"null","","html-keyboard-response","34","99103","0.0-2.0-2.10","32VNZTT0A8QGD9JBBTAZLRG9JKLR4Z","A1SOFLJOEQB591","3XUSYT70ITN3RRKBJPNBFGD6FGOD06","","","null","","","","","","","",""
"861.7999999970198","","image-keyboard-response","35","99966","0.0-2.0-0.11","32VNZTT0A8QGD9JBBTAZLRG9JKLR4Z","A1SOFLJOEQB591","3XUSYT70ITN3RRKBJPNBFGD6FGOD06","","img/practice/S3.jpg","74","3","practice","72","false","","","",""
"null","","html-keyboard-response","36","100272","0.0-2.0-1.11","32VNZTT0A8QGD9JBBTAZLRG9JKLR4Z","A1SOFLJOEQB591","3XUSYT70ITN3RRKBJPNBFGD6FGOD06","","<img src=""img/practice/S3.jpg"" width=""540"" height = ""360"">","null","","","","","","","",""
"null","","html-keyboard-response","37","100273","0.0-2.0-2.11","32VNZTT0A8QGD9JBBTAZLRG9JKLR4Z","A1SOFLJOEQB591","3XUSYT70ITN3RRKBJPNBFGD6FGOD06","","","null","","","","","","","",""
"1027.6000000089407","","image-keyboard-response","38","101303","0.0-2.0-0.12","32VNZTT0A8QGD9JBBTAZLRG9JKLR4Z","A1SOFLJOEQB591","3XUSYT70ITN3RRKBJPNBFGD6FGOD06","","img/practice/S4.jpg","72","4","practice","74","false","","","",""
"null","","html-keyboard-response","39","101607","0.0-2.0-1.12","32VNZTT0A8QGD9JBBTAZLRG9JKLR4Z","A1SOFLJOEQB591","3XUSYT70ITN3RRKBJPNBFGD6FGOD06","","<img src=""img/practice/S4.jpg"" width=""540"" height = ""360"">","null","","","","","","","",""
"null","","html-keyboard-response","40","101609","0.0-2.0-2.12","32VNZTT0A8QGD9JBBTAZLRG9JKLR4Z","A1SOFLJOEQB591","3XUSYT70ITN3RRKBJPNBFGD6FGOD06","","","null","","","","","","","",""
"755.0999999940395","","image-keyboard-response","41","102366","0.0-2.0-0.13","32VNZTT0A8QGD9JBBTAZLRG9JKLR4Z","A1SOFLJOEQB591","3XUSYT70ITN3RRKBJPNBFGD6FGOD06","","img/practice/S3.jpg","74","3","practice","72","false","","","",""
"null","","html-keyboard-response","42","102672","0.0-2.0-1.13","32VNZTT0A8QGD9JBBTAZLRG9JKLR4Z","A1SOFLJOEQB591","3XUSYT70ITN3RRKBJPNBFGD6FGOD06","","<img src=""img/practice/S3.jpg"" width=""540"" height = ""360"">","null","","","","","","","",""
"null","","html-keyboard-response","43","102675","0.0-2.0-2.13","32VNZTT0A8QGD9JBBTAZLRG9JKLR4Z","A1SOFLJOEQB591","3XUSYT70ITN3RRKBJPNBFGD6FGOD06","","","null","","","","","","","",""
"909.7999999970198","","image-keyboard-response","44","103586","0.0-2.0-0.14","32VNZTT0A8QGD9JBBTAZLRG9JKLR4Z","A1SOFLJOEQB591","3XUSYT70ITN3RRKBJPNBFGD6FGOD06","","img/practice/S1.jpg","72","1","practice","83","false","","","",""
"null","","html-keyboard-response","45","103890","0.0-2.0-1.14","32VNZTT0A8QGD9JBBTAZLRG9JKLR4Z","A1SOFLJOEQB591","3XUSYT70ITN3RRKBJPNBFGD6FGOD06","","<img src=""img/practice/S1.jpg"" width=""540"" height = ""360"">","null","","","","","","","",""
"null","","html-keyboard-response","46","103892","0.0-2.0-2.14","32VNZTT0A8QGD9JBBTAZLRG9JKLR4Z","A1SOFLJOEQB591","3XUSYT70ITN3RRKBJPNBFGD6FGOD06","","","null","","","","","","","",""
"501.69999998807907","","image-keyboard-response","47","104395","0.0-2.0-0.15","32VNZTT0A8QGD9JBBTAZLRG9JKLR4Z","A1SOFLJOEQB591","3XUSYT70ITN3RRKBJPNBFGD6FGOD06","","img/practice/S2.jpg","74","2","practice","68","false","","","",""
"null","","html-keyboard-response","48","104702","0.0-2.0-1.15","32VNZTT0A8QGD9JBBTAZLRG9JKLR4Z","A1SOFLJOEQB591","3XUSYT70ITN3RRKBJPNBFGD6FGOD06","","<img src=""img/practice/S2.jpg"" width=""540"" height = ""360"">","null","","","","","","","",""
"null","","html-keyboard-response","49","104706","0.0-2.0-2.15","32VNZTT0A8QGD9JBBTAZLRG9JKLR4Z","A1SOFLJOEQB591","3XUSYT70ITN3RRKBJPNBFGD6FGOD06","","","null","","","","","","","",""
"767.7000000029802","","image-keyboard-response","50","105475","0.0-2.0-0.16","32VNZTT0A8QGD9JBBTAZLRG9JKLR4Z","A1SOFLJOEQB591","3XUSYT70ITN3RRKBJPNBFGD6FGOD06","","img/practice/S3.jpg","72","3","practice","72","true","","","",""
"null","","html-keyboard-response","51","105782","0.0-2.0-1.16","32VNZTT0A8QGD9JBBTAZLRG9JKLR4Z","A1SOFLJOEQB591","3XUSYT70ITN3RRKBJPNBFGD6FGOD06","","<img src=""img/practice/S3.jpg"" width=""540"" height = ""360"" style=""border:16px solid orange"">","null","","","","","","","",""
"null","","html-keyboard-response","52","105784","0.0-2.0-2.16","32VNZTT0A8QGD9JBBTAZLRG9JKLR4Z","A1SOFLJOEQB591","3XUSYT70ITN3RRKBJPNBFGD6FGOD06","","","null","","","","","","","",""
"914.4000000059605","","image-keyboard-response","53","106700","0.0-2.0-0.17","32VNZTT0A8QGD9JBBTAZLRG9JKLR4Z","A1SOFLJOEQB591","3XUSYT70ITN3RRKBJPNBFGD6FGOD06","","img/practice/S4.jpg","74","4","practice","74","true","","","",""
"null","","html-keyboard-response","54","107003","0.0-2.0-1.17","32VNZTT0A8QGD9JBBTAZLRG9JKLR4Z","A1SOFLJOEQB591","3XUSYT70ITN3RRKBJPNBFGD6FGOD06","","<img src=""img/practice/S4.jpg"" width=""540"" height = ""360"" style=""border:16px solid orange"">","null","","","","","","","",""
"null","","html-keyboard-response","55","107006","0.0-2.0-2.17","32VNZTT0A8QGD9JBBTAZLRG9JKLR4Z","A1SOFLJOEQB591","3XUSYT70ITN3RRKBJPNBFGD6FGOD06","","","null","","","","","","","",""
"792.4000000059605","","image-keyboard-response","56","107799","0.0-2.0-0.18","32VNZTT0A8QGD9JBBTAZLRG9JKLR4Z","A1SOFLJOEQB591","3XUSYT70ITN3RRKBJPNBFGD6FGOD06","","img/practice/S2.jpg","72","2","practice","68","false","","","",""
"null","","html-keyboard-response","57","108106","0.0-2.0-1.18","32VNZTT0A8QGD9JBBTAZLRG9JKLR4Z","A1SOFLJOEQB591","3XUSYT70ITN3RRKBJPNBFGD6FGOD06","","<img src=""img/practice/S2.jpg"" width=""540"" height = ""360"">","null","","","","","","","",""
"null","","html-keyboard-response","58","108108","0.0-2.0-2.18","32VNZTT0A8QGD9JBBTAZLRG9JKLR4Z","A1SOFLJOEQB591","3XUSYT70ITN3RRKBJPNBFGD6FGOD06","","","null","","","","","","","",""
"759.8999999910593","","image-keyboard-response","59","108870","0.0-2.0-0.19","32VNZTT0A8QGD9JBBTAZLRG9JKLR4Z","A1SOFLJOEQB591","3XUSYT70ITN3RRKBJPNBFGD6FGOD06","","img/practice/S1.jpg","72","1","practice","83","false","","","",""
"null","","html-keyboard-response","60","109175","0.0-2.0-1.19","32VNZTT0A8QGD9JBBTAZLRG9JKLR4Z","A1SOFLJOEQB591","3XUSYT70ITN3RRKBJPNBFGD6FGOD06","","<img src=""img/practice/S1.jpg"" width=""540"" height = ""360"">","null","","","","","","","",""
"null","","html-keyboard-response","61","109177","0.0-2.0-2.19","32VNZTT0A8QGD9JBBTAZLRG9JKLR4Z","A1SOFLJOEQB591","3XUSYT70ITN3RRKBJPNBFGD6FGOD06","","","null","","","","","","","",""
"808.5999999940395","","image-keyboard-response","62","109987","0.0-2.0-0.20","32VNZTT0A8QGD9JBBTAZLRG9JKLR4Z","A1SOFLJOEQB591","3XUSYT70ITN3RRKBJPNBFGD6FGOD06","","img/practice/S1.jpg","72","1","practice","83","false","","","",""
"null","","html-keyboard-response","63","110290","0.0-2.0-1.20","32VNZTT0A8QGD9JBBTAZLRG9JKLR4Z","A1SOFLJOEQB591","3XUSYT70ITN3RRKBJPNBFGD6FGOD06","","<img src=""img/practice/S1.jpg"" width=""540"" height = ""360"">","null","","","","","","","",""
"null","","html-keyboard-response","64","110292","0.0-2.0-2.20","32VNZTT0A8QGD9JBBTAZLRG9JKLR4Z","A1SOFLJOEQB591","3XUSYT70ITN3RRKBJPNBFGD6FGOD06","","","null","","","","","","","",""
"1152.7999999970198","","image-keyboard-response","65","111447","0.0-2.0-0.21","32VNZTT0A8QGD9JBBTAZLRG9JKLR4Z","A1SOFLJOEQB591","3XUSYT70ITN3RRKBJPNBFGD6FGOD06","","img/practice/S2.jpg","72","2","practice","68","false","","","",""
"null","","html-keyboard-response","66","111753","0.0-2.0-1.21","32VNZTT0A8QGD9JBBTAZLRG9JKLR4Z","A1SOFLJOEQB591","3XUSYT70ITN3RRKBJPNBFGD6FGOD06","","<img src=""img/practice/S2.jpg"" width=""540"" height = ""360"">","null","","","","","","","",""
"null","","html-keyboard-response","67","111755","0.0-2.0-2.21","32VNZTT0A8QGD9JBBTAZLRG9JKLR4Z","A1SOFLJOEQB591","3XUSYT70ITN3RRKBJPNBFGD6FGOD06","","","null","","","","","","","",""
"746.7000000029802","","image-keyboard-response","68","112503","0.0-2.0-0.22","32VNZTT0A8QGD9JBBTAZLRG9JKLR4Z","A1SOFLJOEQB591","3XUSYT70ITN3RRKBJPNBFGD6FGOD06","","img/practice/S4.jpg","72","4","practice","74","false","","","",""
"null","","html-keyboard-response","69","112808","0.0-2.0-1.22","32VNZTT0A8QGD9JBBTAZLRG9JKLR4Z","A1SOFLJOEQB591","3XUSYT70ITN3RRKBJPNBFGD6FGOD06","","<img src=""img/practice/S4.jpg"" width=""540"" height = ""360"">","null","","","","","","","",""
"null","","html-keyboard-response","70","112812","0.0-2.0-2.22","32VNZTT0A8QGD9JBBTAZLRG9JKLR4Z","A1SOFLJOEQB591","3XUSYT70ITN3RRKBJPNBFGD6FGOD06","","","null","","","","","","","",""
"1136.2999999970198","","image-keyboard-response","71","113950","0.0-2.0-0.23","32VNZTT0A8QGD9JBBTAZLRG9JKLR4Z","A1SOFLJOEQB591","3XUSYT70ITN3RRKBJPNBFGD6FGOD06","","img/practice/S3.jpg","72","3","practice","72","true","","","",""
"null","","html-keyboard-response","72","114254","0.0-2.0-1.23","32VNZTT0A8QGD9JBBTAZLRG9JKLR4Z","A1SOFLJOEQB591","3XUSYT70ITN3RRKBJPNBFGD6FGOD06","","<img src=""img/practice/S3.jpg"" width=""540"" height = ""360"" style=""border:16px solid orange"">","null","","","","","","","",""
"null","","html-keyboard-response","73","114255","0.0-2.0-2.23","32VNZTT0A8QGD9JBBTAZLRG9JKLR4Z","A1SOFLJOEQB591","3XUSYT70ITN3RRKBJPNBFGD6FGOD06","","","null","","","","","","","",""
"4930.79999999702","","instructions","74","119187","0.0-3.0","32VNZTT0A8QGD9JBBTAZLRG9JKLR4Z","A1SOFLJOEQB591","3XUSYT70ITN3RRKBJPNBFGD6FGOD06","[{""page_index"":0,""viewing_time"":4930.4000000059605}]","","","","","","","","","",""
"5126.70000000298","","instructions","75","124315","0.0-4.0","32VNZTT0A8QGD9JBBTAZLRG9JKLR4Z","A1SOFLJOEQB591","3XUSYT70ITN3RRKBJPNBFGD6FGOD06","[{""page_index"":0,""viewing_time"":5126.29999999702}]","","","","","","","","","",""
"3569.7000000029802","","instructions","76","127885","0.0-5.0","32VNZTT0A8QGD9JBBTAZLRG9JKLR4Z","A1SOFLJOEQB591","3XUSYT70ITN3RRKBJPNBFGD6FGOD06","[{""page_index"":0,""viewing_time"":3569.300000011921}]","","","","","","","","","",""
"799.2999999970198","","image-keyboard-response","77","128686","0.0-6.0","32VNZTT0A8QGD9JBBTAZLRG9JKLR4Z","A1SOFLJOEQB591","3XUSYT70ITN3RRKBJPNBFGD6FGOD06","","img/set1/S2.jpg","83","2","random","68","false","random,structured_incentive,structured_normal","1,2,2,3","",""
"null","","html-keyboard-response","78","129045","0.0-7.0","32VNZTT0A8QGD9JBBTAZLRG9JKLR4Z","A1SOFLJOEQB591","3XUSYT70ITN3RRKBJPNBFGD6FGOD06","","<img src=""img/set1/S2.jpg"" width=""540"" height = ""360"">","null","","","","","","","",""
"null","","html-keyboard-response","79","129047","0.0-8.0","32VNZTT0A8QGD9JBBTAZLRG9JKLR4Z","A1SOFLJOEQB591","3XUSYT70ITN3RRKBJPNBFGD6FGOD06","","","null","","","","","","","",""
"726.5","","image-keyboard-response","80","129774","0.0-9.0","32VNZTT0A8QGD9JBBTAZLRG9JKLR4Z","A1SOFLJOEQB591","3XUSYT70ITN3RRKBJPNBFGD6FGOD06","","img/set1/S2.jpg","83","2","random","68","false","random,structured_incentive,structured_normal","1,2,2,3","",""
"null","","html-keyboard-response","81","130131","0.0-10.0","32VNZTT0A8QGD9JBBTAZLRG9JKLR4Z","A1SOFLJOEQB591","3XUSYT70ITN3RRKBJPNBFGD6FGOD06","","<img src=""img/set1/S2.jpg"" width=""540"" height = ""360"">","null","","","","","","","",""
"null","","html-keyboard-response","82","130134","0.0-11.0","32VNZTT0A8QGD9JBBTAZLRG9JKLR4Z","A1SOFLJOEQB591","3XUSYT70ITN3RRKBJPNBFGD6FGOD06","","","null","","","","","","","",""
"633","","image-keyboard-response","83","130768","0.0-12.0","32VNZTT0A8QGD9JBBTAZLRG9JKLR4Z","A1SOFLJOEQB591","3XUSYT70ITN3RRKBJPNBFGD6FGOD06","","img/set1/S2.jpg","83","2","random","68","false","random,structured_incentive,structured_normal","1,2,2,3","",""
"null","","html-keyboard-response","84","131124","0.0-13.0","32VNZTT0A8QGD9JBBTAZLRG9JKLR4Z","A1SOFLJOEQB591","3XUSYT70ITN3RRKBJPNBFGD6FGOD06","","<img src=""img/set1/S2.jpg"" width=""540"" height = ""360"">","null","","","","","","","",""
"null","","html-keyboard-response","85","131126","0.0-14.0","32VNZTT0A8QGD9JBBTAZLRG9JKLR4Z","A1SOFLJOEQB591","3XUSYT70ITN3RRKBJPNBFGD6FGOD06","","","null","","","","","","","",""
"457.70000000298023","","image-keyboard-response","86","131585","0.0-15.0","32VNZTT0A8QGD9JBBTAZLRG9JKLR4Z","A1SOFLJOEQB591","3XUSYT70ITN3RRKBJPNBFGD6FGOD06","","img/set1/S2.jpg","83","2","random","68","false","random,structured_incentive,structured_normal","1,2,2,3","",""
"null","","html-keyboard-response","87","131940","0.0-16.0","32VNZTT0A8QGD9JBBTAZLRG9JKLR4Z","A1SOFLJOEQB591","3XUSYT70ITN3RRKBJPNBFGD6FGOD06","","<img src=""img/set1/S2.jpg"" width=""540"" height = ""360"">","null","","","","","","","",""
"null","","html-keyboard-response","88","131942","0.0-17.0","32VNZTT0A8QGD9JBBTAZLRG9JKLR4Z","A1SOFLJOEQB591","3XUSYT70ITN3RRKBJPNBFGD6FGOD06","","","null","","","","","","","",""
"361.29999999701977","","image-keyboard-response","89","132305","0.0-18.0","32VNZTT0A8QGD9JBBTAZLRG9JKLR4Z","A1SOFLJOEQB591","3XUSYT70ITN3RRKBJPNBFGD6FGOD06","","img/set1/S2.jpg","83","2","random","68","false","random,structured_incentive,structured_normal","1,2,2,3","",""
"null","","html-keyboard-response","90","132658","0.0-19.0","32VNZTT0A8QGD9JBBTAZLRG9JKLR4Z","A1SOFLJOEQB591","3XUSYT70ITN3RRKBJPNBFGD6FGOD06","","<img src=""img/set1/S2.jpg"" width=""540"" height = ""360"">","null","","","","","","","",""
"null","","html-keyboard-response","91","132661","0.0-20.0","32VNZTT0A8QGD9JBBTAZLRG9JKLR4Z","A1SOFLJOEQB591","3XUSYT70ITN3RRKBJPNBFGD6FGOD06","","","null","","","","","","","",""
"866.6999999880791","","image-keyboard-response","92","133529","0.0-21.0","32VNZTT0A8QGD9JBBTAZLRG9JKLR4Z","A1SOFLJOEQB591","3XUSYT70ITN3RRKBJPNBFGD6FGOD06","","img/set1/S4.jpg","68","4","random","74","false","random,structured_incentive,structured_normal","1,2,2,3","",""
"null","","html-keyboard-response","93","133886","0.0-22.0","32VNZTT0A8QGD9JBBTAZLRG9JKLR4Z","A1SOFLJOEQB591","3XUSYT70ITN3RRKBJPNBFGD6FGOD06","","<img src=""img/set1/S4.jpg"" width=""540"" height = ""360"">","null","","","","","","","",""
"null","","html-keyboard-response","94","133888","0.0-23.0","32VNZTT0A8QGD9JBBTAZLRG9JKLR4Z","A1SOFLJOEQB591","3XUSYT70ITN3RRKBJPNBFGD6FGOD06","","","null","","","","","","","",""
"432.3999999910593","","image-keyboard-response","95","134322","0.0-24.0","32VNZTT0A8QGD9JBBTAZLRG9JKLR4Z","A1SOFLJOEQB591","3XUSYT70ITN3RRKBJPNBFGD6FGOD06","","img/set1/S4.jpg","68","4","random","74","false","random,structured_incentive,structured_normal","1,2,2,3","",""
"null","","html-keyboard-response","96","134677","0.0-25.0","32VNZTT0A8QGD9JBBTAZLRG9JKLR4Z","A1SOFLJOEQB591","3XUSYT70ITN3RRKBJPNBFGD6FGOD06","","<img src=""img/set1/S4.jpg"" width=""540"" height = ""360"">","null","","","","","","","",""
"null","","html-keyboard-response","97","134679","0.0-26.0","32VNZTT0A8QGD9JBBTAZLRG9JKLR4Z","A1SOFLJOEQB591","3XUSYT70ITN3RRKBJPNBFGD6FGOD06","","","null","","","","","","","",""
"1202.2000000029802","","image-keyboard-response","98","135883","0.0-27.0","32VNZTT0A8QGD9JBBTAZLRG9JKLR4Z","A1SOFLJOEQB591","3XUSYT70ITN3RRKBJPNBFGD6FGOD06","","img/set1/S1.jpg","72","1","random","83","false","random,structured_incentive,structured_normal","1,2,2,3","",""
"null","","html-keyboard-response","99","136236","0.0-28.0","32VNZTT0A8QGD9JBBTAZLRG9JKLR4Z","A1SOFLJOEQB591","3XUSYT70ITN3RRKBJPNBFGD6FGOD06","","<img src=""img/set1/S1.jpg"" width=""540"" height = ""360"">","null","","","","","","","",""
"null","","html-keyboard-response","100","136238","0.0-29.0","32VNZTT0A8QGD9JBBTAZLRG9JKLR4Z","A1SOFLJOEQB591","3XUSYT70ITN3RRKBJPNBFGD6FGOD06","","","null","","","","","","","",""
"461.09999999403954","","image-keyboard-response","101","136700","0.0-30.0","32VNZTT0A8QGD9JBBTAZLRG9JKLR4Z","A1SOFLJOEQB591","3XUSYT70ITN3RRKBJPNBFGD6FGOD06","","img/set1/S1.jpg","72","1","random","83","false","random,structured_incentive,structured_normal","1,2,2,3","",""
"null","","html-keyboard-response","102","137057","0.0-31.0","32VNZTT0A8QGD9JBBTAZLRG9JKLR4Z","A1SOFLJOEQB591","3XUSYT70ITN3RRKBJPNBFGD6FGOD06","","<img src=""img/set1/S1.jpg"" width=""540"" height = ""360"">","null","","","","","","","",""
"null","","html-keyboard-response","103","137060","0.0-32.0","32VNZTT0A8QGD9JBBTAZLRG9JKLR4Z","A1SOFLJOEQB591","3XUSYT70ITN3RRKBJPNBFGD6FGOD06","","","null","","","","","","","",""
"708.7000000029802","","image-keyboard-response","104","137770","0.0-33.0","32VNZTT0A8QGD9JBBTAZLRG9JKLR4Z","A1SOFLJOEQB591","3XUSYT70ITN3RRKBJPNBFGD6FGOD06","","img/set1/S2.jpg","83","2","random","68","false","random,structured_incentive,structured_normal","1,2,2,3","",""
"null","","html-keyboard-response","105","138126","0.0-34.0","32VNZTT0A8QGD9JBBTAZLRG9JKLR4Z","A1SOFLJOEQB591","3XUSYT70ITN3RRKBJPNBFGD6FGOD06","","<img src=""img/set1/S2.jpg"" width=""540"" height = ""360"">","null","","","","","","","",""
"null","","html-keyboard-response","106","138128","0.0-35.0","32VNZTT0A8QGD9JBBTAZLRG9JKLR4Z","A1SOFLJOEQB591","3XUSYT70ITN3RRKBJPNBFGD6FGOD06","","","null","","","","","","","",""
"730.2000000029802","","image-keyboard-response","107","138859","0.0-36.0","32VNZTT0A8QGD9JBBTAZLRG9JKLR4Z","A1SOFLJOEQB591","3XUSYT70ITN3RRKBJPNBFGD6FGOD06","","img/set1/S1.jpg","72","1","random","83","false","random,structured_incentive,structured_normal","1,2,2,3","",""
"null","","html-keyboard-response","108","139212","0.0-37.0","32VNZTT0A8QGD9JBBTAZLRG9JKLR4Z","A1SOFLJOEQB591","3XUSYT70ITN3RRKBJPNBFGD6FGOD06","","<img src=""img/set1/S1.jpg"" width=""540"" height = ""360"">","null","","","","","","","",""
"null","","html-keyboard-response","109","139215","0.0-38.0","32VNZTT0A8QGD9JBBTAZLRG9JKLR4Z","A1SOFLJOEQB591","3XUSYT70ITN3RRKBJPNBFGD6FGOD06","","","null","","","","","","","",""
"1062.4000000059605","","image-keyboard-response","110","140278","0.0-39.0","32VNZTT0A8QGD9JBBTAZLRG9JKLR4Z","A1SOFLJOEQB591","3XUSYT70ITN3RRKBJPNBFGD6FGOD06","","img/set1/S3.jpg","74","3","random","72","false","random,structured_incentive,structured_normal","1,2,2,3","",""
"null","","html-keyboard-response","111","140635","0.0-40.0","32VNZTT0A8QGD9JBBTAZLRG9JKLR4Z","A1SOFLJOEQB591","3XUSYT70ITN3RRKBJPNBFGD6FGOD06","","<img src=""img/set1/S3.jpg"" width=""540"" height = ""360"">","null","","","","","","","",""
"null","","html-keyboard-response","112","140637","0.0-41.0","32VNZTT0A8QGD9JBBTAZLRG9JKLR4Z","A1SOFLJOEQB591","3XUSYT70ITN3RRKBJPNBFGD6FGOD06","","","null","","","","","","","",""
"1099","","image-keyboard-response","113","141738","0.0-42.0","32VNZTT0A8QGD9JBBTAZLRG9JKLR4Z","A1SOFLJOEQB591","3XUSYT70ITN3RRKBJPNBFGD6FGOD06","","img/set1/S4.jpg","68","4","random","74","false","random,structured_incentive,structured_normal","1,2,2,3","",""
"null","","html-keyboard-response","114","142094","0.0-43.0","32VNZTT0A8QGD9JBBTAZLRG9JKLR4Z","A1SOFLJOEQB591","3XUSYT70ITN3RRKBJPNBFGD6FGOD06","","<img src=""img/set1/S4.jpg"" width=""540"" height = ""360"">","null","","","","","","","",""
"null","","html-keyboard-response","115","142096","0.0-44.0","32VNZTT0A8QGD9JBBTAZLRG9JKLR4Z","A1SOFLJOEQB591","3XUSYT70ITN3RRKBJPNBFGD6FGOD06","","","null","","","","","","","",""
"795.7999999970198","","image-keyboard-response","116","142893","0.0-45.0","32VNZTT0A8QGD9JBBTAZLRG9JKLR4Z","A1SOFLJOEQB591","3XUSYT70ITN3RRKBJPNBFGD6FGOD06","","img/set1/S3.jpg","68","3","random","72","false","random,structured_incentive,structured_normal","1,2,2,3","",""
"null","","html-keyboard-response","117","143246","0.0-46.0","32VNZTT0A8QGD9JBBTAZLRG9JKLR4Z","A1SOFLJOEQB591","3XUSYT70ITN3RRKBJPNBFGD6FGOD06","","<img src=""img/set1/S3.jpg"" width=""540"" height = ""360"">","null","","","","","","","",""
"null","","html-keyboard-response","118","143248","0.0-47.0","32VNZTT0A8QGD9JBBTAZLRG9JKLR4Z","A1SOFLJOEQB591","3XUSYT70ITN3RRKBJPNBFGD6FGOD06","","","null","","","","","","","",""
"682.1000000089407","","image-keyboard-response","119","143931","0.0-48.0","32VNZTT0A8QGD9JBBTAZLRG9JKLR4Z","A1SOFLJOEQB591","3XUSYT70ITN3RRKBJPNBFGD6FGOD06","","img/set1/S2.jpg","83","2","random","68","false","random,structured_incentive,structured_normal","1,2,2,3","",""
"null","","html-keyboard-response","120","144288","0.0-49.0","32VNZTT0A8QGD9JBBTAZLRG9JKLR4Z","A1SOFLJOEQB591","3XUSYT70ITN3RRKBJPNBFGD6FGOD06","","<img src=""img/set1/S2.jpg"" width=""540"" height = ""360"">","null","","","","","","","",""
"null","","html-keyboard-response","121","144290","0.0-50.0","32VNZTT0A8QGD9JBBTAZLRG9JKLR4Z","A1SOFLJOEQB591","3XUSYT70ITN3RRKBJPNBFGD6FGOD06","","","null","","","","","","","",""
"887.8999999910593","","image-keyboard-response","122","145180","0.0-51.0","32VNZTT0A8QGD9JBBTAZLRG9JKLR4Z","A1SOFLJOEQB591","3XUSYT70ITN3RRKBJPNBFGD6FGOD06","","img/set1/S4.jpg","68","4","random","74","false","random,structured_incentive,structured_normal","1,2,2,3","",""
"null","","html-keyboard-response","123","145531","0.0-52.0","32VNZTT0A8QGD9JBBTAZLRG9JKLR4Z","A1SOFLJOEQB591","3XUSYT70ITN3RRKBJPNBFGD6FGOD06","","<img src=""img/set1/S4.jpg"" width=""540"" height = ""360"">","null","","","","","","","",""
"null","","html-keyboard-response","124","145533","0.0-53.0","32VNZTT0A8QGD9JBBTAZLRG9JKLR4Z","A1SOFLJOEQB591","3XUSYT70ITN3RRKBJPNBFGD6FGOD06","","","null","","","","","","","",""
"899.2999999970198","","image-keyboard-response","125","146434","0.0-54.0","32VNZTT0A8QGD9JBBTAZLRG9JKLR4Z","A1SOFLJOEQB591","3XUSYT70ITN3RRKBJPNBFGD6FGOD06","","img/set1/S3.jpg","74","3","random","72","false","random,structured_incentive,structured_normal","1,2,2,3","",""
"null","","html-keyboard-response","126","146788","0.0-55.0","32VNZTT0A8QGD9JBBTAZLRG9JKLR4Z","A1SOFLJOEQB591","3XUSYT70ITN3RRKBJPNBFGD6FGOD06","","<img src=""img/set1/S3.jpg"" width=""540"" height = ""360"">","null","","","","","","","",""
"null","","html-keyboard-response","127","146790","0.0-56.0","32VNZTT0A8QGD9JBBTAZLRG9JKLR4Z","A1SOFLJOEQB591","3XUSYT70ITN3RRKBJPNBFGD6FGOD06","","","null","","","","","","","",""
"720.4000000059605","","image-keyboard-response","128","147512","0.0-57.0","32VNZTT0A8QGD9JBBTAZLRG9JKLR4Z","A1SOFLJOEQB591","3XUSYT70ITN3RRKBJPNBFGD6FGOD06","","img/set1/S2.jpg","83","2","random","68","false","random,structured_incentive,structured_normal","1,2,2,3","",""
"null","","html-keyboard-response","129","147869","0.0-58.0","32VNZTT0A8QGD9JBBTAZLRG9JKLR4Z","A1SOFLJOEQB591","3XUSYT70ITN3RRKBJPNBFGD6FGOD06","","<img src=""img/set1/S2.jpg"" width=""540"" height = ""360"">","null","","","","","","","",""
"null","","html-keyboard-response","130","147871","0.0-59.0","32VNZTT0A8QGD9JBBTAZLRG9JKLR4Z","A1SOFLJOEQB591","3XUSYT70ITN3RRKBJPNBFGD6FGOD06","","","null","","","","","","","",""
"751.5","","image-keyboard-response","131","148624","0.0-60.0","32VNZTT0A8QGD9JBBTAZLRG9JKLR4Z","A1SOFLJOEQB591","3XUSYT70ITN3RRKBJPNBFGD6FGOD06","","img/set1/S1.jpg","72","1","random","83","false","random,structured_incentive,structured_normal","1,2,2,3","",""
"null","","html-keyboard-response","132","148976","0.0-61.0","32VNZTT0A8QGD9JBBTAZLRG9JKLR4Z","A1SOFLJOEQB591","3XUSYT70ITN3RRKBJPNBFGD6FGOD06","","<img src=""img/set1/S1.jpg"" width=""540"" height = ""360"">","null","","","","","","","",""
"null","","html-keyboard-response","133","148978","0.0-62.0","32VNZTT0A8QGD9JBBTAZLRG9JKLR4Z","A1SOFLJOEQB591","3XUSYT70ITN3RRKBJPNBFGD6FGOD06","","","null","","","","","","","",""
"1028.0999999940395","","image-keyboard-response","134","150007","0.0-63.0","32VNZTT0A8QGD9JBBTAZLRG9JKLR4Z","A1SOFLJOEQB591","3XUSYT70ITN3RRKBJPNBFGD6FGOD06","","img/set1/S3.jpg","68","3","random","72","false","random,structured_incentive,structured_normal","1,2,2,3","",""
"null","","html-keyboard-response","135","150364","0.0-64.0","32VNZTT0A8QGD9JBBTAZLRG9JKLR4Z","A1SOFLJOEQB591","3XUSYT70ITN3RRKBJPNBFGD6FGOD06","","<img src=""img/set1/S3.jpg"" width=""540"" height = ""360"">","null","","","","","","","",""
"null","","html-keyboard-response","136","150367","0.0-65.0","32VNZTT0A8QGD9JBBTAZLRG9JKLR4Z","A1SOFLJOEQB591","3XUSYT70ITN3RRKBJPNBFGD6FGOD06","","","null","","","","","","","",""
"636.7999999970198","","image-keyboard-response","137","151005","0.0-66.0","32VNZTT0A8QGD9JBBTAZLRG9JKLR4Z","A1SOFLJOEQB591","3XUSYT70ITN3RRKBJPNBFGD6FGOD06","","img/set1/S3.jpg","68","3","random","72","false","random,structured_incentive,structured_normal","1,2,2,3","",""
"null","","html-keyboard-response","138","151362","0.0-67.0","32VNZTT0A8QGD9JBBTAZLRG9JKLR4Z","A1SOFLJOEQB591","3XUSYT70ITN3RRKBJPNBFGD6FGOD06","","<img src=""img/set1/S3.jpg"" width=""540"" height = ""360"">","null","","","","","","","",""
"null","","html-keyboard-response","139","151364","0.0-68.0","32VNZTT0A8QGD9JBBTAZLRG9JKLR4Z","A1SOFLJOEQB591","3XUSYT70ITN3RRKBJPNBFGD6FGOD06","","","null","","","","","","","",""
"468.70000000298023","","image-keyboard-response","140","151834","0.0-69.0","32VNZTT0A8QGD9JBBTAZLRG9JKLR4Z","A1SOFLJOEQB591","3XUSYT70ITN3RRKBJPNBFGD6FGOD06","","img/set1/S3.jpg","68","3","random","72","false","random,structured_incentive,structured_normal","1,2,2,3","",""
"null","","html-keyboard-response","141","152189","0.0-70.0","32VNZTT0A8QGD9JBBTAZLRG9JKLR4Z","A1SOFLJOEQB591","3XUSYT70ITN3RRKBJPNBFGD6FGOD06","","<img src=""img/set1/S3.jpg"" width=""540"" height = ""360"">","null","","","","","","","",""
"null","","html-keyboard-response","142","152191","0.0-71.0","32VNZTT0A8QGD9JBBTAZLRG9JKLR4Z","A1SOFLJOEQB591","3XUSYT70ITN3RRKBJPNBFGD6FGOD06","","","null","","","","","","","",""
"912.5","","image-keyboard-response","143","153105","0.0-72.0","32VNZTT0A8QGD9JBBTAZLRG9JKLR4Z","A1SOFLJOEQB591","3XUSYT70ITN3RRKBJPNBFGD6FGOD06","","img/set1/S1.jpg","72","1","random","83","false","random,structured_incentive,structured_normal","1,2,2,3","",""
"null","","html-keyboard-response","144","153462","0.0-73.0","32VNZTT0A8QGD9JBBTAZLRG9JKLR4Z","A1SOFLJOEQB591","3XUSYT70ITN3RRKBJPNBFGD6FGOD06","","<img src=""img/set1/S1.jpg"" width=""540"" height = ""360"">","null","","","","","","","",""
"null","","html-keyboard-response","145","153464","0.0-74.0","32VNZTT0A8QGD9JBBTAZLRG9JKLR4Z","A1SOFLJOEQB591","3XUSYT70ITN3RRKBJPNBFGD6FGOD06","","","null","","","","","","","",""
"617.2000000029802","","image-keyboard-response","146","154083","0.0-75.0","32VNZTT0A8QGD9JBBTAZLRG9JKLR4Z","A1SOFLJOEQB591","3XUSYT70ITN3RRKBJPNBFGD6FGOD06","","img/set1/S2.jpg","83","2","random","68","false","random,structured_incentive,structured_normal","1,2,2,3","",""
"null","","html-keyboard-response","147","154440","0.0-76.0","32VNZTT0A8QGD9JBBTAZLRG9JKLR4Z","A1SOFLJOEQB591","3XUSYT70ITN3RRKBJPNBFGD6FGOD06","","<img src=""img/set1/S2.jpg"" width=""540"" height = ""360"">","null","","","","","","","",""
"null","","html-keyboard-response","148","154442","0.0-77.0","32VNZTT0A8QGD9JBBTAZLRG9JKLR4Z","A1SOFLJOEQB591","3XUSYT70ITN3RRKBJPNBFGD6FGOD06","","","null","","","","","","","",""
"1071.4000000059605","","image-keyboard-response","149","155516","0.0-78.0","32VNZTT0A8QGD9JBBTAZLRG9JKLR4Z","A1SOFLJOEQB591","3XUSYT70ITN3RRKBJPNBFGD6FGOD06","","img/set1/S3.jpg","72","3","random","72","true","random,structured_incentive,structured_normal","1,2,2,3","",""
"null","","html-keyboard-response","150","155873","0.0-79.0","32VNZTT0A8QGD9JBBTAZLRG9JKLR4Z","A1SOFLJOEQB591","3XUSYT70ITN3RRKBJPNBFGD6FGOD06","","<img src=""img/set1/S3.jpg"" width=""540"" height = ""360"" style=""border:16px solid orange"">","null","","","","","","","",""
"null","","html-keyboard-response","151","155875","0.0-80.0","32VNZTT0A8QGD9JBBTAZLRG9JKLR4Z","A1SOFLJOEQB591","3XUSYT70ITN3RRKBJPNBFGD6FGOD06","","","null","","","","","","","",""
"1210.199999988079","","image-keyboard-response","152","157087","0.0-81.0","32VNZTT0A8QGD9JBBTAZLRG9JKLR4Z","A1SOFLJOEQB591","3XUSYT70ITN3RRKBJPNBFGD6FGOD06","","img/set1/S4.jpg","68","4","random","74","false","random,structured_incentive,structured_normal","1,2,2,3","",""
"null","","html-keyboard-response","153","157439","0.0-82.0","32VNZTT0A8QGD9JBBTAZLRG9JKLR4Z","A1SOFLJOEQB591","3XUSYT70ITN3RRKBJPNBFGD6FGOD06","","<img src=""img/set1/S4.jpg"" width=""540"" height = ""360"">","null","","","","","","","",""
"null","","html-keyboard-response","154","157441","0.0-83.0","32VNZTT0A8QGD9JBBTAZLRG9JKLR4Z","A1SOFLJOEQB591","3XUSYT70ITN3RRKBJPNBFGD6FGOD06","","","null","","","","","","","",""
"883","","image-keyboard-response","155","158326","0.0-84.0","32VNZTT0A8QGD9JBBTAZLRG9JKLR4Z","A1SOFLJOEQB591","3XUSYT70ITN3RRKBJPNBFGD6FGOD06","","img/set1/S3.jpg","72","3","random","72","true","random,structured_incentive,structured_normal","1,2,2,3","",""
"null","","html-keyboard-response","156","158684","0.0-85.0","32VNZTT0A8QGD9JBBTAZLRG9JKLR4Z","A1SOFLJOEQB591","3XUSYT70ITN3RRKBJPNBFGD6FGOD06","","<img src=""img/set1/S3.jpg"" width=""540"" height = ""360"" style=""border:16px solid orange"">","null","","","","","","","",""
"null","","html-keyboard-response","157","158686","0.0-86.0","32VNZTT0A8QGD9JBBTAZLRG9JKLR4Z","A1SOFLJOEQB591","3XUSYT70ITN3RRKBJPNBFGD6FGOD06","","","null","","","","","","","",""
"903.7999999970198","","image-keyboard-response","158","159591","0.0-87.0","32VNZTT0A8QGD9JBBTAZLRG9JKLR4Z","A1SOFLJOEQB591","3XUSYT70ITN3RRKBJPNBFGD6FGOD06","","img/set1/S2.jpg","83","2","random","68","false","random,structured_incentive,structured_normal","1,2,2,3","",""
"null","","html-keyboard-response","159","159944","0.0-88.0","32VNZTT0A8QGD9JBBTAZLRG9JKLR4Z","A1SOFLJOEQB591","3XUSYT70ITN3RRKBJPNBFGD6FGOD06","","<img src=""img/set1/S2.jpg"" width=""540"" height = ""360"">","null","","","","","","","",""
"null","","html-keyboard-response","160","159946","0.0-89.0","32VNZTT0A8QGD9JBBTAZLRG9JKLR4Z","A1SOFLJOEQB591","3XUSYT70ITN3RRKBJPNBFGD6FGOD06","","","null","","","","","","","",""
"752.5999999940395","","image-keyboard-response","161","160700","0.0-90.0","32VNZTT0A8QGD9JBBTAZLRG9JKLR4Z","A1SOFLJOEQB591","3XUSYT70ITN3RRKBJPNBFGD6FGOD06","","img/set1/S2.jpg","83","2","random","68","false","random,structured_incentive,structured_normal","1,2,2,3","",""
"null","","html-keyboard-response","162","161056","0.0-91.0","32VNZTT0A8QGD9JBBTAZLRG9JKLR4Z","A1SOFLJOEQB591","3XUSYT70ITN3RRKBJPNBFGD6FGOD06","","<img src=""img/set1/S2.jpg"" width=""540"" height = ""360"">","null","","","","","","","",""
"null","","html-keyboard-response","163","161058","0.0-92.0","32VNZTT0A8QGD9JBBTAZLRG9JKLR4Z","A1SOFLJOEQB591","3XUSYT70ITN3RRKBJPNBFGD6FGOD06","","","null","","","","","","","",""
"957.2999999970198","","image-keyboard-response","164","162017","0.0-93.0","32VNZTT0A8QGD9JBBTAZLRG9JKLR4Z","A1SOFLJOEQB591","3XUSYT70ITN3RRKBJPNBFGD6FGOD06","","img/set1/S1.jpg","68","1","random","83","false","random,structured_incentive,structured_normal","1,2,2,3","",""
"null","","html-keyboard-response","165","162372","0.0-94.0","32VNZTT0A8QGD9JBBTAZLRG9JKLR4Z","A1SOFLJOEQB591","3XUSYT70ITN3RRKBJPNBFGD6FGOD06","","<img src=""img/set1/S1.jpg"" width=""540"" height = ""360"">","null","","","","","","","",""
"null","","html-keyboard-response","166","162374","0.0-95.0","32VNZTT0A8QGD9JBBTAZLRG9JKLR4Z","A1SOFLJOEQB591","3XUSYT70ITN3RRKBJPNBFGD6FGOD06","","","null","","","","","","","",""
"926.3999999910593","","image-keyboard-response","167","163301","0.0-96.0","32VNZTT0A8QGD9JBBTAZLRG9JKLR4Z","A1SOFLJOEQB591","3XUSYT70ITN3RRKBJPNBFGD6FGOD06","","img/set1/S3.jpg","68","3","random","72","false","random,structured_incentive,structured_normal","1,2,2,3","",""
"null","","html-keyboard-response","168","163659","0.0-97.0","32VNZTT0A8QGD9JBBTAZLRG9JKLR4Z","A1SOFLJOEQB591","3XUSYT70ITN3RRKBJPNBFGD6FGOD06","","<img src=""img/set1/S3.jpg"" width=""540"" height = ""360"">","null","","","","","","","",""
"null","","html-keyboard-response","169","163661","0.0-98.0","32VNZTT0A8QGD9JBBTAZLRG9JKLR4Z","A1SOFLJOEQB591","3XUSYT70ITN3RRKBJPNBFGD6FGOD06","","","null","","","","","","","",""
"1021.4000000059605","","image-keyboard-response","170","164684","0.0-99.0","32VNZTT0A8QGD9JBBTAZLRG9JKLR4Z","A1SOFLJOEQB591","3XUSYT70ITN3RRKBJPNBFGD6FGOD06","","img/set1/S4.jpg","68","4","random","74","false","random,structured_incentive,structured_normal","1,2,2,3","",""
"null","","html-keyboard-response","171","165041","0.0-100.0","32VNZTT0A8QGD9JBBTAZLRG9JKLR4Z","A1SOFLJOEQB591","3XUSYT70ITN3RRKBJPNBFGD6FGOD06","","<img src=""img/set1/S4.jpg"" width=""540"" height = ""360"">","null","","","","","","","",""
"null","","html-keyboard-response","172","165043","0.0-101.0","32VNZTT0A8QGD9JBBTAZLRG9JKLR4Z","A1SOFLJOEQB591","3XUSYT70ITN3RRKBJPNBFGD6FGOD06","","","null","","","","","","","",""
"541.5","","image-keyboard-response","173","165586","0.0-102.0","32VNZTT0A8QGD9JBBTAZLRG9JKLR4Z","A1SOFLJOEQB591","3XUSYT70ITN3RRKBJPNBFGD6FGOD06","","img/set1/S3.jpg","72","3","random","72","true","random,structured_incentive,structured_normal","1,2,2,3","",""
"null","","html-keyboard-response","174","165939","0.0-103.0","32VNZTT0A8QGD9JBBTAZLRG9JKLR4Z","A1SOFLJOEQB591","3XUSYT70ITN3RRKBJPNBFGD6FGOD06","","<img src=""img/set1/S3.jpg"" width=""540"" height = ""360"" style=""border:16px solid orange"">","null","","","","","","","",""
"null","","html-keyboard-response","175","165941","0.0-104.0","32VNZTT0A8QGD9JBBTAZLRG9JKLR4Z","A1SOFLJOEQB591","3XUSYT70ITN3RRKBJPNBFGD6FGOD06","","","null","","","","","","","",""
"742.5","","image-keyboard-response","176","166685","0.0-105.0","32VNZTT0A8QGD9JBBTAZLRG9JKLR4Z","A1SOFLJOEQB591","3XUSYT70ITN3RRKBJPNBFGD6FGOD06","","img/set1/S2.jpg","83","2","random","68","false","random,structured_incentive,structured_normal","1,2,2,3","",""
"null","","html-keyboard-response","177","167039","0.0-106.0","32VNZTT0A8QGD9JBBTAZLRG9JKLR4Z","A1SOFLJOEQB591","3XUSYT70ITN3RRKBJPNBFGD6FGOD06","","<img src=""img/set1/S2.jpg"" width=""540"" height = ""360"">","null","","","","","","","",""
"null","","html-keyboard-response","178","167041","0.0-107.0","32VNZTT0A8QGD9JBBTAZLRG9JKLR4Z","A1SOFLJOEQB591","3XUSYT70ITN3RRKBJPNBFGD6FGOD06","","","null","","","","","","","",""
"787.5","","image-keyboard-response","179","167830","0.0-108.0","32VNZTT0A8QGD9JBBTAZLRG9JKLR4Z","A1SOFLJOEQB591","3XUSYT70ITN3RRKBJPNBFGD6FGOD06","","img/set1/S4.jpg","68","4","random","74","false","random,structured_incentive,structured_normal","1,2,2,3","",""
"null","","html-keyboard-response","180","168187","0.0-109.0","32VNZTT0A8QGD9JBBTAZLRG9JKLR4Z","A1SOFLJOEQB591","3XUSYT70ITN3RRKBJPNBFGD6FGOD06","","<img src=""img/set1/S4.jpg"" width=""540"" height = ""360"">","null","","","","","","","",""
"null","","html-keyboard-response","181","168189","0.0-110.0","32VNZTT0A8QGD9JBBTAZLRG9JKLR4Z","A1SOFLJOEQB591","3XUSYT70ITN3RRKBJPNBFGD6FGOD06","","","null","","","","","","","",""
"593.4000000059605","","image-keyboard-response","182","168783","0.0-111.0","32VNZTT0A8QGD9JBBTAZLRG9JKLR4Z","A1SOFLJOEQB591","3XUSYT70ITN3RRKBJPNBFGD6FGOD06","","img/set1/S4.jpg","68","4","random","74","false","random,structured_incentive,structured_normal","1,2,2,3","",""
"null","","html-keyboard-response","183","169139","0.0-112.0","32VNZTT0A8QGD9JBBTAZLRG9JKLR4Z","A1SOFLJOEQB591","3XUSYT70ITN3RRKBJPNBFGD6FGOD06","","<img src=""img/set1/S4.jpg"" width=""540"" height = ""360"">","null","","","","","","","",""
"null","","html-keyboard-response","184","169141","0.0-113.0","32VNZTT0A8QGD9JBBTAZLRG9JKLR4Z","A1SOFLJOEQB591","3XUSYT70ITN3RRKBJPNBFGD6FGOD06","","","null","","","","","","","",""
"642.0999999940395","","image-keyboard-response","185","169784","0.0-114.0","32VNZTT0A8QGD9JBBTAZLRG9JKLR4Z","A1SOFLJOEQB591","3XUSYT70ITN3RRKBJPNBFGD6FGOD06","","img/set1/S1.jpg","72","1","random","83","false","random,structured_incentive,structured_normal","1,2,2,3","",""
"null","","html-keyboard-response","186","170141","0.0-115.0","32VNZTT0A8QGD9JBBTAZLRG9JKLR4Z","A1SOFLJOEQB591","3XUSYT70ITN3RRKBJPNBFGD6FGOD06","","<img src=""img/set1/S1.jpg"" width=""540"" height = ""360"">","null","","","","","","","",""
"null","","html-keyboard-response","187","170143","0.0-116.0","32VNZTT0A8QGD9JBBTAZLRG9JKLR4Z","A1SOFLJOEQB591","3XUSYT70ITN3RRKBJPNBFGD6FGOD06","","","null","","","","","","","",""
"1182.0999999940395","","image-keyboard-response","188","171327","0.0-117.0","32VNZTT0A8QGD9JBBTAZLRG9JKLR4Z","A1SOFLJOEQB591","3XUSYT70ITN3RRKBJPNBFGD6FGOD06","","img/set1/S4.jpg","68","4","random","74","false","random,structured_incentive,structured_normal","1,2,2,3","",""
"null","","html-keyboard-response","189","171684","0.0-118.0","32VNZTT0A8QGD9JBBTAZLRG9JKLR4Z","A1SOFLJOEQB591","3XUSYT70ITN3RRKBJPNBFGD6FGOD06","","<img src=""img/set1/S4.jpg"" width=""540"" height = ""360"">","null","","","","","","","",""
"null","","html-keyboard-response","190","171686","0.0-119.0","32VNZTT0A8QGD9JBBTAZLRG9JKLR4Z","A1SOFLJOEQB591","3XUSYT70ITN3RRKBJPNBFGD6FGOD06","","","null","","","","","","","",""
"798.8999999910593","","image-keyboard-response","191","172486","0.0-120.0","32VNZTT0A8QGD9JBBTAZLRG9JKLR4Z","A1SOFLJOEQB591","3XUSYT70ITN3RRKBJPNBFGD6FGOD06","","img/set1/S2.jpg","83","2","random","68","false","random,structured_incentive,structured_normal","1,2,2,3","",""
"null","","html-keyboard-response","192","172841","0.0-121.0","32VNZTT0A8QGD9JBBTAZLRG9JKLR4Z","A1SOFLJOEQB591","3XUSYT70ITN3RRKBJPNBFGD6FGOD06","","<img src=""img/set1/S2.jpg"" width=""540"" height = ""360"">","null","","","","","","","",""
"null","","html-keyboard-response","193","172843","0.0-122.0","32VNZTT0A8QGD9JBBTAZLRG9JKLR4Z","A1SOFLJOEQB591","3XUSYT70ITN3RRKBJPNBFGD6FGOD06","","","null","","","","","","","",""
"435.79999999701977","","image-keyboard-response","194","173280","0.0-123.0","32VNZTT0A8QGD9JBBTAZLRG9JKLR4Z","A1SOFLJOEQB591","3XUSYT70ITN3RRKBJPNBFGD6FGOD06","","img/set1/S2.jpg","83","2","random","68","false","random,structured_incentive,structured_normal","1,2,2,3","",""
"null","","html-keyboard-response","195","173637","0.0-124.0","32VNZTT0A8QGD9JBBTAZLRG9JKLR4Z","A1SOFLJOEQB591","3XUSYT70ITN3RRKBJPNBFGD6FGOD06","","<img src=""img/set1/S2.jpg"" width=""540"" height = ""360"">","null","","","","","","","",""
"null","","html-keyboard-response","196","173639","0.0-125.0","32VNZTT0A8QGD9JBBTAZLRG9JKLR4Z","A1SOFLJOEQB591","3XUSYT70ITN3RRKBJPNBFGD6FGOD06","","","null","","","","","","","",""
"727.7999999970198","","image-keyboard-response","197","174368","0.0-126.0","32VNZTT0A8QGD9JBBTAZLRG9JKLR4Z","A1SOFLJOEQB591","3XUSYT70ITN3RRKBJPNBFGD6FGOD06","","img/set1/S4.jpg","72","4","random","74","false","random,structured_incentive,structured_normal","1,2,2,3","",""
"null","","html-keyboard-response","198","174720","0.0-127.0","32VNZTT0A8QGD9JBBTAZLRG9JKLR4Z","A1SOFLJOEQB591","3XUSYT70ITN3RRKBJPNBFGD6FGOD06","","<img src=""img/set1/S4.jpg"" width=""540"" height = ""360"">","null","","","","","","","",""
"null","","html-keyboard-response","199","174728","0.0-128.0","32VNZTT0A8QGD9JBBTAZLRG9JKLR4Z","A1SOFLJOEQB591","3XUSYT70ITN3RRKBJPNBFGD6FGOD06","","","null","","","","","","","",""
"895","","image-keyboard-response","200","175624","0.0-129.0","32VNZTT0A8QGD9JBBTAZLRG9JKLR4Z","A1SOFLJOEQB591","3XUSYT70ITN3RRKBJPNBFGD6FGOD06","","img/set1/S3.jpg","72","3","random","72","true","random,structured_incentive,structured_normal","1,2,2,3","",""
"null","","html-keyboard-response","201","175978","0.0-130.0","32VNZTT0A8QGD9JBBTAZLRG9JKLR4Z","A1SOFLJOEQB591","3XUSYT70ITN3RRKBJPNBFGD6FGOD06","","<img src=""img/set1/S3.jpg"" width=""540"" height = ""360"" style=""border:16px solid orange"">","null","","","","","","","",""
"null","","html-keyboard-response","202","175981","0.0-131.0","32VNZTT0A8QGD9JBBTAZLRG9JKLR4Z","A1SOFLJOEQB591","3XUSYT70ITN3RRKBJPNBFGD6FGOD06","","","null","","","","","","","",""
"961.5","","image-keyboard-response","203","176943","0.0-132.0","32VNZTT0A8QGD9JBBTAZLRG9JKLR4Z","A1SOFLJOEQB591","3XUSYT70ITN3RRKBJPNBFGD6FGOD06","","img/set1/S4.jpg","68","4","random","74","false","random,structured_incentive,structured_normal","1,2,2,3","",""
"null","","html-keyboard-response","204","177300","0.0-133.0","32VNZTT0A8QGD9JBBTAZLRG9JKLR4Z","A1SOFLJOEQB591","3XUSYT70ITN3RRKBJPNBFGD6FGOD06","","<img src=""img/set1/S4.jpg"" width=""540"" height = ""360"">","null","","","","","","","",""
"null","","html-keyboard-response","205","177302","0.0-134.0","32VNZTT0A8QGD9JBBTAZLRG9JKLR4Z","A1SOFLJOEQB591","3XUSYT70ITN3RRKBJPNBFGD6FGOD06","","","null","","","","","","","",""
"415.5","","image-keyboard-response","206","177719","0.0-135.0","32VNZTT0A8QGD9JBBTAZLRG9JKLR4Z","A1SOFLJOEQB591","3XUSYT70ITN3RRKBJPNBFGD6FGOD06","","img/set1/S4.jpg","68","4","random","74","false","random,structured_incentive,structured_normal","1,2,2,3","",""
"null","","html-keyboard-response","207","178076","0.0-136.0","32VNZTT0A8QGD9JBBTAZLRG9JKLR4Z","A1SOFLJOEQB591","3XUSYT70ITN3RRKBJPNBFGD6FGOD06","","<img src=""img/set1/S4.jpg"" width=""540"" height = ""360"">","null","","","","","","","",""
"null","","html-keyboard-response","208","178078","0.0-137.0","32VNZTT0A8QGD9JBBTAZLRG9JKLR4Z","A1SOFLJOEQB591","3XUSYT70ITN3RRKBJPNBFGD6FGOD06","","","null","","","","","","","",""
"1058.300000011921","","image-keyboard-response","209","179137","0.0-138.0","32VNZTT0A8QGD9JBBTAZLRG9JKLR4Z","A1SOFLJOEQB591","3XUSYT70ITN3RRKBJPNBFGD6FGOD06","","img/set1/S1.jpg","74","1","random","83","false","random,structured_incentive,structured_normal","1,2,2,3","",""
"null","","html-keyboard-response","210","179492","0.0-139.0","32VNZTT0A8QGD9JBBTAZLRG9JKLR4Z","A1SOFLJOEQB591","3XUSYT70ITN3RRKBJPNBFGD6FGOD06","","<img src=""img/set1/S1.jpg"" width=""540"" height = ""360"">","null","","","","","","","",""
"null","","html-keyboard-response","211","179494","0.0-140.0","32VNZTT0A8QGD9JBBTAZLRG9JKLR4Z","A1SOFLJOEQB591","3XUSYT70ITN3RRKBJPNBFGD6FGOD06","","","null","","","","","","","",""
"693.2000000029802","","image-keyboard-response","212","180189","0.0-141.0","32VNZTT0A8QGD9JBBTAZLRG9JKLR4Z","A1SOFLJOEQB591","3XUSYT70ITN3RRKBJPNBFGD6FGOD06","","img/set1/S2.jpg","83","2","random","68","false","random,structured_incentive,structured_normal","1,2,2,3","",""
"null","","html-keyboard-response","213","180545","0.0-142.0","32VNZTT0A8QGD9JBBTAZLRG9JKLR4Z","A1SOFLJOEQB591","3XUSYT70ITN3RRKBJPNBFGD6FGOD06","","<img src=""img/set1/S2.jpg"" width=""540"" height = ""360"">","null","","","","","","","",""
"null","","html-keyboard-response","214","180547","0.0-143.0","32VNZTT0A8QGD9JBBTAZLRG9JKLR4Z","A1SOFLJOEQB591","3XUSYT70ITN3RRKBJPNBFGD6FGOD06","","","null","","","","","","","",""
"1248","","image-keyboard-response","215","181796","0.0-144.0","32VNZTT0A8QGD9JBBTAZLRG9JKLR4Z","A1SOFLJOEQB591","3XUSYT70ITN3RRKBJPNBFGD6FGOD06","","img/set1/S3.jpg","68","3","random","72","false","random,structured_incentive,structured_normal","1,2,2,3","",""
"null","","html-keyboard-response","216","182154","0.0-145.0","32VNZTT0A8QGD9JBBTAZLRG9JKLR4Z","A1SOFLJOEQB591","3XUSYT70ITN3RRKBJPNBFGD6FGOD06","","<img src=""img/set1/S3.jpg"" width=""540"" height = ""360"">","null","","","","","","","",""
"null","","html-keyboard-response","217","182156","0.0-146.0","32VNZTT0A8QGD9JBBTAZLRG9JKLR4Z","A1SOFLJOEQB591","3XUSYT70ITN3RRKBJPNBFGD6FGOD06","","","null","","","","","","","",""
"479.40000000596046","","image-keyboard-response","218","182637","0.0-147.0","32VNZTT0A8QGD9JBBTAZLRG9JKLR4Z","A1SOFLJOEQB591","3XUSYT70ITN3RRKBJPNBFGD6FGOD06","","img/set1/S3.jpg","68","3","random","72","false","random,structured_incentive,structured_normal","1,2,2,3","",""
"null","","html-keyboard-response","219","182989","0.0-148.0","32VNZTT0A8QGD9JBBTAZLRG9JKLR4Z","A1SOFLJOEQB591","3XUSYT70ITN3RRKBJPNBFGD6FGOD06","","<img src=""img/set1/S3.jpg"" width=""540"" height = ""360"">","null","","","","","","","",""
"null","","html-keyboard-response","220","182992","0.0-149.0","32VNZTT0A8QGD9JBBTAZLRG9JKLR4Z","A1SOFLJOEQB591","3XUSYT70ITN3RRKBJPNBFGD6FGOD06","","","null","","","","","","","",""
"681.6999999880791","","image-keyboard-response","221","183674","0.0-150.0","32VNZTT0A8QGD9JBBTAZLRG9JKLR4Z","A1SOFLJOEQB591","3XUSYT70ITN3RRKBJPNBFGD6FGOD06","","img/set1/S2.jpg","83","2","random","68","false","random,structured_incentive,structured_normal","1,2,2,3","",""
"null","","html-keyboard-response","222","184031","0.0-151.0","32VNZTT0A8QGD9JBBTAZLRG9JKLR4Z","A1SOFLJOEQB591","3XUSYT70ITN3RRKBJPNBFGD6FGOD06","","<img src=""img/set1/S2.jpg"" width=""540"" height = ""360"">","null","","","","","","","",""
"null","","html-keyboard-response","223","184033","0.0-152.0","32VNZTT0A8QGD9JBBTAZLRG9JKLR4Z","A1SOFLJOEQB591","3XUSYT70ITN3RRKBJPNBFGD6FGOD06","","","null","","","","","","","",""
"964.4000000059605","","image-keyboard-response","224","184999","0.0-153.0","32VNZTT0A8QGD9JBBTAZLRG9JKLR4Z","A1SOFLJOEQB591","3XUSYT70ITN3RRKBJPNBFGD6FGOD06","","img/set1/S1.jpg","74","1","random","83","false","random,structured_incentive,structured_normal","1,2,2,3","",""
"null","","html-keyboard-response","225","185356","0.0-154.0","32VNZTT0A8QGD9JBBTAZLRG9JKLR4Z","A1SOFLJOEQB591","3XUSYT70ITN3RRKBJPNBFGD6FGOD06","","<img src=""img/set1/S1.jpg"" width=""540"" height = ""360"">","null","","","","","","","",""
"null","","html-keyboard-response","226","185358","0.0-155.0","32VNZTT0A8QGD9JBBTAZLRG9JKLR4Z","A1SOFLJOEQB591","3XUSYT70ITN3RRKBJPNBFGD6FGOD06","","","null","","","","","","","",""
"851.2999999970198","","image-keyboard-response","227","186211","0.0-156.0","32VNZTT0A8QGD9JBBTAZLRG9JKLR4Z","A1SOFLJOEQB591","3XUSYT70ITN3RRKBJPNBFGD6FGOD06","","img/set1/S4.jpg","68","4","random","74","false","random,structured_incentive,structured_normal","1,2,2,3","",""
"null","","html-keyboard-response","228","186565","0.0-157.0","32VNZTT0A8QGD9JBBTAZLRG9JKLR4Z","A1SOFLJOEQB591","3XUSYT70ITN3RRKBJPNBFGD6FGOD06","","<img src=""img/set1/S4.jpg"" width=""540"" height = ""360"">","null","","","","","","","",""
"null","","html-keyboard-response","229","186568","0.0-158.0","32VNZTT0A8QGD9JBBTAZLRG9JKLR4Z","A1SOFLJOEQB591","3XUSYT70ITN3RRKBJPNBFGD6FGOD06","","","null","","","","","","","",""
"704.1999999880791","","image-keyboard-response","230","187275","0.0-159.0","32VNZTT0A8QGD9JBBTAZLRG9JKLR4Z","A1SOFLJOEQB591","3XUSYT70ITN3RRKBJPNBFGD6FGOD06","","img/set1/S1.jpg","83","1","random","83","true","random,structured_incentive,structured_normal","1,2,2,3","",""
"null","","html-keyboard-response","231","187628","0.0-160.0","32VNZTT0A8QGD9JBBTAZLRG9JKLR4Z","A1SOFLJOEQB591","3XUSYT70ITN3RRKBJPNBFGD6FGOD06","","<img src=""img/set1/S1.jpg"" width=""540"" height = ""360"" style=""border:16px solid orange"">","null","","","","","","","",""
"null","","html-keyboard-response","232","187630","0.0-161.0","32VNZTT0A8QGD9JBBTAZLRG9JKLR4Z","A1SOFLJOEQB591","3XUSYT70ITN3RRKBJPNBFGD6FGOD06","","","null","","","","","","","",""
"1616.1000000089407","","image-keyboard-response","233","189248","0.0-162.0","32VNZTT0A8QGD9JBBTAZLRG9JKLR4Z","A1SOFLJOEQB591","3XUSYT70ITN3RRKBJPNBFGD6FGOD06","","img/set1/S2.jpg","83","2","random","68","false","random,structured_incentive,structured_normal","1,2,2,3","",""
"null","","html-keyboard-response","234","189601","0.0-163.0","32VNZTT0A8QGD9JBBTAZLRG9JKLR4Z","A1SOFLJOEQB591","3XUSYT70ITN3RRKBJPNBFGD6FGOD06","","<img src=""img/set1/S2.jpg"" width=""540"" height = ""360"">","null","","","","","","","",""
"null","","html-keyboard-response","235","189603","0.0-164.0","32VNZTT0A8QGD9JBBTAZLRG9JKLR4Z","A1SOFLJOEQB591","3XUSYT70ITN3RRKBJPNBFGD6FGOD06","","","null","","","","","","","",""
"1253.4000000059605","","image-keyboard-response","236","190858","0.0-165.0","32VNZTT0A8QGD9JBBTAZLRG9JKLR4Z","A1SOFLJOEQB591","3XUSYT70ITN3RRKBJPNBFGD6FGOD06","","img/set1/S2.jpg","68","2","random","68","true","random,structured_incentive,structured_normal","1,2,2,3","",""
"null","","html-keyboard-response","237","191210","0.0-166.0","32VNZTT0A8QGD9JBBTAZLRG9JKLR4Z","A1SOFLJOEQB591","3XUSYT70ITN3RRKBJPNBFGD6FGOD06","","<img src=""img/set1/S2.jpg"" width=""540"" height = ""360"" style=""border:16px solid orange"">","null","","","","","","","",""
"null","","html-keyboard-response","238","191212","0.0-167.0","32VNZTT0A8QGD9JBBTAZLRG9JKLR4Z","A1SOFLJOEQB591","3XUSYT70ITN3RRKBJPNBFGD6FGOD06","","","null","","","","","","","",""
"1224.3999999910593","","image-keyboard-response","239","192438","0.0-168.0","32VNZTT0A8QGD9JBBTAZLRG9JKLR4Z","A1SOFLJOEQB591","3XUSYT70ITN3RRKBJPNBFGD6FGOD06","","img/set1/S2.jpg","68","2","random","68","true","random,structured_incentive,structured_normal","1,2,2,3","",""
"null","","html-keyboard-response","240","192793","0.0-169.0","32VNZTT0A8QGD9JBBTAZLRG9JKLR4Z","A1SOFLJOEQB591","3XUSYT70ITN3RRKBJPNBFGD6FGOD06","","<img src=""img/set1/S2.jpg"" width=""540"" height = ""360"" style=""border:16px solid orange"">","null","","","","","","","",""
"null","","html-keyboard-response","241","192795","0.0-170.0","32VNZTT0A8QGD9JBBTAZLRG9JKLR4Z","A1SOFLJOEQB591","3XUSYT70ITN3RRKBJPNBFGD6FGOD06","","","null","","","","","","","",""
"566.7000000029802","","image-keyboard-response","242","193363","0.0-171.0","32VNZTT0A8QGD9JBBTAZLRG9JKLR4Z","A1SOFLJOEQB591","3XUSYT70ITN3RRKBJPNBFGD6FGOD06","","img/set1/S2.jpg","68","2","random","68","true","random,structured_incentive,structured_normal","1,2,2,3","",""
"null","","html-keyboard-response","243","193717","0.0-172.0","32VNZTT0A8QGD9JBBTAZLRG9JKLR4Z","A1SOFLJOEQB591","3XUSYT70ITN3RRKBJPNBFGD6FGOD06","","<img src=""img/set1/S2.jpg"" width=""540"" height = ""360"" style=""border:16px solid orange"">","null","","","","","","","",""
"null","","html-keyboard-response","244","193719","0.0-173.0","32VNZTT0A8QGD9JBBTAZLRG9JKLR4Z","A1SOFLJOEQB591","3XUSYT70ITN3RRKBJPNBFGD6FGOD06","","","null","","","","","","","",""
"452.79999999701977","","image-keyboard-response","245","194173","0.0-174.0","32VNZTT0A8QGD9JBBTAZLRG9JKLR4Z","A1SOFLJOEQB591","3XUSYT70ITN3RRKBJPNBFGD6FGOD06","","img/set1/S2.jpg","68","2","random","68","true","random,structured_incentive,structured_normal","1,2,2,3","",""
"null","","html-keyboard-response","246","194528","0.0-175.0","32VNZTT0A8QGD9JBBTAZLRG9JKLR4Z","A1SOFLJOEQB591","3XUSYT70ITN3RRKBJPNBFGD6FGOD06","","<img src=""img/set1/S2.jpg"" width=""540"" height = ""360"" style=""border:16px solid orange"">","null","","","","","","","",""
"null","","html-keyboard-response","247","194530","0.0-176.0","32VNZTT0A8QGD9JBBTAZLRG9JKLR4Z","A1SOFLJOEQB591","3XUSYT70ITN3RRKBJPNBFGD6FGOD06","","","null","","","","","","","",""
"971.9000000059605","","image-keyboard-response","248","195504","0.0-177.0","32VNZTT0A8QGD9JBBTAZLRG9JKLR4Z","A1SOFLJOEQB591","3XUSYT70ITN3RRKBJPNBFGD6FGOD06","","img/set1/S4.jpg","72","4","random","74","false","random,structured_incentive,structured_normal","1,2,2,3","",""
"null","","html-keyboard-response","249","195860","0.0-178.0","32VNZTT0A8QGD9JBBTAZLRG9JKLR4Z","A1SOFLJOEQB591","3XUSYT70ITN3RRKBJPNBFGD6FGOD06","","<img src=""img/set1/S4.jpg"" width=""540"" height = ""360"">","null","","","","","","","",""
"null","","html-keyboard-response","250","195862","0.0-179.0","32VNZTT0A8QGD9JBBTAZLRG9JKLR4Z","A1SOFLJOEQB591","3XUSYT70ITN3RRKBJPNBFGD6FGOD06","","","null","","","","","","","",""
"459.5","","image-keyboard-response","251","196322","0.0-180.0","32VNZTT0A8QGD9JBBTAZLRG9JKLR4Z","A1SOFLJOEQB591","3XUSYT70ITN3RRKBJPNBFGD6FGOD06","","img/set1/S2.jpg","74","2","random","68","false","random,structured_incentive,structured_normal","1,2,2,3","",""
"null","","html-keyboard-response","252","196676","0.0-181.0","32VNZTT0A8QGD9JBBTAZLRG9JKLR4Z","A1SOFLJOEQB591","3XUSYT70ITN3RRKBJPNBFGD6FGOD06","","<img src=""img/set1/S2.jpg"" width=""540"" height = ""360"">","null","","","","","","","",""
"null","","html-keyboard-response","253","196678","0.0-182.0","32VNZTT0A8QGD9JBBTAZLRG9JKLR4Z","A1SOFLJOEQB591","3XUSYT70ITN3RRKBJPNBFGD6FGOD06","","","null","","","","","","","",""
"978.1000000089407","","image-keyboard-response","254","197658","0.0-183.0","32VNZTT0A8QGD9JBBTAZLRG9JKLR4Z","A1SOFLJOEQB591","3XUSYT70ITN3RRKBJPNBFGD6FGOD06","","img/set1/S2.jpg","68","2","random","68","true","random,structured_incentive,structured_normal","1,2,2,3","",""
"null","","html-keyboard-response","255","198012","0.0-184.0","32VNZTT0A8QGD9JBBTAZLRG9JKLR4Z","A1SOFLJOEQB591","3XUSYT70ITN3RRKBJPNBFGD6FGOD06","","<img src=""img/set1/S2.jpg"" width=""540"" height = ""360"" style=""border:16px solid orange"">","null","","","","","","","",""
"null","","html-keyboard-response","256","198014","0.0-185.0","32VNZTT0A8QGD9JBBTAZLRG9JKLR4Z","A1SOFLJOEQB591","3XUSYT70ITN3RRKBJPNBFGD6FGOD06","","","null","","","","","","","",""
"930.9000000059605","","image-keyboard-response","257","198946","0.0-186.0","32VNZTT0A8QGD9JBBTAZLRG9JKLR4Z","A1SOFLJOEQB591","3XUSYT70ITN3RRKBJPNBFGD6FGOD06","","img/set1/S1.jpg","74","1","random","83","false","random,structured_incentive,structured_normal","1,2,2,3","",""
"null","","html-keyboard-response","258","199303","0.0-187.0","32VNZTT0A8QGD9JBBTAZLRG9JKLR4Z","A1SOFLJOEQB591","3XUSYT70ITN3RRKBJPNBFGD6FGOD06","","<img src=""img/set1/S1.jpg"" width=""540"" height = ""360"">","null","","","","","","","",""
"null","","html-keyboard-response","259","199305","0.0-188.0","32VNZTT0A8QGD9JBBTAZLRG9JKLR4Z","A1SOFLJOEQB591","3XUSYT70ITN3RRKBJPNBFGD6FGOD06","","","null","","","","","","","",""
"675.1999999880791","","image-keyboard-response","260","199982","0.0-189.0","32VNZTT0A8QGD9JBBTAZLRG9JKLR4Z","A1SOFLJOEQB591","3XUSYT70ITN3RRKBJPNBFGD6FGOD06","","img/set1/S1.jpg","72","1","random","83","false","random,structured_incentive,structured_normal","1,2,2,3","",""
"null","","html-keyboard-response","261","200334","0.0-190.0","32VNZTT0A8QGD9JBBTAZLRG9JKLR4Z","A1SOFLJOEQB591","3XUSYT70ITN3RRKBJPNBFGD6FGOD06","","<img src=""img/set1/S1.jpg"" width=""540"" height = ""360"">","null","","","","","","","",""
"null","","html-keyboard-response","262","200336","0.0-191.0","32VNZTT0A8QGD9JBBTAZLRG9JKLR4Z","A1SOFLJOEQB591","3XUSYT70ITN3RRKBJPNBFGD6FGOD06","","","null","","","","","","","",""
"783.2999999970198","","image-keyboard-response","263","201121","0.0-192.0","32VNZTT0A8QGD9JBBTAZLRG9JKLR4Z","A1SOFLJOEQB591","3XUSYT70ITN3RRKBJPNBFGD6FGOD06","","img/set1/S3.jpg","83","3","random","72","false","random,structured_incentive,structured_normal","1,2,2,3","",""
"null","","html-keyboard-response","264","201476","0.0-193.0","32VNZTT0A8QGD9JBBTAZLRG9JKLR4Z","A1SOFLJOEQB591","3XUSYT70ITN3RRKBJPNBFGD6FGOD06","","<img src=""img/set1/S3.jpg"" width=""540"" height = ""360"">","null","","","","","","","",""
"null","","html-keyboard-response","265","201478","0.0-194.0","32VNZTT0A8QGD9JBBTAZLRG9JKLR4Z","A1SOFLJOEQB591","3XUSYT70ITN3RRKBJPNBFGD6FGOD06","","","null","","","","","","","",""
"1181.2000000029802","","image-keyboard-response","266","202661","0.0-195.0","32VNZTT0A8QGD9JBBTAZLRG9JKLR4Z","A1SOFLJOEQB591","3XUSYT70ITN3RRKBJPNBFGD6FGOD06","","img/set1/S4.jpg","68","4","random","74","false","random,structured_incentive,structured_normal","1,2,2,3","",""
"null","","html-keyboard-response","267","203013","0.0-196.0","32VNZTT0A8QGD9JBBTAZLRG9JKLR4Z","A1SOFLJOEQB591","3XUSYT70ITN3RRKBJPNBFGD6FGOD06","","<img src=""img/set1/S4.jpg"" width=""540"" height = ""360"">","null","","","","","","","",""
"null","","html-keyboard-response","268","203015","0.0-197.0","32VNZTT0A8QGD9JBBTAZLRG9JKLR4Z","A1SOFLJOEQB591","3XUSYT70ITN3RRKBJPNBFGD6FGOD06","","","null","","","","","","","",""
"747.8999999910593","","image-keyboard-response","269","203764","0.0-198.0","32VNZTT0A8QGD9JBBTAZLRG9JKLR4Z","A1SOFLJOEQB591","3XUSYT70ITN3RRKBJPNBFGD6FGOD06","","img/set1/S2.jpg","68","2","random","68","true","random,structured_incentive,structured_normal","1,2,2,3","",""
"null","","html-keyboard-response","270","204116","0.0-199.0","32VNZTT0A8QGD9JBBTAZLRG9JKLR4Z","A1SOFLJOEQB591","3XUSYT70ITN3RRKBJPNBFGD6FGOD06","","<img src=""img/set1/S2.jpg"" width=""540"" height = ""360"" style=""border:16px solid orange"">","null","","","","","","","",""
"null","","html-keyboard-response","271","204118","0.0-200.0","32VNZTT0A8QGD9JBBTAZLRG9JKLR4Z","A1SOFLJOEQB591","3XUSYT70ITN3RRKBJPNBFGD6FGOD06","","","null","","","","","","","",""
"1462.2999999970198","","image-keyboard-response","272","205582","0.0-201.0","32VNZTT0A8QGD9JBBTAZLRG9JKLR4Z","A1SOFLJOEQB591","3XUSYT70ITN3RRKBJPNBFGD6FGOD06","","img/set1/S3.jpg","72","3","random","72","true","random,structured_incentive,structured_normal","1,2,2,3","",""
"null","","html-keyboard-response","273","205939","0.0-202.0","32VNZTT0A8QGD9JBBTAZLRG9JKLR4Z","A1SOFLJOEQB591","3XUSYT70ITN3RRKBJPNBFGD6FGOD06","","<img src=""img/set1/S3.jpg"" width=""540"" height = ""360"" style=""border:16px solid orange"">","null","","","","","","","",""
"null","","html-keyboard-response","274","205941","0.0-203.0","32VNZTT0A8QGD9JBBTAZLRG9JKLR4Z","A1SOFLJOEQB591","3XUSYT70ITN3RRKBJPNBFGD6FGOD06","","","null","","","","","","","",""
"1034.699999988079","","image-keyboard-response","275","206977","0.0-204.0","32VNZTT0A8QGD9JBBTAZLRG9JKLR4Z","A1SOFLJOEQB591","3XUSYT70ITN3RRKBJPNBFGD6FGOD06","","img/set1/S4.jpg","74","4","random","74","true","random,structured_incentive,structured_normal","1,2,2,3","",""
"null","","html-keyboard-response","276","207334","0.0-205.0","32VNZTT0A8QGD9JBBTAZLRG9JKLR4Z","A1SOFLJOEQB591","3XUSYT70ITN3RRKBJPNBFGD6FGOD06","","<img src=""img/set1/S4.jpg"" width=""540"" height = ""360"" style=""border:16px solid orange"">","null","","","","","","","",""
"null","","html-keyboard-response","277","207336","0.0-206.0","32VNZTT0A8QGD9JBBTAZLRG9JKLR4Z","A1SOFLJOEQB591","3XUSYT70ITN3RRKBJPNBFGD6FGOD06","","","null","","","","","","","",""
"1110","","image-keyboard-response","278","208447","0.0-207.0","32VNZTT0A8QGD9JBBTAZLRG9JKLR4Z","A1SOFLJOEQB591","3XUSYT70ITN3RRKBJPNBFGD6FGOD06","","img/set1/S3.jpg","83","3","random","72","false","random,structured_incentive,structured_normal","1,2,2,3","",""
"null","","html-keyboard-response","279","208802","0.0-208.0","32VNZTT0A8QGD9JBBTAZLRG9JKLR4Z","A1SOFLJOEQB591","3XUSYT70ITN3RRKBJPNBFGD6FGOD06","","<img src=""img/set1/S3.jpg"" width=""540"" height = ""360"">","null","","","","","","","",""
"null","","html-keyboard-response","280","208804","0.0-209.0","32VNZTT0A8QGD9JBBTAZLRG9JKLR4Z","A1SOFLJOEQB591","3XUSYT70ITN3RRKBJPNBFGD6FGOD06","","","null","","","","","","","",""
"1448.7999999970198","","image-keyboard-response","281","210254","0.0-210.0","32VNZTT0A8QGD9JBBTAZLRG9JKLR4Z","A1SOFLJOEQB591","3XUSYT70ITN3RRKBJPNBFGD6FGOD06","","img/set1/S2.jpg","68","2","random","68","true","random,structured_incentive,structured_normal","1,2,2,3","",""
"null","","html-keyboard-response","282","210608","0.0-211.0","32VNZTT0A8QGD9JBBTAZLRG9JKLR4Z","A1SOFLJOEQB591","3XUSYT70ITN3RRKBJPNBFGD6FGOD06","","<img src=""img/set1/S2.jpg"" width=""540"" height = ""360"" style=""border:16px solid orange"">","null","","","","","","","",""
"null","","html-keyboard-response","283","210611","0.0-212.0","32VNZTT0A8QGD9JBBTAZLRG9JKLR4Z","A1SOFLJOEQB591","3XUSYT70ITN3RRKBJPNBFGD6FGOD06","","","null","","","","","","","",""
"916.2000000029802","","image-keyboard-response","284","211528","0.0-213.0","32VNZTT0A8QGD9JBBTAZLRG9JKLR4Z","A1SOFLJOEQB591","3XUSYT70ITN3RRKBJPNBFGD6FGOD06","","img/set1/S4.jpg","72","4","random","74","false","random,structured_incentive,structured_normal","1,2,2,3","",""
"null","","html-keyboard-response","285","211881","0.0-214.0","32VNZTT0A8QGD9JBBTAZLRG9JKLR4Z","A1SOFLJOEQB591","3XUSYT70ITN3RRKBJPNBFGD6FGOD06","","<img src=""img/set1/S4.jpg"" width=""540"" height = ""360"">","null","","","","","","","",""
"null","","html-keyboard-response","286","211882","0.0-215.0","32VNZTT0A8QGD9JBBTAZLRG9JKLR4Z","A1SOFLJOEQB591","3XUSYT70ITN3RRKBJPNBFGD6FGOD06","","","null","","","","","","","",""
"1071.5999999940395","","image-keyboard-response","287","212955","0.0-216.0","32VNZTT0A8QGD9JBBTAZLRG9JKLR4Z","A1SOFLJOEQB591","3XUSYT70ITN3RRKBJPNBFGD6FGOD06","","img/set1/S1.jpg","74","1","random","83","false","random,structured_incentive,structured_normal","1,2,2,3","",""
"null","","html-keyboard-response","288","213312","0.0-217.0","32VNZTT0A8QGD9JBBTAZLRG9JKLR4Z","A1SOFLJOEQB591","3XUSYT70ITN3RRKBJPNBFGD6FGOD06","","<img src=""img/set1/S1.jpg"" width=""540"" height = ""360"">","null","","","","","","","",""
"null","","html-keyboard-response","289","213314","0.0-218.0","32VNZTT0A8QGD9JBBTAZLRG9JKLR4Z","A1SOFLJOEQB591","3XUSYT70ITN3RRKBJPNBFGD6FGOD06","","","null","","","","","","","",""
"968.8999999910593","","image-keyboard-response","290","214284","0.0-219.0","32VNZTT0A8QGD9JBBTAZLRG9JKLR4Z","A1SOFLJOEQB591","3XUSYT70ITN3RRKBJPNBFGD6FGOD06","","img/set1/S4.jpg","72","4","random","74","false","random,structured_incentive,structured_normal","1,2,2,3","",""
"null","","html-keyboard-response","291","214638","0.0-220.0","32VNZTT0A8QGD9JBBTAZLRG9JKLR4Z","A1SOFLJOEQB591","3XUSYT70ITN3RRKBJPNBFGD6FGOD06","","<img src=""img/set1/S4.jpg"" width=""540"" height = ""360"">","null","","","","","","","",""
"null","","html-keyboard-response","292","214640","0.0-221.0","32VNZTT0A8QGD9JBBTAZLRG9JKLR4Z","A1SOFLJOEQB591","3XUSYT70ITN3RRKBJPNBFGD6FGOD06","","","null","","","","","","","",""
"495.19999998807907","","image-keyboard-response","293","215137","0.0-222.0","32VNZTT0A8QGD9JBBTAZLRG9JKLR4Z","A1SOFLJOEQB591","3XUSYT70ITN3RRKBJPNBFGD6FGOD06","","img/set1/S4.jpg","68","4","random","74","false","random,structured_incentive,structured_normal","1,2,2,3","",""
"null","","html-keyboard-response","294","215493","0.0-223.0","32VNZTT0A8QGD9JBBTAZLRG9JKLR4Z","A1SOFLJOEQB591","3XUSYT70ITN3RRKBJPNBFGD6FGOD06","","<img src=""img/set1/S4.jpg"" width=""540"" height = ""360"">","null","","","","","","","",""
"null","","html-keyboard-response","295","215495","0.0-224.0","32VNZTT0A8QGD9JBBTAZLRG9JKLR4Z","A1SOFLJOEQB591","3XUSYT70ITN3RRKBJPNBFGD6FGOD06","","","null","","","","","","","",""
"1333.1000000089407","","image-keyboard-response","296","216830","0.0-225.0","32VNZTT0A8QGD9JBBTAZLRG9JKLR4Z","A1SOFLJOEQB591","3XUSYT70ITN3RRKBJPNBFGD6FGOD06","","img/set1/S1.jpg","83","1","random","83","true","random,structured_incentive,structured_normal","1,2,2,3","",""
"null","","html-keyboard-response","297","217187","0.0-226.0","32VNZTT0A8QGD9JBBTAZLRG9JKLR4Z","A1SOFLJOEQB591","3XUSYT70ITN3RRKBJPNBFGD6FGOD06","","<img src=""img/set1/S1.jpg"" width=""540"" height = ""360"" style=""border:16px solid orange"">","null","","","","","","","",""
"null","","html-keyboard-response","298","217189","0.0-227.0","32VNZTT0A8QGD9JBBTAZLRG9JKLR4Z","A1SOFLJOEQB591","3XUSYT70ITN3RRKBJPNBFGD6FGOD06","","","null","","","","","","","",""
"1089","","image-keyboard-response","299","218279","0.0-228.0","32VNZTT0A8QGD9JBBTAZLRG9JKLR4Z","A1SOFLJOEQB591","3XUSYT70ITN3RRKBJPNBFGD6FGOD06","","img/set1/S4.jpg","72","4","random","74","false","random,structured_incentive,structured_normal","1,2,2,3","",""
"null","","html-keyboard-response","300","218636","0.0-229.0","32VNZTT0A8QGD9JBBTAZLRG9JKLR4Z","A1SOFLJOEQB591","3XUSYT70ITN3RRKBJPNBFGD6FGOD06","","<img src=""img/set1/S4.jpg"" width=""540"" height = ""360"">","null","","","","","","","",""
"null","","html-keyboard-response","301","218638","0.0-230.0","32VNZTT0A8QGD9JBBTAZLRG9JKLR4Z","A1SOFLJOEQB591","3XUSYT70ITN3RRKBJPNBFGD6FGOD06","","","null","","","","","","","",""
"720.0999999940395","","image-keyboard-response","302","219360","0.0-231.0","32VNZTT0A8QGD9JBBTAZLRG9JKLR4Z","A1SOFLJOEQB591","3XUSYT70ITN3RRKBJPNBFGD6FGOD06","","img/set1/S2.jpg","68","2","random","68","true","random,structured_incentive,structured_normal","1,2,2,3","",""
"null","","html-keyboard-response","303","219713","0.0-232.0","32VNZTT0A8QGD9JBBTAZLRG9JKLR4Z","A1SOFLJOEQB591","3XUSYT70ITN3RRKBJPNBFGD6FGOD06","","<img src=""img/set1/S2.jpg"" width=""540"" height = ""360"" style=""border:16px solid orange"">","null","","","","","","","",""
"null","","html-keyboard-response","304","219715","0.0-233.0","32VNZTT0A8QGD9JBBTAZLRG9JKLR4Z","A1SOFLJOEQB591","3XUSYT70ITN3RRKBJPNBFGD6FGOD06","","","null","","","","","","","",""
"498.30000001192093","","image-keyboard-response","305","220215","0.0-234.0","32VNZTT0A8QGD9JBBTAZLRG9JKLR4Z","A1SOFLJOEQB591","3XUSYT70ITN3RRKBJPNBFGD6FGOD06","","img/set1/S2.jpg","68","2","random","68","true","random,structured_incentive,structured_normal","1,2,2,3","",""
"null","","html-keyboard-response","306","220571","0.0-235.0","32VNZTT0A8QGD9JBBTAZLRG9JKLR4Z","A1SOFLJOEQB591","3XUSYT70ITN3RRKBJPNBFGD6FGOD06","","<img src=""img/set1/S2.jpg"" width=""540"" height = ""360"" style=""border:16px solid orange"">","null","","","","","","","",""
"null","","html-keyboard-response","307","220574","0.0-236.0","32VNZTT0A8QGD9JBBTAZLRG9JKLR4Z","A1SOFLJOEQB591","3XUSYT70ITN3RRKBJPNBFGD6FGOD06","","","null","","","","","","","",""
"717.2000000029802","","image-keyboard-response","308","221292","0.0-237.0","32VNZTT0A8QGD9JBBTAZLRG9JKLR4Z","A1SOFLJOEQB591","3XUSYT70ITN3RRKBJPNBFGD6FGOD06","","img/set1/S3.jpg","72","3","random","72","true","random,structured_incentive,structured_normal","1,2,2,3","",""
"null","","html-keyboard-response","309","221648","0.0-238.0","32VNZTT0A8QGD9JBBTAZLRG9JKLR4Z","A1SOFLJOEQB591","3XUSYT70ITN3RRKBJPNBFGD6FGOD06","","<img src=""img/set1/S3.jpg"" width=""540"" height = ""360"" style=""border:16px solid orange"">","null","","","","","","","",""
"null","","html-keyboard-response","310","221650","0.0-239.0","32VNZTT0A8QGD9JBBTAZLRG9JKLR4Z","A1SOFLJOEQB591","3XUSYT70ITN3RRKBJPNBFGD6FGOD06","","","null","","","","","","","",""
"1443.9000000059605","","image-keyboard-response","311","223096","0.0-240.0","32VNZTT0A8QGD9JBBTAZLRG9JKLR4Z","A1SOFLJOEQB591","3XUSYT70ITN3RRKBJPNBFGD6FGOD06","","img/set1/S4.jpg","74","4","random","74","true","random,structured_incentive,structured_normal","1,2,2,3","",""
"null","","html-keyboard-response","312","223453","0.0-241.0","32VNZTT0A8QGD9JBBTAZLRG9JKLR4Z","A1SOFLJOEQB591","3XUSYT70ITN3RRKBJPNBFGD6FGOD06","","<img src=""img/set1/S4.jpg"" width=""540"" height = ""360"" style=""border:16px solid orange"">","null","","","","","","","",""
"null","","html-keyboard-response","313","223455","0.0-242.0","32VNZTT0A8QGD9JBBTAZLRG9JKLR4Z","A1SOFLJOEQB591","3XUSYT70ITN3RRKBJPNBFGD6FGOD06","","","null","","","","","","","",""
"849","","image-keyboard-response","314","224305","0.0-243.0","32VNZTT0A8QGD9JBBTAZLRG9JKLR4Z","A1SOFLJOEQB591","3XUSYT70ITN3RRKBJPNBFGD6FGOD06","","img/set1/S3.jpg","83","3","random","72","false","random,structured_incentive,structured_normal","1,2,2,3","",""
"null","","html-keyboard-response","315","224662","0.0-244.0","32VNZTT0A8QGD9JBBTAZLRG9JKLR4Z","A1SOFLJOEQB591","3XUSYT70ITN3RRKBJPNBFGD6FGOD06","","<img src=""img/set1/S3.jpg"" width=""540"" height = ""360"">","null","","","","","","","",""
"null","","html-keyboard-response","316","224664","0.0-245.0","32VNZTT0A8QGD9JBBTAZLRG9JKLR4Z","A1SOFLJOEQB591","3XUSYT70ITN3RRKBJPNBFGD6FGOD06","","","null","","","","","","","",""
"689.9000000059605","","image-keyboard-response","317","225355","0.0-246.0","32VNZTT0A8QGD9JBBTAZLRG9JKLR4Z","A1SOFLJOEQB591","3XUSYT70ITN3RRKBJPNBFGD6FGOD06","","img/set1/S3.jpg","72","3","random","72","true","random,structured_incentive,structured_normal","1,2,2,3","",""
"null","","html-keyboard-response","318","225712","0.0-247.0","32VNZTT0A8QGD9JBBTAZLRG9JKLR4Z","A1SOFLJOEQB591","3XUSYT70ITN3RRKBJPNBFGD6FGOD06","","<img src=""img/set1/S3.jpg"" width=""540"" height = ""360"" style=""border:16px solid orange"">","null","","","","","","","",""
"null","","html-keyboard-response","319","225715","0.0-248.0","32VNZTT0A8QGD9JBBTAZLRG9JKLR4Z","A1SOFLJOEQB591","3XUSYT70ITN3RRKBJPNBFGD6FGOD06","","","null","","","","","","","",""
"620.9000000059605","","image-keyboard-response","320","226337","0.0-249.0","32VNZTT0A8QGD9JBBTAZLRG9JKLR4Z","A1SOFLJOEQB591","3XUSYT70ITN3RRKBJPNBFGD6FGOD06","","img/set1/S3.jpg","72","3","random","72","true","random,structured_incentive,structured_normal","1,2,2,3","",""
"null","","html-keyboard-response","321","226692","0.0-250.0","32VNZTT0A8QGD9JBBTAZLRG9JKLR4Z","A1SOFLJOEQB591","3XUSYT70ITN3RRKBJPNBFGD6FGOD06","","<img src=""img/set1/S3.jpg"" width=""540"" height = ""360"" style=""border:16px solid orange"">","null","","","","","","","",""
"null","","html-keyboard-response","322","226698","0.0-251.0","32VNZTT0A8QGD9JBBTAZLRG9JKLR4Z","A1SOFLJOEQB591","3XUSYT70ITN3RRKBJPNBFGD6FGOD06","","","null","","","","","","","",""
"1640.6000000089407","","image-keyboard-response","323","228339","0.0-252.0","32VNZTT0A8QGD9JBBTAZLRG9JKLR4Z","A1SOFLJOEQB591","3XUSYT70ITN3RRKBJPNBFGD6FGOD06","","img/set1/S1.jpg","83","1","random","83","true","random,structured_incentive,structured_normal","1,2,2,3","",""
"null","","html-keyboard-response","324","228693","0.0-253.0","32VNZTT0A8QGD9JBBTAZLRG9JKLR4Z","A1SOFLJOEQB591","3XUSYT70ITN3RRKBJPNBFGD6FGOD06","","<img src=""img/set1/S1.jpg"" width=""540"" height = ""360"" style=""border:16px solid orange"">","null","","","","","","","",""
"null","","html-keyboard-response","325","228696","0.0-254.0","32VNZTT0A8QGD9JBBTAZLRG9JKLR4Z","A1SOFLJOEQB591","3XUSYT70ITN3RRKBJPNBFGD6FGOD06","","","null","","","","","","","",""
"630.8999999910593","","image-keyboard-response","326","229328","0.0-255.0","32VNZTT0A8QGD9JBBTAZLRG9JKLR4Z","A1SOFLJOEQB591","3XUSYT70ITN3RRKBJPNBFGD6FGOD06","","img/set1/S2.jpg","68","2","random","68","true","random,structured_incentive,structured_normal","1,2,2,3","",""
"null","","html-keyboard-response","327","229685","0.0-256.0","32VNZTT0A8QGD9JBBTAZLRG9JKLR4Z","A1SOFLJOEQB591","3XUSYT70ITN3RRKBJPNBFGD6FGOD06","","<img src=""img/set1/S2.jpg"" width=""540"" height = ""360"" style=""border:16px solid orange"">","null","","","","","","","",""
"null","","html-keyboard-response","328","229687","0.0-257.0","32VNZTT0A8QGD9JBBTAZLRG9JKLR4Z","A1SOFLJOEQB591","3XUSYT70ITN3RRKBJPNBFGD6FGOD06","","","null","","","","","","","",""
"890.7999999970198","","image-keyboard-response","329","230579","0.0-258.0","32VNZTT0A8QGD9JBBTAZLRG9JKLR4Z","A1SOFLJOEQB591","3XUSYT70ITN3RRKBJPNBFGD6FGOD06","","img/set1/S3.jpg","72","3","random","72","true","random,structured_incentive,structured_normal","1,2,2,3","",""
"null","","html-keyboard-response","330","230936","0.0-259.0","32VNZTT0A8QGD9JBBTAZLRG9JKLR4Z","A1SOFLJOEQB591","3XUSYT70ITN3RRKBJPNBFGD6FGOD06","","<img src=""img/set1/S3.jpg"" width=""540"" height = ""360"" style=""border:16px solid orange"">","null","","","","","","","",""
"null","","html-keyboard-response","331","230938","0.0-260.0","32VNZTT0A8QGD9JBBTAZLRG9JKLR4Z","A1SOFLJOEQB591","3XUSYT70ITN3RRKBJPNBFGD6FGOD06","","","null","","","","","","","",""
"537.4000000059605","","image-keyboard-response","332","231477","0.0-261.0","32VNZTT0A8QGD9JBBTAZLRG9JKLR4Z","A1SOFLJOEQB591","3XUSYT70ITN3RRKBJPNBFGD6FGOD06","","img/set1/S2.jpg","83","2","random","68","false","random,structured_incentive,structured_normal","1,2,2,3","",""
"null","","html-keyboard-response","333","231830","0.0-262.0","32VNZTT0A8QGD9JBBTAZLRG9JKLR4Z","A1SOFLJOEQB591","3XUSYT70ITN3RRKBJPNBFGD6FGOD06","","<img src=""img/set1/S2.jpg"" width=""540"" height = ""360"">","null","","","","","","","",""
"null","","html-keyboard-response","334","231833","0.0-263.0","32VNZTT0A8QGD9JBBTAZLRG9JKLR4Z","A1SOFLJOEQB591","3XUSYT70ITN3RRKBJPNBFGD6FGOD06","","","null","","","","","","","",""
"204.3999999910593","","image-keyboard-response","335","232038","0.0-264.0","32VNZTT0A8QGD9JBBTAZLRG9JKLR4Z","A1SOFLJOEQB591","3XUSYT70ITN3RRKBJPNBFGD6FGOD06","","img/set1/S3.jpg","68","3","random","72","false","random,structured_incentive,structured_normal","1,2,2,3","",""
"null","","html-keyboard-response","336","232394","0.0-265.0","32VNZTT0A8QGD9JBBTAZLRG9JKLR4Z","A1SOFLJOEQB591","3XUSYT70ITN3RRKBJPNBFGD6FGOD06","","<img src=""img/set1/S3.jpg"" width=""540"" height = ""360"">","null","","","","","","","",""
"null","","html-keyboard-response","337","232397","0.0-266.0","32VNZTT0A8QGD9JBBTAZLRG9JKLR4Z","A1SOFLJOEQB591","3XUSYT70ITN3RRKBJPNBFGD6FGOD06","","","null","","","","","","","",""
"462","","image-keyboard-response","338","232860","0.0-267.0","32VNZTT0A8QGD9JBBTAZLRG9JKLR4Z","A1SOFLJOEQB591","3XUSYT70ITN3RRKBJPNBFGD6FGOD06","","img/set1/S3.jpg","72","3","random","72","true","random,structured_incentive,structured_normal","1,2,2,3","",""
"null","","html-keyboard-response","339","233214","0.0-268.0","32VNZTT0A8QGD9JBBTAZLRG9JKLR4Z","A1SOFLJOEQB591","3XUSYT70ITN3RRKBJPNBFGD6FGOD06","","<img src=""img/set1/S3.jpg"" width=""540"" height = ""360"" style=""border:16px solid orange"">","null","","","","","","","",""
"null","","html-keyboard-response","340","233216","0.0-269.0","32VNZTT0A8QGD9JBBTAZLRG9JKLR4Z","A1SOFLJOEQB591","3XUSYT70ITN3RRKBJPNBFGD6FGOD06","","","null","","","","","","","",""
"714.2000000029802","","image-keyboard-response","341","233931","0.0-270.0","32VNZTT0A8QGD9JBBTAZLRG9JKLR4Z","A1SOFLJOEQB591","3XUSYT70ITN3RRKBJPNBFGD6FGOD06","","img/set1/S2.jpg","83","2","random","68","false","random,structured_incentive,structured_normal","1,2,2,3","",""
"null","","html-keyboard-response","342","234286","0.0-271.0","32VNZTT0A8QGD9JBBTAZLRG9JKLR4Z","A1SOFLJOEQB591","3XUSYT70ITN3RRKBJPNBFGD6FGOD06","","<img src=""img/set1/S2.jpg"" width=""540"" height = ""360"">","null","","","","","","","",""
"null","","html-keyboard-response","343","234288","0.0-272.0","32VNZTT0A8QGD9JBBTAZLRG9JKLR4Z","A1SOFLJOEQB591","3XUSYT70ITN3RRKBJPNBFGD6FGOD06","","","null","","","","","","","",""
"974.6000000089407","","image-keyboard-response","344","235264","0.0-273.0","32VNZTT0A8QGD9JBBTAZLRG9JKLR4Z","A1SOFLJOEQB591","3XUSYT70ITN3RRKBJPNBFGD6FGOD06","","img/set1/S4.jpg","74","4","random","74","true","random,structured_incentive,structured_normal","1,2,2,3","",""
"null","","html-keyboard-response","345","235621","0.0-274.0","32VNZTT0A8QGD9JBBTAZLRG9JKLR4Z","A1SOFLJOEQB591","3XUSYT70ITN3RRKBJPNBFGD6FGOD06","","<img src=""img/set1/S4.jpg"" width=""540"" height = ""360"" style=""border:16px solid orange"">","null","","","","","","","",""
"null","","html-keyboard-response","346","235623","0.0-275.0","32VNZTT0A8QGD9JBBTAZLRG9JKLR4Z","A1SOFLJOEQB591","3XUSYT70ITN3RRKBJPNBFGD6FGOD06","","","null","","","","","","","",""
"660.7000000029802","","image-keyboard-response","347","236285","0.0-276.0","32VNZTT0A8QGD9JBBTAZLRG9JKLR4Z","A1SOFLJOEQB591","3XUSYT70ITN3RRKBJPNBFGD6FGOD06","","img/set1/S2.jpg","68","2","random","68","true","random,structured_incentive,structured_normal","1,2,2,3","",""
"null","","html-keyboard-response","348","236640","0.0-277.0","32VNZTT0A8QGD9JBBTAZLRG9JKLR4Z","A1SOFLJOEQB591","3XUSYT70ITN3RRKBJPNBFGD6FGOD06","","<img src=""img/set1/S2.jpg"" width=""540"" height = ""360"" style=""border:16px solid orange"">","null","","","","","","","",""
"null","","html-keyboard-response","349","236643","0.0-278.0","32VNZTT0A8QGD9JBBTAZLRG9JKLR4Z","A1SOFLJOEQB591","3XUSYT70ITN3RRKBJPNBFGD6FGOD06","","","null","","","","","","","",""
"1268.2000000029802","","image-keyboard-response","350","237912","0.0-279.0","32VNZTT0A8QGD9JBBTAZLRG9JKLR4Z","A1SOFLJOEQB591","3XUSYT70ITN3RRKBJPNBFGD6FGOD06","","img/set1/S1.jpg","83","1","random","83","true","random,structured_incentive,structured_normal","1,2,2,3","",""
"null","","html-keyboard-response","351","238269","0.0-280.0","32VNZTT0A8QGD9JBBTAZLRG9JKLR4Z","A1SOFLJOEQB591","3XUSYT70ITN3RRKBJPNBFGD6FGOD06","","<img src=""img/set1/S1.jpg"" width=""540"" height = ""360"" style=""border:16px solid orange"">","null","","","","","","","",""
"null","","html-keyboard-response","352","238271","0.0-281.0","32VNZTT0A8QGD9JBBTAZLRG9JKLR4Z","A1SOFLJOEQB591","3XUSYT70ITN3RRKBJPNBFGD6FGOD06","","","null","","","","","","","",""
"582.4000000059605","","image-keyboard-response","353","238855","0.0-282.0","32VNZTT0A8QGD9JBBTAZLRG9JKLR4Z","A1SOFLJOEQB591","3XUSYT70ITN3RRKBJPNBFGD6FGOD06","","img/set1/S1.jpg","83","1","random","83","true","random,structured_incentive,structured_normal","1,2,2,3","",""
"null","","html-keyboard-response","354","239209","0.0-283.0","32VNZTT0A8QGD9JBBTAZLRG9JKLR4Z","A1SOFLJOEQB591","3XUSYT70ITN3RRKBJPNBFGD6FGOD06","","<img src=""img/set1/S1.jpg"" width=""540"" height = ""360"" style=""border:16px solid orange"">","null","","","","","","","",""
"null","","html-keyboard-response","355","239211","0.0-284.0","32VNZTT0A8QGD9JBBTAZLRG9JKLR4Z","A1SOFLJOEQB591","3XUSYT70ITN3RRKBJPNBFGD6FGOD06","","","null","","","","","","","",""
"1321.2999999970198","","image-keyboard-response","356","240534","0.0-285.0","32VNZTT0A8QGD9JBBTAZLRG9JKLR4Z","A1SOFLJOEQB591","3XUSYT70ITN3RRKBJPNBFGD6FGOD06","","img/set1/S4.jpg","68","4","random","74","false","random,structured_incentive,structured_normal","1,2,2,3","",""
"null","","html-keyboard-response","357","240891","0.0-286.0","32VNZTT0A8QGD9JBBTAZLRG9JKLR4Z","A1SOFLJOEQB591","3XUSYT70ITN3RRKBJPNBFGD6FGOD06","","<img src=""img/set1/S4.jpg"" width=""540"" height = ""360"">","null","","","","","","","",""
"null","","html-keyboard-response","358","240893","0.0-287.0","32VNZTT0A8QGD9JBBTAZLRG9JKLR4Z","A1SOFLJOEQB591","3XUSYT70ITN3RRKBJPNBFGD6FGOD06","","","null","","","","","","","",""
"816","","image-keyboard-response","359","241710","0.0-288.0","32VNZTT0A8QGD9JBBTAZLRG9JKLR4Z","A1SOFLJOEQB591","3XUSYT70ITN3RRKBJPNBFGD6FGOD06","","img/set1/S2.jpg","68","2","random","68","true","random,structured_incentive,structured_normal","1,2,2,3","",""
"null","","html-keyboard-response","360","242064","0.0-289.0","32VNZTT0A8QGD9JBBTAZLRG9JKLR4Z","A1SOFLJOEQB591","3XUSYT70ITN3RRKBJPNBFGD6FGOD06","","<img src=""img/set1/S2.jpg"" width=""540"" height = ""360"" style=""border:16px solid orange"">","null","","","","","","","",""
"null","","html-keyboard-response","361","242067","0.0-290.0","32VNZTT0A8QGD9JBBTAZLRG9JKLR4Z","A1SOFLJOEQB591","3XUSYT70ITN3RRKBJPNBFGD6FGOD06","","","null","","","","","","","",""
"721","","image-keyboard-response","362","242789","0.0-291.0","32VNZTT0A8QGD9JBBTAZLRG9JKLR4Z","A1SOFLJOEQB591","3XUSYT70ITN3RRKBJPNBFGD6FGOD06","","img/set1/S2.jpg","68","2","random","68","true","random,structured_incentive,structured_normal","1,2,2,3","",""
"null","","html-keyboard-response","363","243146","0.0-292.0","32VNZTT0A8QGD9JBBTAZLRG9JKLR4Z","A1SOFLJOEQB591","3XUSYT70ITN3RRKBJPNBFGD6FGOD06","","<img src=""img/set1/S2.jpg"" width=""540"" height = ""360"" style=""border:16px solid orange"">","null","","","","","","","",""
"null","","html-keyboard-response","364","243148","0.0-293.0","32VNZTT0A8QGD9JBBTAZLRG9JKLR4Z","A1SOFLJOEQB591","3XUSYT70ITN3RRKBJPNBFGD6FGOD06","","","null","","","","","","","",""
"891.2999999970198","","image-keyboard-response","365","244041","0.0-294.0","32VNZTT0A8QGD9JBBTAZLRG9JKLR4Z","A1SOFLJOEQB591","3XUSYT70ITN3RRKBJPNBFGD6FGOD06","","img/set1/S4.jpg","72","4","random","74","false","random,structured_incentive,structured_normal","1,2,2,3","",""
"null","","html-keyboard-response","366","244395","0.0-295.0","32VNZTT0A8QGD9JBBTAZLRG9JKLR4Z","A1SOFLJOEQB591","3XUSYT70ITN3RRKBJPNBFGD6FGOD06","","<img src=""img/set1/S4.jpg"" width=""540"" height = ""360"">","null","","","","","","","",""
"null","","html-keyboard-response","367","244398","0.0-296.0","32VNZTT0A8QGD9JBBTAZLRG9JKLR4Z","A1SOFLJOEQB591","3XUSYT70ITN3RRKBJPNBFGD6FGOD06","","","null","","","","","","","",""
"684.5999999940395","","image-keyboard-response","368","245084","0.0-297.0","32VNZTT0A8QGD9JBBTAZLRG9JKLR4Z","A1SOFLJOEQB591","3XUSYT70ITN3RRKBJPNBFGD6FGOD06","","img/set1/S4.jpg","74","4","random","74","true","random,structured_incentive,structured_normal","1,2,2,3","",""
"null","","html-keyboard-response","369","245437","0.0-298.0","32VNZTT0A8QGD9JBBTAZLRG9JKLR4Z","A1SOFLJOEQB591","3XUSYT70ITN3RRKBJPNBFGD6FGOD06","","<img src=""img/set1/S4.jpg"" width=""540"" height = ""360"" style=""border:16px solid orange"">","null","","","","","","","",""
"null","","html-keyboard-response","370","245439","0.0-299.0","32VNZTT0A8QGD9JBBTAZLRG9JKLR4Z","A1SOFLJOEQB591","3XUSYT70ITN3RRKBJPNBFGD6FGOD06","","","null","","","","","","","",""
"927.5","","image-keyboard-response","371","246368","0.0-300.0","32VNZTT0A8QGD9JBBTAZLRG9JKLR4Z","A1SOFLJOEQB591","3XUSYT70ITN3RRKBJPNBFGD6FGOD06","","img/set1/S2.jpg","68","2","random","68","true","random,structured_incentive,structured_normal","1,2,2,3","",""
"null","","html-keyboard-response","372","246721","0.0-301.0","32VNZTT0A8QGD9JBBTAZLRG9JKLR4Z","A1SOFLJOEQB591","3XUSYT70ITN3RRKBJPNBFGD6FGOD06","","<img src=""img/set1/S2.jpg"" width=""540"" height = ""360"" style=""border:16px solid orange"">","null","","","","","","","",""
"null","","html-keyboard-response","373","246723","0.0-302.0","32VNZTT0A8QGD9JBBTAZLRG9JKLR4Z","A1SOFLJOEQB591","3XUSYT70ITN3RRKBJPNBFGD6FGOD06","","","null","","","","","","","",""
"1119.3999999910593","","image-keyboard-response","374","247844","0.0-303.0","32VNZTT0A8QGD9JBBTAZLRG9JKLR4Z","A1SOFLJOEQB591","3XUSYT70ITN3RRKBJPNBFGD6FGOD06","","img/set1/S3.jpg","74","3","random","72","false","random,structured_incentive,structured_normal","1,2,2,3","",""
"null","","html-keyboard-response","375","248198","0.0-304.0","32VNZTT0A8QGD9JBBTAZLRG9JKLR4Z","A1SOFLJOEQB591","3XUSYT70ITN3RRKBJPNBFGD6FGOD06","","<img src=""img/set1/S3.jpg"" width=""540"" height = ""360"">","null","","","","","","","",""
"null","","html-keyboard-response","376","248200","0.0-305.0","32VNZTT0A8QGD9JBBTAZLRG9JKLR4Z","A1SOFLJOEQB591","3XUSYT70ITN3RRKBJPNBFGD6FGOD06","","","null","","","","","","","",""
"675.2999999970198","","image-keyboard-response","377","248876","0.0-306.0","32VNZTT0A8QGD9JBBTAZLRG9JKLR4Z","A1SOFLJOEQB591","3XUSYT70ITN3RRKBJPNBFGD6FGOD06","","img/set1/S2.jpg","68","2","random","68","true","random,structured_incentive,structured_normal","1,2,2,3","",""
"null","","html-keyboard-response","378","249232","0.0-307.0","32VNZTT0A8QGD9JBBTAZLRG9JKLR4Z","A1SOFLJOEQB591","3XUSYT70ITN3RRKBJPNBFGD6FGOD06","","<img src=""img/set1/S2.jpg"" width=""540"" height = ""360"" style=""border:16px solid orange"">","null","","","","","","","",""
"null","","html-keyboard-response","379","249234","0.0-308.0","32VNZTT0A8QGD9JBBTAZLRG9JKLR4Z","A1SOFLJOEQB591","3XUSYT70ITN3RRKBJPNBFGD6FGOD06","","","null","","","","","","","",""
"465.5","","image-keyboard-response","380","249701","0.0-309.0","32VNZTT0A8QGD9JBBTAZLRG9JKLR4Z","A1SOFLJOEQB591","3XUSYT70ITN3RRKBJPNBFGD6FGOD06","","img/set1/S2.jpg","68","2","random","68","true","random,structured_incentive,structured_normal","1,2,2,3","",""
"null","","html-keyboard-response","381","250058","0.0-310.0","32VNZTT0A8QGD9JBBTAZLRG9JKLR4Z","A1SOFLJOEQB591","3XUSYT70ITN3RRKBJPNBFGD6FGOD06","","<img src=""img/set1/S2.jpg"" width=""540"" height = ""360"" style=""border:16px solid orange"">","null","","","","","","","",""
"null","","html-keyboard-response","382","250060","0.0-311.0","32VNZTT0A8QGD9JBBTAZLRG9JKLR4Z","A1SOFLJOEQB591","3XUSYT70ITN3RRKBJPNBFGD6FGOD06","","","null","","","","","","","",""
"856.7999999970198","","image-keyboard-response","383","250918","0.0-312.0","32VNZTT0A8QGD9JBBTAZLRG9JKLR4Z","A1SOFLJOEQB591","3XUSYT70ITN3RRKBJPNBFGD6FGOD06","","img/set1/S3.jpg","72","3","random","72","true","random,structured_incentive,structured_normal","1,2,2,3","",""
"null","","html-keyboard-response","384","251271","0.0-313.0","32VNZTT0A8QGD9JBBTAZLRG9JKLR4Z","A1SOFLJOEQB591","3XUSYT70ITN3RRKBJPNBFGD6FGOD06","","<img src=""img/set1/S3.jpg"" width=""540"" height = ""360"" style=""border:16px solid orange"">","null","","","","","","","",""
"null","","html-keyboard-response","385","251274","0.0-314.0","32VNZTT0A8QGD9JBBTAZLRG9JKLR4Z","A1SOFLJOEQB591","3XUSYT70ITN3RRKBJPNBFGD6FGOD06","","","null","","","","","","","",""
"388.5","","image-keyboard-response","386","251663","0.0-315.0","32VNZTT0A8QGD9JBBTAZLRG9JKLR4Z","A1SOFLJOEQB591","3XUSYT70ITN3RRKBJPNBFGD6FGOD06","","img/set1/S3.jpg","72","3","random","72","true","random,structured_incentive,structured_normal","1,2,2,3","",""
"null","","html-keyboard-response","387","252015","0.0-316.0","32VNZTT0A8QGD9JBBTAZLRG9JKLR4Z","A1SOFLJOEQB591","3XUSYT70ITN3RRKBJPNBFGD6FGOD06","","<img src=""img/set1/S3.jpg"" width=""540"" height = ""360"" style=""border:16px solid orange"">","null","","","","","","","",""
"null","","html-keyboard-response","388","252017","0.0-317.0","32VNZTT0A8QGD9JBBTAZLRG9JKLR4Z","A1SOFLJOEQB591","3XUSYT70ITN3RRKBJPNBFGD6FGOD06","","","null","","","","","","","",""
"919.5999999940395","","image-keyboard-response","389","252939","0.0-318.0","32VNZTT0A8QGD9JBBTAZLRG9JKLR4Z","A1SOFLJOEQB591","3XUSYT70ITN3RRKBJPNBFGD6FGOD06","","img/set1/S1.jpg","83","1","random","83","true","random,structured_incentive,structured_normal","1,2,2,3","",""
"null","","html-keyboard-response","390","253292","0.0-319.0","32VNZTT0A8QGD9JBBTAZLRG9JKLR4Z","A1SOFLJOEQB591","3XUSYT70ITN3RRKBJPNBFGD6FGOD06","","<img src=""img/set1/S1.jpg"" width=""540"" height = ""360"" style=""border:16px solid orange"">","null","","","","","","","",""
"null","","html-keyboard-response","391","253294","0.0-320.0","32VNZTT0A8QGD9JBBTAZLRG9JKLR4Z","A1SOFLJOEQB591","3XUSYT70ITN3RRKBJPNBFGD6FGOD06","","","null","","","","","","","",""
"882.9000000059605","","image-keyboard-response","392","254178","0.0-321.0","32VNZTT0A8QGD9JBBTAZLRG9JKLR4Z","A1SOFLJOEQB591","3XUSYT70ITN3RRKBJPNBFGD6FGOD06","","img/set1/S4.jpg","74","4","random","74","true","random,structured_incentive,structured_normal","1,2,2,3","",""
"null","","html-keyboard-response","393","254531","0.0-322.0","32VNZTT0A8QGD9JBBTAZLRG9JKLR4Z","A1SOFLJOEQB591","3XUSYT70ITN3RRKBJPNBFGD6FGOD06","","<img src=""img/set1/S4.jpg"" width=""540"" height = ""360"" style=""border:16px solid orange"">","null","","","","","","","",""
"null","","html-keyboard-response","394","254534","0.0-323.0","32VNZTT0A8QGD9JBBTAZLRG9JKLR4Z","A1SOFLJOEQB591","3XUSYT70ITN3RRKBJPNBFGD6FGOD06","","","null","","","","","","","",""
"619.2999999970198","","image-keyboard-response","395","255154","0.0-324.0","32VNZTT0A8QGD9JBBTAZLRG9JKLR4Z","A1SOFLJOEQB591","3XUSYT70ITN3RRKBJPNBFGD6FGOD06","","img/set1/S4.jpg","74","4","random","74","true","random,structured_incentive,structured_normal","1,2,2,3","",""
"null","","html-keyboard-response","396","255511","0.0-325.0","32VNZTT0A8QGD9JBBTAZLRG9JKLR4Z","A1SOFLJOEQB591","3XUSYT70ITN3RRKBJPNBFGD6FGOD06","","<img src=""img/set1/S4.jpg"" width=""540"" height = ""360"" style=""border:16px solid orange"">","null","","","","","","","",""
"null","","html-keyboard-response","397","255513","0.0-326.0","32VNZTT0A8QGD9JBBTAZLRG9JKLR4Z","A1SOFLJOEQB591","3XUSYT70ITN3RRKBJPNBFGD6FGOD06","","","null","","","","","","","",""
"715.7999999970198","","image-keyboard-response","398","256231","0.0-327.0","32VNZTT0A8QGD9JBBTAZLRG9JKLR4Z","A1SOFLJOEQB591","3XUSYT70ITN3RRKBJPNBFGD6FGOD06","","img/set1/S2.jpg","83","2","random","68","false","random,structured_incentive,structured_normal","1,2,2,3","",""
"null","","html-keyboard-response","399","256588","0.0-328.0","32VNZTT0A8QGD9JBBTAZLRG9JKLR4Z","A1SOFLJOEQB591","3XUSYT70ITN3RRKBJPNBFGD6FGOD06","","<img src=""img/set1/S2.jpg"" width=""540"" height = ""360"">","null","","","","","","","",""
"null","","html-keyboard-response","400","256590","0.0-329.0","32VNZTT0A8QGD9JBBTAZLRG9JKLR4Z","A1SOFLJOEQB591","3XUSYT70ITN3RRKBJPNBFGD6FGOD06","","","null","","","","","","","",""
"1035.5","","image-keyboard-response","401","257626","0.0-330.0","32VNZTT0A8QGD9JBBTAZLRG9JKLR4Z","A1SOFLJOEQB591","3XUSYT70ITN3RRKBJPNBFGD6FGOD06","","img/set1/S1.jpg","83","1","random","83","true","random,structured_incentive,structured_normal","1,2,2,3","",""
"null","","html-keyboard-response","402","257982","0.0-331.0","32VNZTT0A8QGD9JBBTAZLRG9JKLR4Z","A1SOFLJOEQB591","3XUSYT70ITN3RRKBJPNBFGD6FGOD06","","<img src=""img/set1/S1.jpg"" width=""540"" height = ""360"" style=""border:16px solid orange"">","null","","","","","","","",""
"null","","html-keyboard-response","403","257984","0.0-332.0","32VNZTT0A8QGD9JBBTAZLRG9JKLR4Z","A1SOFLJOEQB591","3XUSYT70ITN3RRKBJPNBFGD6FGOD06","","","null","","","","","","","",""
"576.3999999910593","","image-keyboard-response","404","258562","0.0-333.0","32VNZTT0A8QGD9JBBTAZLRG9JKLR4Z","A1SOFLJOEQB591","3XUSYT70ITN3RRKBJPNBFGD6FGOD06","","img/set1/S1.jpg","83","1","random","83","true","random,structured_incentive,structured_normal","1,2,2,3","",""
"null","","html-keyboard-response","405","258915","0.0-334.0","32VNZTT0A8QGD9JBBTAZLRG9JKLR4Z","A1SOFLJOEQB591","3XUSYT70ITN3RRKBJPNBFGD6FGOD06","","<img src=""img/set1/S1.jpg"" width=""540"" height = ""360"" style=""border:16px solid orange"">","null","","","","","","","",""
"null","","html-keyboard-response","406","258916","0.0-335.0","32VNZTT0A8QGD9JBBTAZLRG9JKLR4Z","A1SOFLJOEQB591","3XUSYT70ITN3RRKBJPNBFGD6FGOD06","","","null","","","","","","","",""
"544.7999999970198","","image-keyboard-response","407","259462","0.0-336.0","32VNZTT0A8QGD9JBBTAZLRG9JKLR4Z","A1SOFLJOEQB591","3XUSYT70ITN3RRKBJPNBFGD6FGOD06","","img/set1/S4.jpg","68","4","random","74","false","random,structured_incentive,structured_normal","1,2,2,3","",""
"null","","html-keyboard-response","408","259818","0.0-337.0","32VNZTT0A8QGD9JBBTAZLRG9JKLR4Z","A1SOFLJOEQB591","3XUSYT70ITN3RRKBJPNBFGD6FGOD06","","<img src=""img/set1/S4.jpg"" width=""540"" height = ""360"">","null","","","","","","","",""
"null","","html-keyboard-response","409","259821","0.0-338.0","32VNZTT0A8QGD9JBBTAZLRG9JKLR4Z","A1SOFLJOEQB591","3XUSYT70ITN3RRKBJPNBFGD6FGOD06","","","null","","","","","","","",""
"1392.300000011921","","image-keyboard-response","410","261214","0.0-339.0","32VNZTT0A8QGD9JBBTAZLRG9JKLR4Z","A1SOFLJOEQB591","3XUSYT70ITN3RRKBJPNBFGD6FGOD06","","img/set1/S1.jpg","83","1","random","83","true","random,structured_incentive,structured_normal","1,2,2,3","",""
"null","","html-keyboard-response","411","261571","0.0-340.0","32VNZTT0A8QGD9JBBTAZLRG9JKLR4Z","A1SOFLJOEQB591","3XUSYT70ITN3RRKBJPNBFGD6FGOD06","","<img src=""img/set1/S1.jpg"" width=""540"" height = ""360"" style=""border:16px solid orange"">","null","","","","","","","",""
"null","","html-keyboard-response","412","261573","0.0-341.0","32VNZTT0A8QGD9JBBTAZLRG9JKLR4Z","A1SOFLJOEQB591","3XUSYT70ITN3RRKBJPNBFGD6FGOD06","","","null","","","","","","","",""
"403.19999998807907","","image-keyboard-response","413","261978","0.0-342.0","32VNZTT0A8QGD9JBBTAZLRG9JKLR4Z","A1SOFLJOEQB591","3XUSYT70ITN3RRKBJPNBFGD6FGOD06","","img/set1/S1.jpg","83","1","random","83","true","random,structured_incentive,structured_normal","1,2,2,3","",""
"null","","html-keyboard-response","414","262332","0.0-343.0","32VNZTT0A8QGD9JBBTAZLRG9JKLR4Z","A1SOFLJOEQB591","3XUSYT70ITN3RRKBJPNBFGD6FGOD06","","<img src=""img/set1/S1.jpg"" width=""540"" height = ""360"" style=""border:16px solid orange"">","null","","","","","","","",""
"null","","html-keyboard-response","415","262334","0.0-344.0","32VNZTT0A8QGD9JBBTAZLRG9JKLR4Z","A1SOFLJOEQB591","3XUSYT70ITN3RRKBJPNBFGD6FGOD06","","","null","","","","","","","",""
"1075.3999999910593","","image-keyboard-response","416","263411","0.0-345.0","32VNZTT0A8QGD9JBBTAZLRG9JKLR4Z","A1SOFLJOEQB591","3XUSYT70ITN3RRKBJPNBFGD6FGOD06","","img/set1/S4.jpg","74","4","random","74","true","random,structured_incentive,structured_normal","1,2,2,3","",""
"null","","html-keyboard-response","417","263768","0.0-346.0","32VNZTT0A8QGD9JBBTAZLRG9JKLR4Z","A1SOFLJOEQB591","3XUSYT70ITN3RRKBJPNBFGD6FGOD06","","<img src=""img/set1/S4.jpg"" width=""540"" height = ""360"" style=""border:16px solid orange"">","null","","","","","","","",""
"null","","html-keyboard-response","418","263770","0.0-347.0","32VNZTT0A8QGD9JBBTAZLRG9JKLR4Z","A1SOFLJOEQB591","3XUSYT70ITN3RRKBJPNBFGD6FGOD06","","","null","","","","","","","",""
"792.5","","image-keyboard-response","419","264564","0.0-348.0","32VNZTT0A8QGD9JBBTAZLRG9JKLR4Z","A1SOFLJOEQB591","3XUSYT70ITN3RRKBJPNBFGD6FGOD06","","img/set1/S2.jpg","68","2","random","68","true","random,structured_incentive,structured_normal","1,2,2,3","",""
"null","","html-keyboard-response","420","264917","0.0-349.0","32VNZTT0A8QGD9JBBTAZLRG9JKLR4Z","A1SOFLJOEQB591","3XUSYT70ITN3RRKBJPNBFGD6FGOD06","","<img src=""img/set1/S2.jpg"" width=""540"" height = ""360"" style=""border:16px solid orange"">","null","","","","","","","",""
"null","","html-keyboard-response","421","264919","0.0-350.0","32VNZTT0A8QGD9JBBTAZLRG9JKLR4Z","A1SOFLJOEQB591","3XUSYT70ITN3RRKBJPNBFGD6FGOD06","","","null","","","","","","","",""
"1012.9000000059605","","image-keyboard-response","422","265933","0.0-351.0","32VNZTT0A8QGD9JBBTAZLRG9JKLR4Z","A1SOFLJOEQB591","3XUSYT70ITN3RRKBJPNBFGD6FGOD06","","img/set1/S4.jpg","74","4","random","74","true","random,structured_incentive,structured_normal","1,2,2,3","",""
