"rt","url","trial_type","trial_index","time_elapsed","internal_node_id","assignmentID","mturkID","hitID","view_history","stimulus","key_press","state","test_part","correct_response","correct","order_block","order_chunk","bonus","responses"
"29113.5","consent.html","external-html","0","29203","0.0-0.0","382M9COHEI1QL38L4THHZOFK38MEUZ","A1V1JNPU0KOA3X","33Q5P9PUSP8QOKKNNN5S19YACNVCZX","","","","","","","","","","",""
"110728.39999999851","","instructions","1","139934","0.0-1.0","382M9COHEI1QL38L4THHZOFK38MEUZ","A1V1JNPU0KOA3X","33Q5P9PUSP8QOKKNNN5S19YACNVCZX","[{""page_index"":0,""viewing_time"":6474},{""page_index"":1,""viewing_time"":11315.39999999851},{""page_index"":2,""viewing_time"":13720.10000000149},{""page_index"":3,""viewing_time"":20851.39999999851},{""page_index"":4,""viewing_time"":11310.400000002235},{""page_index"":5,""viewing_time"":16015.89999999851},{""page_index"":6,""viewing_time"":8869.699999999255},{""page_index"":7,""viewing_time"":22170.400000002235}]","","","","","","","","","",""
"755.5999999977648","","image-keyboard-response","2","140692","0.0-2.0-0.0","382M9COHEI1QL38L4THHZOFK38MEUZ","A1V1JNPU0KOA3X","33Q5P9PUSP8QOKKNNN5S19YACNVCZX","","img/practice/S4.jpg","83","4","practice","74","false","","","",""
"null","","html-keyboard-response","3","140996","0.0-2.0-1.0","382M9COHEI1QL38L4THHZOFK38MEUZ","A1V1JNPU0KOA3X","33Q5P9PUSP8QOKKNNN5S19YACNVCZX","","<img src=""img/practice/S4.jpg"" width=""540"" height = ""360"">","null","","","","","","","",""
"null","","html-keyboard-response","4","140998","0.0-2.0-2.0","382M9COHEI1QL38L4THHZOFK38MEUZ","A1V1JNPU0KOA3X","33Q5P9PUSP8QOKKNNN5S19YACNVCZX","","","null","","","","","","","",""
"1299.1000000014901","","image-keyboard-response","5","142300","0.0-2.0-0.1","382M9COHEI1QL38L4THHZOFK38MEUZ","A1V1JNPU0KOA3X","33Q5P9PUSP8QOKKNNN5S19YACNVCZX","","img/practice/S2.jpg","68","2","practice","68","true","","","",""
"null","","html-keyboard-response","6","142605","0.0-2.0-1.1","382M9COHEI1QL38L4THHZOFK38MEUZ","A1V1JNPU0KOA3X","33Q5P9PUSP8QOKKNNN5S19YACNVCZX","","<img src=""img/practice/S2.jpg"" width=""540"" height = ""360"" style=""border:16px solid orange"">","null","","","","","","","",""
"null","","html-keyboard-response","7","142609","0.0-2.0-2.1","382M9COHEI1QL38L4THHZOFK38MEUZ","A1V1JNPU0KOA3X","33Q5P9PUSP8QOKKNNN5S19YACNVCZX","","","null","","","","","","","",""
"1402.0999999977648","","image-keyboard-response","8","144013","0.0-2.0-0.2","382M9COHEI1QL38L4THHZOFK38MEUZ","A1V1JNPU0KOA3X","33Q5P9PUSP8QOKKNNN5S19YACNVCZX","","img/practice/S3.jpg","68","3","practice","72","false","","","",""
"null","","html-keyboard-response","9","144326","0.0-2.0-1.2","382M9COHEI1QL38L4THHZOFK38MEUZ","A1V1JNPU0KOA3X","33Q5P9PUSP8QOKKNNN5S19YACNVCZX","","<img src=""img/practice/S3.jpg"" width=""540"" height = ""360"">","null","","","","","","","",""
"null","","html-keyboard-response","10","144328","0.0-2.0-2.2","382M9COHEI1QL38L4THHZOFK38MEUZ","A1V1JNPU0KOA3X","33Q5P9PUSP8QOKKNNN5S19YACNVCZX","","","null","","","","","","","",""
"1275.4000000022352","","image-keyboard-response","11","145605","0.0-2.0-0.3","382M9COHEI1QL38L4THHZOFK38MEUZ","A1V1JNPU0KOA3X","33Q5P9PUSP8QOKKNNN5S19YACNVCZX","","img/practice/S1.jpg","74","1","practice","83","false","","","",""
"null","","html-keyboard-response","12","145920","0.0-2.0-1.3","382M9COHEI1QL38L4THHZOFK38MEUZ","A1V1JNPU0KOA3X","33Q5P9PUSP8QOKKNNN5S19YACNVCZX","","<img src=""img/practice/S1.jpg"" width=""540"" height = ""360"">","null","","","","","","","",""
"null","","html-keyboard-response","13","145922","0.0-2.0-2.3","382M9COHEI1QL38L4THHZOFK38MEUZ","A1V1JNPU0KOA3X","33Q5P9PUSP8QOKKNNN5S19YACNVCZX","","","null","","","","","","","",""
"1605.7000000029802","","image-keyboard-response","14","147529","0.0-2.0-0.4","382M9COHEI1QL38L4THHZOFK38MEUZ","A1V1JNPU0KOA3X","33Q5P9PUSP8QOKKNNN5S19YACNVCZX","","img/practice/S3.jpg","68","3","practice","72","false","","","",""
"null","","html-keyboard-response","15","147840","0.0-2.0-1.4","382M9COHEI1QL38L4THHZOFK38MEUZ","A1V1JNPU0KOA3X","33Q5P9PUSP8QOKKNNN5S19YACNVCZX","","<img src=""img/practice/S3.jpg"" width=""540"" height = ""360"">","null","","","","","","","",""
"null","","html-keyboard-response","16","147842","0.0-2.0-2.4","382M9COHEI1QL38L4THHZOFK38MEUZ","A1V1JNPU0KOA3X","33Q5P9PUSP8QOKKNNN5S19YACNVCZX","","","null","","","","","","","",""
"1076.5","","image-keyboard-response","17","148920","0.0-2.0-0.5","382M9COHEI1QL38L4THHZOFK38MEUZ","A1V1JNPU0KOA3X","33Q5P9PUSP8QOKKNNN5S19YACNVCZX","","img/practice/S1.jpg","83","1","practice","83","true","","","",""
"null","","html-keyboard-response","18","149236","0.0-2.0-1.5","382M9COHEI1QL38L4THHZOFK38MEUZ","A1V1JNPU0KOA3X","33Q5P9PUSP8QOKKNNN5S19YACNVCZX","","<img src=""img/practice/S1.jpg"" width=""540"" height = ""360"" style=""border:16px solid orange"">","null","","","","","","","",""
"null","","html-keyboard-response","19","149238","0.0-2.0-2.5","382M9COHEI1QL38L4THHZOFK38MEUZ","A1V1JNPU0KOA3X","33Q5P9PUSP8QOKKNNN5S19YACNVCZX","","","null","","","","","","","",""
"1150.9000000022352","","image-keyboard-response","20","150390","0.0-2.0-0.6","382M9COHEI1QL38L4THHZOFK38MEUZ","A1V1JNPU0KOA3X","33Q5P9PUSP8QOKKNNN5S19YACNVCZX","","img/practice/S4.jpg","68","4","practice","74","false","","","",""
"null","","html-keyboard-response","21","150700","0.0-2.0-1.6","382M9COHEI1QL38L4THHZOFK38MEUZ","A1V1JNPU0KOA3X","33Q5P9PUSP8QOKKNNN5S19YACNVCZX","","<img src=""img/practice/S4.jpg"" width=""540"" height = ""360"">","null","","","","","","","",""
"null","","html-keyboard-response","22","150702","0.0-2.0-2.6","382M9COHEI1QL38L4THHZOFK38MEUZ","A1V1JNPU0KOA3X","33Q5P9PUSP8QOKKNNN5S19YACNVCZX","","","null","","","","","","","",""
"1196.3999999985099","","image-keyboard-response","23","151900","0.0-2.0-0.7","382M9COHEI1QL38L4THHZOFK38MEUZ","A1V1JNPU0KOA3X","33Q5P9PUSP8QOKKNNN5S19YACNVCZX","","img/practice/S2.jpg","74","2","practice","68","false","","","",""
"null","","html-keyboard-response","24","152214","0.0-2.0-1.7","382M9COHEI1QL38L4THHZOFK38MEUZ","A1V1JNPU0KOA3X","33Q5P9PUSP8QOKKNNN5S19YACNVCZX","","<img src=""img/practice/S2.jpg"" width=""540"" height = ""360"">","null","","","","","","","",""
"null","","html-keyboard-response","25","152216","0.0-2.0-2.7","382M9COHEI1QL38L4THHZOFK38MEUZ","A1V1JNPU0KOA3X","33Q5P9PUSP8QOKKNNN5S19YACNVCZX","","","null","","","","","","","",""
"null","","image-keyboard-response","26","154721","0.0-2.0-0.8","382M9COHEI1QL38L4THHZOFK38MEUZ","A1V1JNPU0KOA3X","33Q5P9PUSP8QOKKNNN5S19YACNVCZX","","img/practice/S3.jpg","null","3","practice","72","false","","","",""
"null","","html-keyboard-response","27","155031","0.0-2.0-1.8","382M9COHEI1QL38L4THHZOFK38MEUZ","A1V1JNPU0KOA3X","33Q5P9PUSP8QOKKNNN5S19YACNVCZX","","<img src=""img/practice/S3.jpg"" width=""540"" height = ""360"">","null","","","","","","","",""
"null","","html-keyboard-response","28","155037","0.0-2.0-2.8","382M9COHEI1QL38L4THHZOFK38MEUZ","A1V1JNPU0KOA3X","33Q5P9PUSP8QOKKNNN5S19YACNVCZX","","","null","","","","","","","",""
"1276.8999999985099","","image-keyboard-response","29","156315","0.0-2.0-0.9","382M9COHEI1QL38L4THHZOFK38MEUZ","A1V1JNPU0KOA3X","33Q5P9PUSP8QOKKNNN5S19YACNVCZX","","img/practice/S1.jpg","72","1","practice","83","false","","","",""
"null","","html-keyboard-response","30","156627","0.0-2.0-1.9","382M9COHEI1QL38L4THHZOFK38MEUZ","A1V1JNPU0KOA3X","33Q5P9PUSP8QOKKNNN5S19YACNVCZX","","<img src=""img/practice/S1.jpg"" width=""540"" height = ""360"">","null","","","","","","","",""
"null","","html-keyboard-response","31","156629","0.0-2.0-2.9","382M9COHEI1QL38L4THHZOFK38MEUZ","A1V1JNPU0KOA3X","33Q5P9PUSP8QOKKNNN5S19YACNVCZX","","","null","","","","","","","",""
"1719.5","","image-keyboard-response","32","158350","0.0-2.0-0.10","382M9COHEI1QL38L4THHZOFK38MEUZ","A1V1JNPU0KOA3X","33Q5P9PUSP8QOKKNNN5S19YACNVCZX","","img/practice/S4.jpg","72","4","practice","74","false","","","",""
"null","","html-keyboard-response","33","158657","0.0-2.0-1.10","382M9COHEI1QL38L4THHZOFK38MEUZ","A1V1JNPU0KOA3X","33Q5P9PUSP8QOKKNNN5S19YACNVCZX","","<img src=""img/practice/S4.jpg"" width=""540"" height = ""360"">","null","","","","","","","",""
"null","","html-keyboard-response","34","158659","0.0-2.0-2.10","382M9COHEI1QL38L4THHZOFK38MEUZ","A1V1JNPU0KOA3X","33Q5P9PUSP8QOKKNNN5S19YACNVCZX","","","null","","","","","","","",""
"1250.7000000029802","","image-keyboard-response","35","159911","0.0-2.0-0.11","382M9COHEI1QL38L4THHZOFK38MEUZ","A1V1JNPU0KOA3X","33Q5P9PUSP8QOKKNNN5S19YACNVCZX","","img/practice/S2.jpg","72","2","practice","68","false","","","",""
"null","","html-keyboard-response","36","160226","0.0-2.0-1.11","382M9COHEI1QL38L4THHZOFK38MEUZ","A1V1JNPU0KOA3X","33Q5P9PUSP8QOKKNNN5S19YACNVCZX","","<img src=""img/practice/S2.jpg"" width=""540"" height = ""360"">","null","","","","","","","",""
"null","","html-keyboard-response","37","160228","0.0-2.0-2.11","382M9COHEI1QL38L4THHZOFK38MEUZ","A1V1JNPU0KOA3X","33Q5P9PUSP8QOKKNNN5S19YACNVCZX","","","null","","","","","","","",""
"1328.5","","image-keyboard-response","38","161558","0.0-2.0-0.12","382M9COHEI1QL38L4THHZOFK38MEUZ","A1V1JNPU0KOA3X","33Q5P9PUSP8QOKKNNN5S19YACNVCZX","","img/practice/S1.jpg","74","1","practice","83","false","","","",""
"null","","html-keyboard-response","39","161871","0.0-2.0-1.12","382M9COHEI1QL38L4THHZOFK38MEUZ","A1V1JNPU0KOA3X","33Q5P9PUSP8QOKKNNN5S19YACNVCZX","","<img src=""img/practice/S1.jpg"" width=""540"" height = ""360"">","null","","","","","","","",""
"null","","html-keyboard-response","40","161873","0.0-2.0-2.12","382M9COHEI1QL38L4THHZOFK38MEUZ","A1V1JNPU0KOA3X","33Q5P9PUSP8QOKKNNN5S19YACNVCZX","","","null","","","","","","","",""
"1142.199999999255","","image-keyboard-response","41","163017","0.0-2.0-0.13","382M9COHEI1QL38L4THHZOFK38MEUZ","A1V1JNPU0KOA3X","33Q5P9PUSP8QOKKNNN5S19YACNVCZX","","img/practice/S4.jpg","83","4","practice","74","false","","","",""
"null","","html-keyboard-response","42","163333","0.0-2.0-1.13","382M9COHEI1QL38L4THHZOFK38MEUZ","A1V1JNPU0KOA3X","33Q5P9PUSP8QOKKNNN5S19YACNVCZX","","<img src=""img/practice/S4.jpg"" width=""540"" height = ""360"">","null","","","","","","","",""
"null","","html-keyboard-response","43","163335","0.0-2.0-2.13","382M9COHEI1QL38L4THHZOFK38MEUZ","A1V1JNPU0KOA3X","33Q5P9PUSP8QOKKNNN5S19YACNVCZX","","","null","","","","","","","",""
"1476.6000000014901","","image-keyboard-response","44","164814","0.0-2.0-0.14","382M9COHEI1QL38L4THHZOFK38MEUZ","A1V1JNPU0KOA3X","33Q5P9PUSP8QOKKNNN5S19YACNVCZX","","img/practice/S3.jpg","68","3","practice","72","false","","","",""
"null","","html-keyboard-response","45","165118","0.0-2.0-1.14","382M9COHEI1QL38L4THHZOFK38MEUZ","A1V1JNPU0KOA3X","33Q5P9PUSP8QOKKNNN5S19YACNVCZX","","<img src=""img/practice/S3.jpg"" width=""540"" height = ""360"">","null","","","","","","","",""
"null","","html-keyboard-response","46","165121","0.0-2.0-2.14","382M9COHEI1QL38L4THHZOFK38MEUZ","A1V1JNPU0KOA3X","33Q5P9PUSP8QOKKNNN5S19YACNVCZX","","","null","","","","","","","",""
"1528.3999999985099","","image-keyboard-response","47","166651","0.0-2.0-0.15","382M9COHEI1QL38L4THHZOFK38MEUZ","A1V1JNPU0KOA3X","33Q5P9PUSP8QOKKNNN5S19YACNVCZX","","img/practice/S2.jpg","68","2","practice","68","true","","","",""
"null","","html-keyboard-response","48","166967","0.0-2.0-1.15","382M9COHEI1QL38L4THHZOFK38MEUZ","A1V1JNPU0KOA3X","33Q5P9PUSP8QOKKNNN5S19YACNVCZX","","<img src=""img/practice/S2.jpg"" width=""540"" height = ""360"" style=""border:16px solid orange"">","null","","","","","","","",""
"null","","html-keyboard-response","49","166970","0.0-2.0-2.15","382M9COHEI1QL38L4THHZOFK38MEUZ","A1V1JNPU0KOA3X","33Q5P9PUSP8QOKKNNN5S19YACNVCZX","","","null","","","","","","","",""
"1344.699999999255","","image-keyboard-response","50","168316","0.0-2.0-0.16","382M9COHEI1QL38L4THHZOFK38MEUZ","A1V1JNPU0KOA3X","33Q5P9PUSP8QOKKNNN5S19YACNVCZX","","img/practice/S4.jpg","83","4","practice","74","false","","","",""
"null","","html-keyboard-response","51","168631","0.0-2.0-1.16","382M9COHEI1QL38L4THHZOFK38MEUZ","A1V1JNPU0KOA3X","33Q5P9PUSP8QOKKNNN5S19YACNVCZX","","<img src=""img/practice/S4.jpg"" width=""540"" height = ""360"">","null","","","","","","","",""
"null","","html-keyboard-response","52","168633","0.0-2.0-2.16","382M9COHEI1QL38L4THHZOFK38MEUZ","A1V1JNPU0KOA3X","33Q5P9PUSP8QOKKNNN5S19YACNVCZX","","","null","","","","","","","",""
"1071","","image-keyboard-response","53","169706","0.0-2.0-0.17","382M9COHEI1QL38L4THHZOFK38MEUZ","A1V1JNPU0KOA3X","33Q5P9PUSP8QOKKNNN5S19YACNVCZX","","img/practice/S1.jpg","83","1","practice","83","true","","","",""
"null","","html-keyboard-response","54","170019","0.0-2.0-1.17","382M9COHEI1QL38L4THHZOFK38MEUZ","A1V1JNPU0KOA3X","33Q5P9PUSP8QOKKNNN5S19YACNVCZX","","<img src=""img/practice/S1.jpg"" width=""540"" height = ""360"" style=""border:16px solid orange"">","null","","","","","","","",""
"null","","html-keyboard-response","55","170022","0.0-2.0-2.17","382M9COHEI1QL38L4THHZOFK38MEUZ","A1V1JNPU0KOA3X","33Q5P9PUSP8QOKKNNN5S19YACNVCZX","","","null","","","","","","","",""
"1409","","image-keyboard-response","56","171433","0.0-2.0-0.18","382M9COHEI1QL38L4THHZOFK38MEUZ","A1V1JNPU0KOA3X","33Q5P9PUSP8QOKKNNN5S19YACNVCZX","","img/practice/S2.jpg","72","2","practice","68","false","","","",""
"null","","html-keyboard-response","57","171745","0.0-2.0-1.18","382M9COHEI1QL38L4THHZOFK38MEUZ","A1V1JNPU0KOA3X","33Q5P9PUSP8QOKKNNN5S19YACNVCZX","","<img src=""img/practice/S2.jpg"" width=""540"" height = ""360"">","null","","","","","","","",""
"null","","html-keyboard-response","58","171748","0.0-2.0-2.18","382M9COHEI1QL38L4THHZOFK38MEUZ","A1V1JNPU0KOA3X","33Q5P9PUSP8QOKKNNN5S19YACNVCZX","","","null","","","","","","","",""
"1423.300000000745","","image-keyboard-response","59","173173","0.0-2.0-0.19","382M9COHEI1QL38L4THHZOFK38MEUZ","A1V1JNPU0KOA3X","33Q5P9PUSP8QOKKNNN5S19YACNVCZX","","img/practice/S3.jpg","72","3","practice","72","true","","","",""
"null","","html-keyboard-response","60","173483","0.0-2.0-1.19","382M9COHEI1QL38L4THHZOFK38MEUZ","A1V1JNPU0KOA3X","33Q5P9PUSP8QOKKNNN5S19YACNVCZX","","<img src=""img/practice/S3.jpg"" width=""540"" height = ""360"" style=""border:16px solid orange"">","null","","","","","","","",""
"null","","html-keyboard-response","61","173485","0.0-2.0-2.19","382M9COHEI1QL38L4THHZOFK38MEUZ","A1V1JNPU0KOA3X","33Q5P9PUSP8QOKKNNN5S19YACNVCZX","","","null","","","","","","","",""
"2206.39999999851","","image-keyboard-response","62","175693","0.0-2.0-0.20","382M9COHEI1QL38L4THHZOFK38MEUZ","A1V1JNPU0KOA3X","33Q5P9PUSP8QOKKNNN5S19YACNVCZX","","img/practice/S1.jpg","68","1","practice","83","false","","","",""
"null","","html-keyboard-response","63","176008","0.0-2.0-1.20","382M9COHEI1QL38L4THHZOFK38MEUZ","A1V1JNPU0KOA3X","33Q5P9PUSP8QOKKNNN5S19YACNVCZX","","<img src=""img/practice/S1.jpg"" width=""540"" height = ""360"">","null","","","","","","","",""
"null","","html-keyboard-response","64","176011","0.0-2.0-2.20","382M9COHEI1QL38L4THHZOFK38MEUZ","A1V1JNPU0KOA3X","33Q5P9PUSP8QOKKNNN5S19YACNVCZX","","","null","","","","","","","",""
"1319.699999999255","","image-keyboard-response","65","177333","0.0-2.0-0.21","382M9COHEI1QL38L4THHZOFK38MEUZ","A1V1JNPU0KOA3X","33Q5P9PUSP8QOKKNNN5S19YACNVCZX","","img/practice/S3.jpg","72","3","practice","72","true","","","",""
"null","","html-keyboard-response","66","177645","0.0-2.0-1.21","382M9COHEI1QL38L4THHZOFK38MEUZ","A1V1JNPU0KOA3X","33Q5P9PUSP8QOKKNNN5S19YACNVCZX","","<img src=""img/practice/S3.jpg"" width=""540"" height = ""360"" style=""border:16px solid orange"">","null","","","","","","","",""
"null","","html-keyboard-response","67","177647","0.0-2.0-2.21","382M9COHEI1QL38L4THHZOFK38MEUZ","A1V1JNPU0KOA3X","33Q5P9PUSP8QOKKNNN5S19YACNVCZX","","","null","","","","","","","",""
"2080.699999999255","","image-keyboard-response","68","179730","0.0-2.0-0.22","382M9COHEI1QL38L4THHZOFK38MEUZ","A1V1JNPU0KOA3X","33Q5P9PUSP8QOKKNNN5S19YACNVCZX","","img/practice/S4.jpg","68","4","practice","74","false","","","",""
"null","","html-keyboard-response","69","180036","0.0-2.0-1.22","382M9COHEI1QL38L4THHZOFK38MEUZ","A1V1JNPU0KOA3X","33Q5P9PUSP8QOKKNNN5S19YACNVCZX","","<img src=""img/practice/S4.jpg"" width=""540"" height = ""360"">","null","","","","","","","",""
"null","","html-keyboard-response","70","180041","0.0-2.0-2.22","382M9COHEI1QL38L4THHZOFK38MEUZ","A1V1JNPU0KOA3X","33Q5P9PUSP8QOKKNNN5S19YACNVCZX","","","null","","","","","","","",""
"1651.6000000014901","","image-keyboard-response","71","181693","0.0-2.0-0.23","382M9COHEI1QL38L4THHZOFK38MEUZ","A1V1JNPU0KOA3X","33Q5P9PUSP8QOKKNNN5S19YACNVCZX","","img/practice/S2.jpg","74","2","practice","68","false","","","",""
"null","","html-keyboard-response","72","182002","0.0-2.0-1.23","382M9COHEI1QL38L4THHZOFK38MEUZ","A1V1JNPU0KOA3X","33Q5P9PUSP8QOKKNNN5S19YACNVCZX","","<img src=""img/practice/S2.jpg"" width=""540"" height = ""360"">","null","","","","","","","",""
"null","","html-keyboard-response","73","182004","0.0-2.0-2.23","382M9COHEI1QL38L4THHZOFK38MEUZ","A1V1JNPU0KOA3X","33Q5P9PUSP8QOKKNNN5S19YACNVCZX","","","null","","","","","","","",""
"10876.89999999851","","instructions","74","192882","0.0-3.0","382M9COHEI1QL38L4THHZOFK38MEUZ","A1V1JNPU0KOA3X","33Q5P9PUSP8QOKKNNN5S19YACNVCZX","[{""page_index"":0,""viewing_time"":10876.39999999851}]","","","","","","","","","",""
"12077.199999999255","","instructions","75","204960","0.0-4.0","382M9COHEI1QL38L4THHZOFK38MEUZ","A1V1JNPU0KOA3X","33Q5P9PUSP8QOKKNNN5S19YACNVCZX","[{""page_index"":0,""viewing_time"":12076.800000000745}]","","","","","","","","","",""
"29767.10000000149","","instructions","76","234727","0.0-5.0","382M9COHEI1QL38L4THHZOFK38MEUZ","A1V1JNPU0KOA3X","33Q5P9PUSP8QOKKNNN5S19YACNVCZX","[{""page_index"":0,""viewing_time"":18264.39999999851},{""page_index"":1,""viewing_time"":11502.20000000298}]","","","","","","","","","",""
"1033.800000000745","","image-keyboard-response","77","235762","0.0-6.0","382M9COHEI1QL38L4THHZOFK38MEUZ","A1V1JNPU0KOA3X","33Q5P9PUSP8QOKKNNN5S19YACNVCZX","","img/set1/S4.jpg","83","4","structured_incentive","74","false","structured_incentive,random,structured_normal","1,2,2,3","",""
"null","","html-keyboard-response","78","236133","0.0-7.0","382M9COHEI1QL38L4THHZOFK38MEUZ","A1V1JNPU0KOA3X","33Q5P9PUSP8QOKKNNN5S19YACNVCZX","","<img src=""img/set1/S4.jpg"" width=""540"" height = ""360"">","null","","","","","","","",""
"null","","html-keyboard-response","79","236136","0.0-8.0","382M9COHEI1QL38L4THHZOFK38MEUZ","A1V1JNPU0KOA3X","33Q5P9PUSP8QOKKNNN5S19YACNVCZX","","","null","","","","","","","",""
"1704.9000000022352","","image-keyboard-response","80","237842","0.0-9.0","382M9COHEI1QL38L4THHZOFK38MEUZ","A1V1JNPU0KOA3X","33Q5P9PUSP8QOKKNNN5S19YACNVCZX","","img/set1/S2.jpg","83","2","structured_incentive","68","false","structured_incentive,random,structured_normal","1,2,2,3","",""
"null","","html-keyboard-response","81","238210","0.0-10.0","382M9COHEI1QL38L4THHZOFK38MEUZ","A1V1JNPU0KOA3X","33Q5P9PUSP8QOKKNNN5S19YACNVCZX","","<img src=""img/set1/S2.jpg"" width=""540"" height = ""360"">","null","","","","","","","",""
"null","","html-keyboard-response","82","238213","0.0-11.0","382M9COHEI1QL38L4THHZOFK38MEUZ","A1V1JNPU0KOA3X","33Q5P9PUSP8QOKKNNN5S19YACNVCZX","","","null","","","","","","","",""
"1761.5","","image-keyboard-response","83","239976","0.0-12.0","382M9COHEI1QL38L4THHZOFK38MEUZ","A1V1JNPU0KOA3X","33Q5P9PUSP8QOKKNNN5S19YACNVCZX","","img/set1/S3.jpg","83","3","structured_incentive","72","false","structured_incentive,random,structured_normal","1,2,2,3","",""
"null","","html-keyboard-response","84","240339","0.0-13.0","382M9COHEI1QL38L4THHZOFK38MEUZ","A1V1JNPU0KOA3X","33Q5P9PUSP8QOKKNNN5S19YACNVCZX","","<img src=""img/set1/S3.jpg"" width=""540"" height = ""360"">","null","","","","","","","",""
"null","","html-keyboard-response","85","240341","0.0-14.0","382M9COHEI1QL38L4THHZOFK38MEUZ","A1V1JNPU0KOA3X","33Q5P9PUSP8QOKKNNN5S19YACNVCZX","","","null","","","","","","","",""
"1428.800000000745","","image-keyboard-response","86","241772","0.0-15.0","382M9COHEI1QL38L4THHZOFK38MEUZ","A1V1JNPU0KOA3X","33Q5P9PUSP8QOKKNNN5S19YACNVCZX","","img/set1/S4.jpg","68","4","structured_incentive","74","false","structured_incentive,random,structured_normal","1,2,2,3","",""
"null","","html-keyboard-response","87","242137","0.0-16.0","382M9COHEI1QL38L4THHZOFK38MEUZ","A1V1JNPU0KOA3X","33Q5P9PUSP8QOKKNNN5S19YACNVCZX","","<img src=""img/set1/S4.jpg"" width=""540"" height = ""360"">","null","","","","","","","",""
"null","","html-keyboard-response","88","242140","0.0-17.0","382M9COHEI1QL38L4THHZOFK38MEUZ","A1V1JNPU0KOA3X","33Q5P9PUSP8QOKKNNN5S19YACNVCZX","","","null","","","","","","","",""
"1274.3999999985099","","image-keyboard-response","89","243416","0.0-18.0","382M9COHEI1QL38L4THHZOFK38MEUZ","A1V1JNPU0KOA3X","33Q5P9PUSP8QOKKNNN5S19YACNVCZX","","img/set1/S4.jpg","74","4","structured_incentive","74","true","structured_incentive,random,structured_normal","1,2,2,3","",""
"null","","html-keyboard-response","90","243783","0.0-19.0","382M9COHEI1QL38L4THHZOFK38MEUZ","A1V1JNPU0KOA3X","33Q5P9PUSP8QOKKNNN5S19YACNVCZX","","<img src=""img/set1/S4.jpg"" width=""540"" height = ""360"" style=""border:16px solid orange"">","null","","","","","","","",""
"null","","html-keyboard-response","91","243785","0.0-20.0","382M9COHEI1QL38L4THHZOFK38MEUZ","A1V1JNPU0KOA3X","33Q5P9PUSP8QOKKNNN5S19YACNVCZX","","","null","","","","","","","",""
"1095.8999999985099","","image-keyboard-response","92","244883","0.0-21.0","382M9COHEI1QL38L4THHZOFK38MEUZ","A1V1JNPU0KOA3X","33Q5P9PUSP8QOKKNNN5S19YACNVCZX","","img/set1/S4.jpg","74","4","structured_incentive","74","true","structured_incentive,random,structured_normal","1,2,2,3","",""
"null","","html-keyboard-response","93","245235","0.0-22.0","382M9COHEI1QL38L4THHZOFK38MEUZ","A1V1JNPU0KOA3X","33Q5P9PUSP8QOKKNNN5S19YACNVCZX","","<img src=""img/set1/S4.jpg"" width=""540"" height = ""360"" style=""border:16px solid orange"">","null","","","","","","","",""
"null","","html-keyboard-response","94","245237","0.0-23.0","382M9COHEI1QL38L4THHZOFK38MEUZ","A1V1JNPU0KOA3X","33Q5P9PUSP8QOKKNNN5S19YACNVCZX","","","null","","","","","","","",""
"1642.5","","image-keyboard-response","95","246882","0.0-24.0","382M9COHEI1QL38L4THHZOFK38MEUZ","A1V1JNPU0KOA3X","33Q5P9PUSP8QOKKNNN5S19YACNVCZX","","img/set1/S1.jpg","83","1","structured_incentive","83","true","structured_incentive,random,structured_normal","1,2,2,3","",""
"null","","html-keyboard-response","96","247239","0.0-25.0","382M9COHEI1QL38L4THHZOFK38MEUZ","A1V1JNPU0KOA3X","33Q5P9PUSP8QOKKNNN5S19YACNVCZX","","<img src=""img/set1/S1.jpg"" width=""540"" height = ""360"" style=""border:16px solid orange"">","null","","","","","","","",""
"null","","html-keyboard-response","97","247241","0.0-26.0","382M9COHEI1QL38L4THHZOFK38MEUZ","A1V1JNPU0KOA3X","33Q5P9PUSP8QOKKNNN5S19YACNVCZX","","","null","","","","","","","",""
"null","","image-keyboard-response","98","249748","0.0-27.0","382M9COHEI1QL38L4THHZOFK38MEUZ","A1V1JNPU0KOA3X","33Q5P9PUSP8QOKKNNN5S19YACNVCZX","","img/set1/S2.jpg","null","2","structured_incentive","68","false","structured_incentive,random,structured_normal","1,2,2,3","",""
"null","","html-keyboard-response","99","250114","0.0-28.0","382M9COHEI1QL38L4THHZOFK38MEUZ","A1V1JNPU0KOA3X","33Q5P9PUSP8QOKKNNN5S19YACNVCZX","","<img src=""img/set1/S2.jpg"" width=""540"" height = ""360"">","null","","","","","","","",""
"null","","html-keyboard-response","100","250120","0.0-29.0","382M9COHEI1QL38L4THHZOFK38MEUZ","A1V1JNPU0KOA3X","33Q5P9PUSP8QOKKNNN5S19YACNVCZX","","","null","","","","","","","",""
"1334.8999999985099","","image-keyboard-response","101","251456","0.0-30.0","382M9COHEI1QL38L4THHZOFK38MEUZ","A1V1JNPU0KOA3X","33Q5P9PUSP8QOKKNNN5S19YACNVCZX","","img/set1/S4.jpg","74","4","structured_incentive","74","true","structured_incentive,random,structured_normal","1,2,2,3","",""
"null","","html-keyboard-response","102","251812","0.0-31.0","382M9COHEI1QL38L4THHZOFK38MEUZ","A1V1JNPU0KOA3X","33Q5P9PUSP8QOKKNNN5S19YACNVCZX","","<img src=""img/set1/S4.jpg"" width=""540"" height = ""360"" style=""border:16px solid orange"">","null","","","","","","","",""
"null","","html-keyboard-response","103","251815","0.0-32.0","382M9COHEI1QL38L4THHZOFK38MEUZ","A1V1JNPU0KOA3X","33Q5P9PUSP8QOKKNNN5S19YACNVCZX","","","null","","","","","","","",""
"1727","","image-keyboard-response","104","253544","0.0-33.0","382M9COHEI1QL38L4THHZOFK38MEUZ","A1V1JNPU0KOA3X","33Q5P9PUSP8QOKKNNN5S19YACNVCZX","","img/set1/S3.jpg","68","3","structured_incentive","72","false","structured_incentive,random,structured_normal","1,2,2,3","",""
"null","","html-keyboard-response","105","253897","0.0-34.0","382M9COHEI1QL38L4THHZOFK38MEUZ","A1V1JNPU0KOA3X","33Q5P9PUSP8QOKKNNN5S19YACNVCZX","","<img src=""img/set1/S3.jpg"" width=""540"" height = ""360"">","null","","","","","","","",""
"null","","html-keyboard-response","106","253899","0.0-35.0","382M9COHEI1QL38L4THHZOFK38MEUZ","A1V1JNPU0KOA3X","33Q5P9PUSP8QOKKNNN5S19YACNVCZX","","","null","","","","","","","",""
"null","","image-keyboard-response","107","256401","0.0-36.0","382M9COHEI1QL38L4THHZOFK38MEUZ","A1V1JNPU0KOA3X","33Q5P9PUSP8QOKKNNN5S19YACNVCZX","","img/set1/S1.jpg","null","1","structured_incentive","83","false","structured_incentive,random,structured_normal","1,2,2,3","",""
"null","","html-keyboard-response","108","256761","0.0-37.0","382M9COHEI1QL38L4THHZOFK38MEUZ","A1V1JNPU0KOA3X","33Q5P9PUSP8QOKKNNN5S19YACNVCZX","","<img src=""img/set1/S1.jpg"" width=""540"" height = ""360"">","null","","","","","","","",""
"null","","html-keyboard-response","109","256767","0.0-38.0","382M9COHEI1QL38L4THHZOFK38MEUZ","A1V1JNPU0KOA3X","33Q5P9PUSP8QOKKNNN5S19YACNVCZX","","","null","","","","","","","",""
"1760.9000000022352","","image-keyboard-response","110","258529","0.0-39.0","382M9COHEI1QL38L4THHZOFK38MEUZ","A1V1JNPU0KOA3X","33Q5P9PUSP8QOKKNNN5S19YACNVCZX","","img/set1/S2.jpg","68","2","structured_incentive","68","true","structured_incentive,random,structured_normal","1,2,2,3","",""
"null","","html-keyboard-response","111","258894","0.0-40.0","382M9COHEI1QL38L4THHZOFK38MEUZ","A1V1JNPU0KOA3X","33Q5P9PUSP8QOKKNNN5S19YACNVCZX","","<img src=""img/set1/S2.jpg"" width=""540"" height = ""360"" style=""border:16px solid orange"">","null","","","","","","","",""
"null","","html-keyboard-response","112","258897","0.0-41.0","382M9COHEI1QL38L4THHZOFK38MEUZ","A1V1JNPU0KOA3X","33Q5P9PUSP8QOKKNNN5S19YACNVCZX","","","null","","","","","","","",""
"1489.199999999255","","image-keyboard-response","113","260388","0.0-42.0","382M9COHEI1QL38L4THHZOFK38MEUZ","A1V1JNPU0KOA3X","33Q5P9PUSP8QOKKNNN5S19YACNVCZX","","img/set1/S4.jpg","74","4","structured_incentive","74","true","structured_incentive,random,structured_normal","1,2,2,3","",""
"null","","html-keyboard-response","114","260755","0.0-43.0","382M9COHEI1QL38L4THHZOFK38MEUZ","A1V1JNPU0KOA3X","33Q5P9PUSP8QOKKNNN5S19YACNVCZX","","<img src=""img/set1/S4.jpg"" width=""540"" height = ""360"" style=""border:16px solid orange"">","null","","","","","","","",""
"null","","html-keyboard-response","115","260758","0.0-44.0","382M9COHEI1QL38L4THHZOFK38MEUZ","A1V1JNPU0KOA3X","33Q5P9PUSP8QOKKNNN5S19YACNVCZX","","","null","","","","","","","",""
"1195.5999999977648","","image-keyboard-response","116","261955","0.0-45.0","382M9COHEI1QL38L4THHZOFK38MEUZ","A1V1JNPU0KOA3X","33Q5P9PUSP8QOKKNNN5S19YACNVCZX","","img/set1/S4.jpg","74","4","structured_incentive","74","true","structured_incentive,random,structured_normal","1,2,2,3","",""
"null","","html-keyboard-response","117","262317","0.0-46.0","382M9COHEI1QL38L4THHZOFK38MEUZ","A1V1JNPU0KOA3X","33Q5P9PUSP8QOKKNNN5S19YACNVCZX","","<img src=""img/set1/S4.jpg"" width=""540"" height = ""360"" style=""border:16px solid orange"">","null","","","","","","","",""
"null","","html-keyboard-response","118","262321","0.0-47.0","382M9COHEI1QL38L4THHZOFK38MEUZ","A1V1JNPU0KOA3X","33Q5P9PUSP8QOKKNNN5S19YACNVCZX","","","null","","","","","","","",""
"null","","image-keyboard-response","119","264833","0.0-48.0","382M9COHEI1QL38L4THHZOFK38MEUZ","A1V1JNPU0KOA3X","33Q5P9PUSP8QOKKNNN5S19YACNVCZX","","img/set1/S1.jpg","null","1","structured_incentive","83","false","structured_incentive,random,structured_normal","1,2,2,3","",""
"null","","html-keyboard-response","120","265199","0.0-49.0","382M9COHEI1QL38L4THHZOFK38MEUZ","A1V1JNPU0KOA3X","33Q5P9PUSP8QOKKNNN5S19YACNVCZX","","<img src=""img/set1/S1.jpg"" width=""540"" height = ""360"">","null","","","","","","","",""
"null","","html-keyboard-response","121","265205","0.0-50.0","382M9COHEI1QL38L4THHZOFK38MEUZ","A1V1JNPU0KOA3X","33Q5P9PUSP8QOKKNNN5S19YACNVCZX","","","null","","","","","","","",""
"193.19999999925494","","image-keyboard-response","122","265399","0.0-51.0","382M9COHEI1QL38L4THHZOFK38MEUZ","A1V1JNPU0KOA3X","33Q5P9PUSP8QOKKNNN5S19YACNVCZX","","img/set1/S2.jpg","68","2","structured_incentive","68","true","structured_incentive,random,structured_normal","1,2,2,3","",""
"null","","html-keyboard-response","123","265765","0.0-52.0","382M9COHEI1QL38L4THHZOFK38MEUZ","A1V1JNPU0KOA3X","33Q5P9PUSP8QOKKNNN5S19YACNVCZX","","<img src=""img/set1/S2.jpg"" width=""540"" height = ""360"" style=""border:16px solid orange"">","null","","","","","","","",""
"null","","html-keyboard-response","124","265768","0.0-53.0","382M9COHEI1QL38L4THHZOFK38MEUZ","A1V1JNPU0KOA3X","33Q5P9PUSP8QOKKNNN5S19YACNVCZX","","","null","","","","","","","",""
"null","","image-keyboard-response","125","268280","0.0-54.0","382M9COHEI1QL38L4THHZOFK38MEUZ","A1V1JNPU0KOA3X","33Q5P9PUSP8QOKKNNN5S19YACNVCZX","","img/set1/S3.jpg","null","3","structured_incentive","72","false","structured_incentive,random,structured_normal","1,2,2,3","",""
"null","","html-keyboard-response","126","268644","0.0-55.0","382M9COHEI1QL38L4THHZOFK38MEUZ","A1V1JNPU0KOA3X","33Q5P9PUSP8QOKKNNN5S19YACNVCZX","","<img src=""img/set1/S3.jpg"" width=""540"" height = ""360"">","null","","","","","","","",""
"null","","html-keyboard-response","127","268651","0.0-56.0","382M9COHEI1QL38L4THHZOFK38MEUZ","A1V1JNPU0KOA3X","33Q5P9PUSP8QOKKNNN5S19YACNVCZX","","","null","","","","","","","",""
"1121.1000000014901","","image-keyboard-response","128","269773","0.0-57.0","382M9COHEI1QL38L4THHZOFK38MEUZ","A1V1JNPU0KOA3X","33Q5P9PUSP8QOKKNNN5S19YACNVCZX","","img/set1/S4.jpg","74","4","structured_incentive","74","true","structured_incentive,random,structured_normal","1,2,2,3","",""
"null","","html-keyboard-response","129","270127","0.0-58.0","382M9COHEI1QL38L4THHZOFK38MEUZ","A1V1JNPU0KOA3X","33Q5P9PUSP8QOKKNNN5S19YACNVCZX","","<img src=""img/set1/S4.jpg"" width=""540"" height = ""360"" style=""border:16px solid orange"">","null","","","","","","","",""
"null","","html-keyboard-response","130","270129","0.0-59.0","382M9COHEI1QL38L4THHZOFK38MEUZ","A1V1JNPU0KOA3X","33Q5P9PUSP8QOKKNNN5S19YACNVCZX","","","null","","","","","","","",""
"1891.3999999985099","","image-keyboard-response","131","272023","0.0-60.0","382M9COHEI1QL38L4THHZOFK38MEUZ","A1V1JNPU0KOA3X","33Q5P9PUSP8QOKKNNN5S19YACNVCZX","","img/set1/S1.jpg","68","1","structured_incentive","83","false","structured_incentive,random,structured_normal","1,2,2,3","",""
"null","","html-keyboard-response","132","272387","0.0-61.0","382M9COHEI1QL38L4THHZOFK38MEUZ","A1V1JNPU0KOA3X","33Q5P9PUSP8QOKKNNN5S19YACNVCZX","","<img src=""img/set1/S1.jpg"" width=""540"" height = ""360"">","null","","","","","","","",""
"null","","html-keyboard-response","133","272390","0.0-62.0","382M9COHEI1QL38L4THHZOFK38MEUZ","A1V1JNPU0KOA3X","33Q5P9PUSP8QOKKNNN5S19YACNVCZX","","","null","","","","","","","",""
"1977.9000000022352","","image-keyboard-response","134","274370","0.0-63.0","382M9COHEI1QL38L4THHZOFK38MEUZ","A1V1JNPU0KOA3X","33Q5P9PUSP8QOKKNNN5S19YACNVCZX","","img/set1/S3.jpg","83","3","structured_incentive","72","false","structured_incentive,random,structured_normal","1,2,2,3","",""
"null","","html-keyboard-response","135","274727","0.0-64.0","382M9COHEI1QL38L4THHZOFK38MEUZ","A1V1JNPU0KOA3X","33Q5P9PUSP8QOKKNNN5S19YACNVCZX","","<img src=""img/set1/S3.jpg"" width=""540"" height = ""360"">","null","","","","","","","",""
"null","","html-keyboard-response","136","274730","0.0-65.0","382M9COHEI1QL38L4THHZOFK38MEUZ","A1V1JNPU0KOA3X","33Q5P9PUSP8QOKKNNN5S19YACNVCZX","","","null","","","","","","","",""
"964.5","","image-keyboard-response","137","275696","0.0-66.0","382M9COHEI1QL38L4THHZOFK38MEUZ","A1V1JNPU0KOA3X","33Q5P9PUSP8QOKKNNN5S19YACNVCZX","","img/set1/S3.jpg","68","3","structured_incentive","72","false","structured_incentive,random,structured_normal","1,2,2,3","",""
"null","","html-keyboard-response","138","276056","0.0-67.0","382M9COHEI1QL38L4THHZOFK38MEUZ","A1V1JNPU0KOA3X","33Q5P9PUSP8QOKKNNN5S19YACNVCZX","","<img src=""img/set1/S3.jpg"" width=""540"" height = ""360"">","null","","","","","","","",""
"null","","html-keyboard-response","139","276059","0.0-68.0","382M9COHEI1QL38L4THHZOFK38MEUZ","A1V1JNPU0KOA3X","33Q5P9PUSP8QOKKNNN5S19YACNVCZX","","","null","","","","","","","",""
"948","","image-keyboard-response","140","277008","0.0-69.0","382M9COHEI1QL38L4THHZOFK38MEUZ","A1V1JNPU0KOA3X","33Q5P9PUSP8QOKKNNN5S19YACNVCZX","","img/set1/S3.jpg","74","3","structured_incentive","72","false","structured_incentive,random,structured_normal","1,2,2,3","",""
"null","","html-keyboard-response","141","277366","0.0-70.0","382M9COHEI1QL38L4THHZOFK38MEUZ","A1V1JNPU0KOA3X","33Q5P9PUSP8QOKKNNN5S19YACNVCZX","","<img src=""img/set1/S3.jpg"" width=""540"" height = ""360"">","null","","","","","","","",""
"null","","html-keyboard-response","142","277369","0.0-71.0","382M9COHEI1QL38L4THHZOFK38MEUZ","A1V1JNPU0KOA3X","33Q5P9PUSP8QOKKNNN5S19YACNVCZX","","","null","","","","","","","",""
"2452.599999997765","","image-keyboard-response","143","279823","0.0-72.0","382M9COHEI1QL38L4THHZOFK38MEUZ","A1V1JNPU0KOA3X","33Q5P9PUSP8QOKKNNN5S19YACNVCZX","","img/set1/S1.jpg","74","1","structured_incentive","83","false","structured_incentive,random,structured_normal","1,2,2,3","",""
"null","","html-keyboard-response","144","280186","0.0-73.0","382M9COHEI1QL38L4THHZOFK38MEUZ","A1V1JNPU0KOA3X","33Q5P9PUSP8QOKKNNN5S19YACNVCZX","","<img src=""img/set1/S1.jpg"" width=""540"" height = ""360"">","null","","","","","","","",""
"null","","html-keyboard-response","145","280188","0.0-74.0","382M9COHEI1QL38L4THHZOFK38MEUZ","A1V1JNPU0KOA3X","33Q5P9PUSP8QOKKNNN5S19YACNVCZX","","","null","","","","","","","",""
"null","","image-keyboard-response","146","282694","0.0-75.0","382M9COHEI1QL38L4THHZOFK38MEUZ","A1V1JNPU0KOA3X","33Q5P9PUSP8QOKKNNN5S19YACNVCZX","","img/set1/S3.jpg","null","3","structured_incentive","72","false","structured_incentive,random,structured_normal","1,2,2,3","",""
"null","","html-keyboard-response","147","283048","0.0-76.0","382M9COHEI1QL38L4THHZOFK38MEUZ","A1V1JNPU0KOA3X","33Q5P9PUSP8QOKKNNN5S19YACNVCZX","","<img src=""img/set1/S3.jpg"" width=""540"" height = ""360"">","null","","","","","","","",""
"null","","html-keyboard-response","148","283054","0.0-77.0","382M9COHEI1QL38L4THHZOFK38MEUZ","A1V1JNPU0KOA3X","33Q5P9PUSP8QOKKNNN5S19YACNVCZX","","","null","","","","","","","",""
"null","","image-keyboard-response","149","285570","0.0-78.0","382M9COHEI1QL38L4THHZOFK38MEUZ","A1V1JNPU0KOA3X","33Q5P9PUSP8QOKKNNN5S19YACNVCZX","","img/set1/S1.jpg","null","1","structured_incentive","83","false","structured_incentive,random,structured_normal","1,2,2,3","",""
"null","","html-keyboard-response","150","285928","0.0-79.0","382M9COHEI1QL38L4THHZOFK38MEUZ","A1V1JNPU0KOA3X","33Q5P9PUSP8QOKKNNN5S19YACNVCZX","","<img src=""img/set1/S1.jpg"" width=""540"" height = ""360"">","null","","","","","","","",""
"null","","html-keyboard-response","151","285934","0.0-80.0","382M9COHEI1QL38L4THHZOFK38MEUZ","A1V1JNPU0KOA3X","33Q5P9PUSP8QOKKNNN5S19YACNVCZX","","","null","","","","","","","",""
"2361.699999999255","","image-keyboard-response","152","288297","0.0-81.0","382M9COHEI1QL38L4THHZOFK38MEUZ","A1V1JNPU0KOA3X","33Q5P9PUSP8QOKKNNN5S19YACNVCZX","","img/set1/S2.jpg","68","2","structured_incentive","68","true","structured_incentive,random,structured_normal","1,2,2,3","",""
"null","","html-keyboard-response","153","288658","0.0-82.0","382M9COHEI1QL38L4THHZOFK38MEUZ","A1V1JNPU0KOA3X","33Q5P9PUSP8QOKKNNN5S19YACNVCZX","","<img src=""img/set1/S2.jpg"" width=""540"" height = ""360"" style=""border:16px solid orange"">","null","","","","","","","",""
"null","","html-keyboard-response","154","288661","0.0-83.0","382M9COHEI1QL38L4THHZOFK38MEUZ","A1V1JNPU0KOA3X","33Q5P9PUSP8QOKKNNN5S19YACNVCZX","","","null","","","","","","","",""
"1558.9000000022352","","image-keyboard-response","155","290222","0.0-84.0","382M9COHEI1QL38L4THHZOFK38MEUZ","A1V1JNPU0KOA3X","33Q5P9PUSP8QOKKNNN5S19YACNVCZX","","img/set1/S1.jpg","72","1","structured_incentive","83","false","structured_incentive,random,structured_normal","1,2,2,3","",""
"null","","html-keyboard-response","156","290590","0.0-85.0","382M9COHEI1QL38L4THHZOFK38MEUZ","A1V1JNPU0KOA3X","33Q5P9PUSP8QOKKNNN5S19YACNVCZX","","<img src=""img/set1/S1.jpg"" width=""540"" height = ""360"">","null","","","","","","","",""
"null","","html-keyboard-response","157","290593","0.0-86.0","382M9COHEI1QL38L4THHZOFK38MEUZ","A1V1JNPU0KOA3X","33Q5P9PUSP8QOKKNNN5S19YACNVCZX","","","null","","","","","","","",""
"1185.4000000022352","","image-keyboard-response","158","291780","0.0-87.0","382M9COHEI1QL38L4THHZOFK38MEUZ","A1V1JNPU0KOA3X","33Q5P9PUSP8QOKKNNN5S19YACNVCZX","","img/set1/S2.jpg","68","2","structured_incentive","68","true","structured_incentive,random,structured_normal","1,2,2,3","",""
"null","","html-keyboard-response","159","292141","0.0-88.0","382M9COHEI1QL38L4THHZOFK38MEUZ","A1V1JNPU0KOA3X","33Q5P9PUSP8QOKKNNN5S19YACNVCZX","","<img src=""img/set1/S2.jpg"" width=""540"" height = ""360"" style=""border:16px solid orange"">","null","","","","","","","",""
"null","","html-keyboard-response","160","292144","0.0-89.0","382M9COHEI1QL38L4THHZOFK38MEUZ","A1V1JNPU0KOA3X","33Q5P9PUSP8QOKKNNN5S19YACNVCZX","","","null","","","","","","","",""
"1366.2000000029802","","image-keyboard-response","161","293511","0.0-90.0","382M9COHEI1QL38L4THHZOFK38MEUZ","A1V1JNPU0KOA3X","33Q5P9PUSP8QOKKNNN5S19YACNVCZX","","img/set1/S1.jpg","83","1","structured_incentive","83","true","structured_incentive,random,structured_normal","1,2,2,3","",""
"null","","html-keyboard-response","162","293868","0.0-91.0","382M9COHEI1QL38L4THHZOFK38MEUZ","A1V1JNPU0KOA3X","33Q5P9PUSP8QOKKNNN5S19YACNVCZX","","<img src=""img/set1/S1.jpg"" width=""540"" height = ""360"" style=""border:16px solid orange"">","null","","","","","","","",""
"null","","html-keyboard-response","163","293870","0.0-92.0","382M9COHEI1QL38L4THHZOFK38MEUZ","A1V1JNPU0KOA3X","33Q5P9PUSP8QOKKNNN5S19YACNVCZX","","","null","","","","","","","",""
"1264.800000000745","","image-keyboard-response","164","295136","0.0-93.0","382M9COHEI1QL38L4THHZOFK38MEUZ","A1V1JNPU0KOA3X","33Q5P9PUSP8QOKKNNN5S19YACNVCZX","","img/set1/S2.jpg","68","2","structured_incentive","68","true","structured_incentive,random,structured_normal","1,2,2,3","",""
"null","","html-keyboard-response","165","295493","0.0-94.0","382M9COHEI1QL38L4THHZOFK38MEUZ","A1V1JNPU0KOA3X","33Q5P9PUSP8QOKKNNN5S19YACNVCZX","","<img src=""img/set1/S2.jpg"" width=""540"" height = ""360"" style=""border:16px solid orange"">","null","","","","","","","",""
"null","","html-keyboard-response","166","295495","0.0-95.0","382M9COHEI1QL38L4THHZOFK38MEUZ","A1V1JNPU0KOA3X","33Q5P9PUSP8QOKKNNN5S19YACNVCZX","","","null","","","","","","","",""
"1124.699999999255","","image-keyboard-response","167","296621","0.0-96.0","382M9COHEI1QL38L4THHZOFK38MEUZ","A1V1JNPU0KOA3X","33Q5P9PUSP8QOKKNNN5S19YACNVCZX","","img/set1/S1.jpg","83","1","structured_incentive","83","true","structured_incentive,random,structured_normal","1,2,2,3","",""
"null","","html-keyboard-response","168","296984","0.0-97.0","382M9COHEI1QL38L4THHZOFK38MEUZ","A1V1JNPU0KOA3X","33Q5P9PUSP8QOKKNNN5S19YACNVCZX","","<img src=""img/set1/S1.jpg"" width=""540"" height = ""360"" style=""border:16px solid orange"">","null","","","","","","","",""
"null","","html-keyboard-response","169","296988","0.0-98.0","382M9COHEI1QL38L4THHZOFK38MEUZ","A1V1JNPU0KOA3X","33Q5P9PUSP8QOKKNNN5S19YACNVCZX","","","null","","","","","","","",""
"1089.0999999977648","","image-keyboard-response","170","298079","0.0-99.0","382M9COHEI1QL38L4THHZOFK38MEUZ","A1V1JNPU0KOA3X","33Q5P9PUSP8QOKKNNN5S19YACNVCZX","","img/set1/S3.jpg","72","3","structured_incentive","72","true","structured_incentive,random,structured_normal","1,2,2,3","",""
"null","","html-keyboard-response","171","298437","0.0-100.0","382M9COHEI1QL38L4THHZOFK38MEUZ","A1V1JNPU0KOA3X","33Q5P9PUSP8QOKKNNN5S19YACNVCZX","","<img src=""img/set1/S3.jpg"" width=""540"" height = ""360"" style=""border:16px solid Violet"">","null","","","","","","","",""
"null","","html-keyboard-response","172","298440","0.0-101.0","382M9COHEI1QL38L4THHZOFK38MEUZ","A1V1JNPU0KOA3X","33Q5P9PUSP8QOKKNNN5S19YACNVCZX","","","null","","","","","","","",""
"null","","image-keyboard-response","173","300955","0.0-102.0","382M9COHEI1QL38L4THHZOFK38MEUZ","A1V1JNPU0KOA3X","33Q5P9PUSP8QOKKNNN5S19YACNVCZX","","img/set1/S4.jpg","null","4","structured_incentive","74","false","structured_incentive,random,structured_normal","1,2,2,3","",""
"null","","html-keyboard-response","174","301313","0.0-103.0","382M9COHEI1QL38L4THHZOFK38MEUZ","A1V1JNPU0KOA3X","33Q5P9PUSP8QOKKNNN5S19YACNVCZX","","<img src=""img/set1/S4.jpg"" width=""540"" height = ""360"">","null","","","","","","","",""
"null","","html-keyboard-response","175","301318","0.0-104.0","382M9COHEI1QL38L4THHZOFK38MEUZ","A1V1JNPU0KOA3X","33Q5P9PUSP8QOKKNNN5S19YACNVCZX","","","null","","","","","","","",""
"2345.60000000149","","image-keyboard-response","176","303665","0.0-105.0","382M9COHEI1QL38L4THHZOFK38MEUZ","A1V1JNPU0KOA3X","33Q5P9PUSP8QOKKNNN5S19YACNVCZX","","img/set1/S2.jpg","68","2","structured_incentive","68","true","structured_incentive,random,structured_normal","1,2,2,3","",""
"null","","html-keyboard-response","177","304019","0.0-106.0","382M9COHEI1QL38L4THHZOFK38MEUZ","A1V1JNPU0KOA3X","33Q5P9PUSP8QOKKNNN5S19YACNVCZX","","<img src=""img/set1/S2.jpg"" width=""540"" height = ""360"" style=""border:16px solid orange"">","null","","","","","","","",""
"null","","html-keyboard-response","178","304025","0.0-107.0","382M9COHEI1QL38L4THHZOFK38MEUZ","A1V1JNPU0KOA3X","33Q5P9PUSP8QOKKNNN5S19YACNVCZX","","","null","","","","","","","",""
"1114.7000000029802","","image-keyboard-response","179","305141","0.0-108.0","382M9COHEI1QL38L4THHZOFK38MEUZ","A1V1JNPU0KOA3X","33Q5P9PUSP8QOKKNNN5S19YACNVCZX","","img/set1/S3.jpg","72","3","structured_incentive","72","true","structured_incentive,random,structured_normal","1,2,2,3","",""
"null","","html-keyboard-response","180","305508","0.0-109.0","382M9COHEI1QL38L4THHZOFK38MEUZ","A1V1JNPU0KOA3X","33Q5P9PUSP8QOKKNNN5S19YACNVCZX","","<img src=""img/set1/S3.jpg"" width=""540"" height = ""360"" style=""border:16px solid Violet"">","null","","","","","","","",""
"null","","html-keyboard-response","181","305510","0.0-110.0","382M9COHEI1QL38L4THHZOFK38MEUZ","A1V1JNPU0KOA3X","33Q5P9PUSP8QOKKNNN5S19YACNVCZX","","","null","","","","","","","",""
"788.5","","image-keyboard-response","182","306300","0.0-111.0","382M9COHEI1QL38L4THHZOFK38MEUZ","A1V1JNPU0KOA3X","33Q5P9PUSP8QOKKNNN5S19YACNVCZX","","img/set1/S3.jpg","72","3","structured_incentive","72","true","structured_incentive,random,structured_normal","1,2,2,3","",""
"null","","html-keyboard-response","183","306658","0.0-112.0","382M9COHEI1QL38L4THHZOFK38MEUZ","A1V1JNPU0KOA3X","33Q5P9PUSP8QOKKNNN5S19YACNVCZX","","<img src=""img/set1/S3.jpg"" width=""540"" height = ""360"" style=""border:16px solid Violet"">","null","","","","","","","",""
"null","","html-keyboard-response","184","306660","0.0-113.0","382M9COHEI1QL38L4THHZOFK38MEUZ","A1V1JNPU0KOA3X","33Q5P9PUSP8QOKKNNN5S19YACNVCZX","","","null","","","","","","","",""
"1654.800000000745","","image-keyboard-response","185","308316","0.0-114.0","382M9COHEI1QL38L4THHZOFK38MEUZ","A1V1JNPU0KOA3X","33Q5P9PUSP8QOKKNNN5S19YACNVCZX","","img/set1/S4.jpg","74","4","structured_incentive","74","true","structured_incentive,random,structured_normal","1,2,2,3","",""
"null","","html-keyboard-response","186","308672","0.0-115.0","382M9COHEI1QL38L4THHZOFK38MEUZ","A1V1JNPU0KOA3X","33Q5P9PUSP8QOKKNNN5S19YACNVCZX","","<img src=""img/set1/S4.jpg"" width=""540"" height = ""360"" style=""border:16px solid orange"">","null","","","","","","","",""
"null","","html-keyboard-response","187","308675","0.0-116.0","382M9COHEI1QL38L4THHZOFK38MEUZ","A1V1JNPU0KOA3X","33Q5P9PUSP8QOKKNNN5S19YACNVCZX","","","null","","","","","","","",""
"668","","image-keyboard-response","188","309345","0.0-117.0","382M9COHEI1QL38L4THHZOFK38MEUZ","A1V1JNPU0KOA3X","33Q5P9PUSP8QOKKNNN5S19YACNVCZX","","img/set1/S4.jpg","74","4","structured_incentive","74","true","structured_incentive,random,structured_normal","1,2,2,3","",""
"null","","html-keyboard-response","189","309704","0.0-118.0","382M9COHEI1QL38L4THHZOFK38MEUZ","A1V1JNPU0KOA3X","33Q5P9PUSP8QOKKNNN5S19YACNVCZX","","<img src=""img/set1/S4.jpg"" width=""540"" height = ""360"" style=""border:16px solid orange"">","null","","","","","","","",""
"null","","html-keyboard-response","190","309706","0.0-119.0","382M9COHEI1QL38L4THHZOFK38MEUZ","A1V1JNPU0KOA3X","33Q5P9PUSP8QOKKNNN5S19YACNVCZX","","","null","","","","","","","",""
"618.8999999985099","","image-keyboard-response","191","310326","0.0-120.0","382M9COHEI1QL38L4THHZOFK38MEUZ","A1V1JNPU0KOA3X","33Q5P9PUSP8QOKKNNN5S19YACNVCZX","","img/set1/S4.jpg","74","4","structured_incentive","74","true","structured_incentive,random,structured_normal","1,2,2,3","",""
"null","","html-keyboard-response","192","310686","0.0-121.0","382M9COHEI1QL38L4THHZOFK38MEUZ","A1V1JNPU0KOA3X","33Q5P9PUSP8QOKKNNN5S19YACNVCZX","","<img src=""img/set1/S4.jpg"" width=""540"" height = ""360"" style=""border:16px solid orange"">","null","","","","","","","",""
"null","","html-keyboard-response","193","310689","0.0-122.0","382M9COHEI1QL38L4THHZOFK38MEUZ","A1V1JNPU0KOA3X","33Q5P9PUSP8QOKKNNN5S19YACNVCZX","","","null","","","","","","","",""
"1885.0999999977648","","image-keyboard-response","194","312576","0.0-123.0","382M9COHEI1QL38L4THHZOFK38MEUZ","A1V1JNPU0KOA3X","33Q5P9PUSP8QOKKNNN5S19YACNVCZX","","img/set1/S1.jpg","68","1","structured_incentive","83","false","structured_incentive,random,structured_normal","1,2,2,3","",""
"null","","html-keyboard-response","195","312951","0.0-124.0","382M9COHEI1QL38L4THHZOFK38MEUZ","A1V1JNPU0KOA3X","33Q5P9PUSP8QOKKNNN5S19YACNVCZX","","<img src=""img/set1/S1.jpg"" width=""540"" height = ""360"">","null","","","","","","","",""
"null","","html-keyboard-response","196","312953","0.0-125.0","382M9COHEI1QL38L4THHZOFK38MEUZ","A1V1JNPU0KOA3X","33Q5P9PUSP8QOKKNNN5S19YACNVCZX","","","null","","","","","","","",""
"1187.5999999977648","","image-keyboard-response","197","314143","0.0-126.0","382M9COHEI1QL38L4THHZOFK38MEUZ","A1V1JNPU0KOA3X","33Q5P9PUSP8QOKKNNN5S19YACNVCZX","","img/set1/S2.jpg","68","2","structured_incentive","68","true","structured_incentive,random,structured_normal","1,2,2,3","",""
"null","","html-keyboard-response","198","314504","0.0-127.0","382M9COHEI1QL38L4THHZOFK38MEUZ","A1V1JNPU0KOA3X","33Q5P9PUSP8QOKKNNN5S19YACNVCZX","","<img src=""img/set1/S2.jpg"" width=""540"" height = ""360"" style=""border:16px solid orange"">","null","","","","","","","",""
"null","","html-keyboard-response","199","314507","0.0-128.0","382M9COHEI1QL38L4THHZOFK38MEUZ","A1V1JNPU0KOA3X","33Q5P9PUSP8QOKKNNN5S19YACNVCZX","","","null","","","","","","","",""
"705","","image-keyboard-response","200","315213","0.0-129.0","382M9COHEI1QL38L4THHZOFK38MEUZ","A1V1JNPU0KOA3X","33Q5P9PUSP8QOKKNNN5S19YACNVCZX","","img/set1/S2.jpg","68","2","structured_incentive","68","true","structured_incentive,random,structured_normal","1,2,2,3","",""
"null","","html-keyboard-response","201","315567","0.0-130.0","382M9COHEI1QL38L4THHZOFK38MEUZ","A1V1JNPU0KOA3X","33Q5P9PUSP8QOKKNNN5S19YACNVCZX","","<img src=""img/set1/S2.jpg"" width=""540"" height = ""360"" style=""border:16px solid orange"">","null","","","","","","","",""
"null","","html-keyboard-response","202","315569","0.0-131.0","382M9COHEI1QL38L4THHZOFK38MEUZ","A1V1JNPU0KOA3X","33Q5P9PUSP8QOKKNNN5S19YACNVCZX","","","null","","","","","","","",""
"768.8000000007451","","image-keyboard-response","203","316339","0.0-132.0","382M9COHEI1QL38L4THHZOFK38MEUZ","A1V1JNPU0KOA3X","33Q5P9PUSP8QOKKNNN5S19YACNVCZX","","img/set1/S1.jpg","83","1","structured_incentive","83","true","structured_incentive,random,structured_normal","1,2,2,3","",""
"null","","html-keyboard-response","204","316699","0.0-133.0","382M9COHEI1QL38L4THHZOFK38MEUZ","A1V1JNPU0KOA3X","33Q5P9PUSP8QOKKNNN5S19YACNVCZX","","<img src=""img/set1/S1.jpg"" width=""540"" height = ""360"" style=""border:16px solid orange"">","null","","","","","","","",""
"null","","html-keyboard-response","205","316702","0.0-134.0","382M9COHEI1QL38L4THHZOFK38MEUZ","A1V1JNPU0KOA3X","33Q5P9PUSP8QOKKNNN5S19YACNVCZX","","","null","","","","","","","",""
"1065","","image-keyboard-response","206","317768","0.0-135.0","382M9COHEI1QL38L4THHZOFK38MEUZ","A1V1JNPU0KOA3X","33Q5P9PUSP8QOKKNNN5S19YACNVCZX","","img/set1/S2.jpg","68","2","structured_incentive","68","true","structured_incentive,random,structured_normal","1,2,2,3","",""
"null","","html-keyboard-response","207","318130","0.0-136.0","382M9COHEI1QL38L4THHZOFK38MEUZ","A1V1JNPU0KOA3X","33Q5P9PUSP8QOKKNNN5S19YACNVCZX","","<img src=""img/set1/S2.jpg"" width=""540"" height = ""360"" style=""border:16px solid orange"">","null","","","","","","","",""
"null","","html-keyboard-response","208","318133","0.0-137.0","382M9COHEI1QL38L4THHZOFK38MEUZ","A1V1JNPU0KOA3X","33Q5P9PUSP8QOKKNNN5S19YACNVCZX","","","null","","","","","","","",""
"700.9000000022352","","image-keyboard-response","209","318835","0.0-138.0","382M9COHEI1QL38L4THHZOFK38MEUZ","A1V1JNPU0KOA3X","33Q5P9PUSP8QOKKNNN5S19YACNVCZX","","img/set1/S1.jpg","83","1","structured_incentive","83","true","structured_incentive,random,structured_normal","1,2,2,3","",""
"null","","html-keyboard-response","210","319193","0.0-139.0","382M9COHEI1QL38L4THHZOFK38MEUZ","A1V1JNPU0KOA3X","33Q5P9PUSP8QOKKNNN5S19YACNVCZX","","<img src=""img/set1/S1.jpg"" width=""540"" height = ""360"" style=""border:16px solid orange"">","null","","","","","","","",""
"null","","html-keyboard-response","211","319195","0.0-140.0","382M9COHEI1QL38L4THHZOFK38MEUZ","A1V1JNPU0KOA3X","33Q5P9PUSP8QOKKNNN5S19YACNVCZX","","","null","","","","","","","",""
"1006.6000000014901","","image-keyboard-response","212","320204","0.0-141.0","382M9COHEI1QL38L4THHZOFK38MEUZ","A1V1JNPU0KOA3X","33Q5P9PUSP8QOKKNNN5S19YACNVCZX","","img/set1/S3.jpg","72","3","structured_incentive","72","true","structured_incentive,random,structured_normal","1,2,2,3","",""
"null","","html-keyboard-response","213","320562","0.0-142.0","382M9COHEI1QL38L4THHZOFK38MEUZ","A1V1JNPU0KOA3X","33Q5P9PUSP8QOKKNNN5S19YACNVCZX","","<img src=""img/set1/S3.jpg"" width=""540"" height = ""360"" style=""border:16px solid Violet"">","null","","","","","","","",""
"null","","html-keyboard-response","214","320564","0.0-143.0","382M9COHEI1QL38L4THHZOFK38MEUZ","A1V1JNPU0KOA3X","33Q5P9PUSP8QOKKNNN5S19YACNVCZX","","","null","","","","","","","",""
"1798.3999999985099","","image-keyboard-response","215","322365","0.0-144.0","382M9COHEI1QL38L4THHZOFK38MEUZ","A1V1JNPU0KOA3X","33Q5P9PUSP8QOKKNNN5S19YACNVCZX","","img/set1/S1.jpg","83","1","structured_incentive","83","true","structured_incentive,random,structured_normal","1,2,2,3","",""
"null","","html-keyboard-response","216","322725","0.0-145.0","382M9COHEI1QL38L4THHZOFK38MEUZ","A1V1JNPU0KOA3X","33Q5P9PUSP8QOKKNNN5S19YACNVCZX","","<img src=""img/set1/S1.jpg"" width=""540"" height = ""360"" style=""border:16px solid orange"">","null","","","","","","","",""
"null","","html-keyboard-response","217","322727","0.0-146.0","382M9COHEI1QL38L4THHZOFK38MEUZ","A1V1JNPU0KOA3X","33Q5P9PUSP8QOKKNNN5S19YACNVCZX","","","null","","","","","","","",""
"1192.7000000029802","","image-keyboard-response","218","323922","0.0-147.0","382M9COHEI1QL38L4THHZOFK38MEUZ","A1V1JNPU0KOA3X","33Q5P9PUSP8QOKKNNN5S19YACNVCZX","","img/set1/S3.jpg","72","3","structured_incentive","72","true","structured_incentive,random,structured_normal","1,2,2,3","",""
"null","","html-keyboard-response","219","324276","0.0-148.0","382M9COHEI1QL38L4THHZOFK38MEUZ","A1V1JNPU0KOA3X","33Q5P9PUSP8QOKKNNN5S19YACNVCZX","","<img src=""img/set1/S3.jpg"" width=""540"" height = ""360"" style=""border:16px solid Violet"">","null","","","","","","","",""
"null","","html-keyboard-response","220","324278","0.0-149.0","382M9COHEI1QL38L4THHZOFK38MEUZ","A1V1JNPU0KOA3X","33Q5P9PUSP8QOKKNNN5S19YACNVCZX","","","null","","","","","","","",""
"899.0999999977648","","image-keyboard-response","221","325178","0.0-150.0","382M9COHEI1QL38L4THHZOFK38MEUZ","A1V1JNPU0KOA3X","33Q5P9PUSP8QOKKNNN5S19YACNVCZX","","img/set1/S4.jpg","74","4","structured_incentive","74","true","structured_incentive,random,structured_normal","1,2,2,3","",""
"null","","html-keyboard-response","222","325543","0.0-151.0","382M9COHEI1QL38L4THHZOFK38MEUZ","A1V1JNPU0KOA3X","33Q5P9PUSP8QOKKNNN5S19YACNVCZX","","<img src=""img/set1/S4.jpg"" width=""540"" height = ""360"" style=""border:16px solid orange"">","null","","","","","","","",""
"null","","html-keyboard-response","223","325545","0.0-152.0","382M9COHEI1QL38L4THHZOFK38MEUZ","A1V1JNPU0KOA3X","33Q5P9PUSP8QOKKNNN5S19YACNVCZX","","","null","","","","","","","",""
"540.9000000022352","","image-keyboard-response","224","326087","0.0-153.0","382M9COHEI1QL38L4THHZOFK38MEUZ","A1V1JNPU0KOA3X","33Q5P9PUSP8QOKKNNN5S19YACNVCZX","","img/set1/S4.jpg","74","4","structured_incentive","74","true","structured_incentive,random,structured_normal","1,2,2,3","",""
"null","","html-keyboard-response","225","326447","0.0-154.0","382M9COHEI1QL38L4THHZOFK38MEUZ","A1V1JNPU0KOA3X","33Q5P9PUSP8QOKKNNN5S19YACNVCZX","","<img src=""img/set1/S4.jpg"" width=""540"" height = ""360"" style=""border:16px solid orange"">","null","","","","","","","",""
"null","","html-keyboard-response","226","326450","0.0-155.0","382M9COHEI1QL38L4THHZOFK38MEUZ","A1V1JNPU0KOA3X","33Q5P9PUSP8QOKKNNN5S19YACNVCZX","","","null","","","","","","","",""
"2307.5","","image-keyboard-response","227","328759","0.0-156.0","382M9COHEI1QL38L4THHZOFK38MEUZ","A1V1JNPU0KOA3X","33Q5P9PUSP8QOKKNNN5S19YACNVCZX","","img/set1/S1.jpg","83","1","structured_incentive","83","true","structured_incentive,random,structured_normal","1,2,2,3","",""
"null","","html-keyboard-response","228","329120","0.0-157.0","382M9COHEI1QL38L4THHZOFK38MEUZ","A1V1JNPU0KOA3X","33Q5P9PUSP8QOKKNNN5S19YACNVCZX","","<img src=""img/set1/S1.jpg"" width=""540"" height = ""360"" style=""border:16px solid orange"">","null","","","","","","","",""
"null","","html-keyboard-response","229","329122","0.0-158.0","382M9COHEI1QL38L4THHZOFK38MEUZ","A1V1JNPU0KOA3X","33Q5P9PUSP8QOKKNNN5S19YACNVCZX","","","null","","","","","","","",""
"930.4000000022352","","image-keyboard-response","230","330054","0.0-159.0","382M9COHEI1QL38L4THHZOFK38MEUZ","A1V1JNPU0KOA3X","33Q5P9PUSP8QOKKNNN5S19YACNVCZX","","img/set1/S2.jpg","68","2","structured_incentive","68","true","structured_incentive,random,structured_normal","1,2,2,3","",""
"null","","html-keyboard-response","231","330420","0.0-160.0","382M9COHEI1QL38L4THHZOFK38MEUZ","A1V1JNPU0KOA3X","33Q5P9PUSP8QOKKNNN5S19YACNVCZX","","<img src=""img/set1/S2.jpg"" width=""540"" height = ""360"" style=""border:16px solid orange"">","null","","","","","","","",""
"null","","html-keyboard-response","232","330422","0.0-161.0","382M9COHEI1QL38L4THHZOFK38MEUZ","A1V1JNPU0KOA3X","33Q5P9PUSP8QOKKNNN5S19YACNVCZX","","","null","","","","","","","",""
"1048.699999999255","","image-keyboard-response","233","331472","0.0-162.0","382M9COHEI1QL38L4THHZOFK38MEUZ","A1V1JNPU0KOA3X","33Q5P9PUSP8QOKKNNN5S19YACNVCZX","","img/set1/S3.jpg","72","3","structured_incentive","72","true","structured_incentive,random,structured_normal","1,2,2,3","",""
"null","","html-keyboard-response","234","331833","0.0-163.0","382M9COHEI1QL38L4THHZOFK38MEUZ","A1V1JNPU0KOA3X","33Q5P9PUSP8QOKKNNN5S19YACNVCZX","","<img src=""img/set1/S3.jpg"" width=""540"" height = ""360"" style=""border:16px solid Violet"">","null","","","","","","","",""
"null","","html-keyboard-response","235","331836","0.0-164.0","382M9COHEI1QL38L4THHZOFK38MEUZ","A1V1JNPU0KOA3X","33Q5P9PUSP8QOKKNNN5S19YACNVCZX","","","null","","","","","","","",""
"676.5","","image-keyboard-response","236","332514","0.0-165.0","382M9COHEI1QL38L4THHZOFK38MEUZ","A1V1JNPU0KOA3X","33Q5P9PUSP8QOKKNNN5S19YACNVCZX","","img/set1/S3.jpg","72","3","structured_incentive","72","true","structured_incentive,random,structured_normal","1,2,2,3","",""
"null","","html-keyboard-response","237","332880","0.0-166.0","382M9COHEI1QL38L4THHZOFK38MEUZ","A1V1JNPU0KOA3X","33Q5P9PUSP8QOKKNNN5S19YACNVCZX","","<img src=""img/set1/S3.jpg"" width=""540"" height = ""360"" style=""border:16px solid Violet"">","null","","","","","","","",""
"null","","html-keyboard-response","238","332883","0.0-167.0","382M9COHEI1QL38L4THHZOFK38MEUZ","A1V1JNPU0KOA3X","33Q5P9PUSP8QOKKNNN5S19YACNVCZX","","","null","","","","","","","",""
"1011.6000000014901","","image-keyboard-response","239","333896","0.0-168.0","382M9COHEI1QL38L4THHZOFK38MEUZ","A1V1JNPU0KOA3X","33Q5P9PUSP8QOKKNNN5S19YACNVCZX","","img/set1/S1.jpg","83","1","structured_incentive","83","true","structured_incentive,random,structured_normal","1,2,2,3","",""
"null","","html-keyboard-response","240","334249","0.0-169.0","382M9COHEI1QL38L4THHZOFK38MEUZ","A1V1JNPU0KOA3X","33Q5P9PUSP8QOKKNNN5S19YACNVCZX","","<img src=""img/set1/S1.jpg"" width=""540"" height = ""360"" style=""border:16px solid orange"">","null","","","","","","","",""
"null","","html-keyboard-response","241","334252","0.0-170.0","382M9COHEI1QL38L4THHZOFK38MEUZ","A1V1JNPU0KOA3X","33Q5P9PUSP8QOKKNNN5S19YACNVCZX","","","null","","","","","","","",""
"871.5","","image-keyboard-response","242","335124","0.0-171.0","382M9COHEI1QL38L4THHZOFK38MEUZ","A1V1JNPU0KOA3X","33Q5P9PUSP8QOKKNNN5S19YACNVCZX","","img/set1/S2.jpg","68","2","structured_incentive","68","true","structured_incentive,random,structured_normal","1,2,2,3","",""
"null","","html-keyboard-response","243","335486","0.0-172.0","382M9COHEI1QL38L4THHZOFK38MEUZ","A1V1JNPU0KOA3X","33Q5P9PUSP8QOKKNNN5S19YACNVCZX","","<img src=""img/set1/S2.jpg"" width=""540"" height = ""360"" style=""border:16px solid orange"">","null","","","","","","","",""
"null","","html-keyboard-response","244","335488","0.0-173.0","382M9COHEI1QL38L4THHZOFK38MEUZ","A1V1JNPU0KOA3X","33Q5P9PUSP8QOKKNNN5S19YACNVCZX","","","null","","","","","","","",""
"764.5","","image-keyboard-response","245","336254","0.0-174.0","382M9COHEI1QL38L4THHZOFK38MEUZ","A1V1JNPU0KOA3X","33Q5P9PUSP8QOKKNNN5S19YACNVCZX","","img/set1/S1.jpg","83","1","structured_incentive","83","true","structured_incentive,random,structured_normal","1,2,2,3","",""
"null","","html-keyboard-response","246","336611","0.0-175.0","382M9COHEI1QL38L4THHZOFK38MEUZ","A1V1JNPU0KOA3X","33Q5P9PUSP8QOKKNNN5S19YACNVCZX","","<img src=""img/set1/S1.jpg"" width=""540"" height = ""360"" style=""border:16px solid orange"">","null","","","","","","","",""
"null","","html-keyboard-response","247","336614","0.0-176.0","382M9COHEI1QL38L4THHZOFK38MEUZ","A1V1JNPU0KOA3X","33Q5P9PUSP8QOKKNNN5S19YACNVCZX","","","null","","","","","","","",""
"671.6000000014901","","image-keyboard-response","248","337287","0.0-177.0","382M9COHEI1QL38L4THHZOFK38MEUZ","A1V1JNPU0KOA3X","33Q5P9PUSP8QOKKNNN5S19YACNVCZX","","img/set1/S2.jpg","68","2","structured_incentive","68","true","structured_incentive,random,structured_normal","1,2,2,3","",""
"null","","html-keyboard-response","249","337643","0.0-178.0","382M9COHEI1QL38L4THHZOFK38MEUZ","A1V1JNPU0KOA3X","33Q5P9PUSP8QOKKNNN5S19YACNVCZX","","<img src=""img/set1/S2.jpg"" width=""540"" height = ""360"" style=""border:16px solid orange"">","null","","","","","","","",""
"null","","html-keyboard-response","250","337646","0.0-179.0","382M9COHEI1QL38L4THHZOFK38MEUZ","A1V1JNPU0KOA3X","33Q5P9PUSP8QOKKNNN5S19YACNVCZX","","","null","","","","","","","",""
"622.5","","image-keyboard-response","251","338270","0.0-180.0","382M9COHEI1QL38L4THHZOFK38MEUZ","A1V1JNPU0KOA3X","33Q5P9PUSP8QOKKNNN5S19YACNVCZX","","img/set1/S1.jpg","83","1","structured_incentive","83","true","structured_incentive,random,structured_normal","1,2,2,3","",""
"null","","html-keyboard-response","252","338629","0.0-181.0","382M9COHEI1QL38L4THHZOFK38MEUZ","A1V1JNPU0KOA3X","33Q5P9PUSP8QOKKNNN5S19YACNVCZX","","<img src=""img/set1/S1.jpg"" width=""540"" height = ""360"" style=""border:16px solid orange"">","null","","","","","","","",""
"null","","html-keyboard-response","253","338631","0.0-182.0","382M9COHEI1QL38L4THHZOFK38MEUZ","A1V1JNPU0KOA3X","33Q5P9PUSP8QOKKNNN5S19YACNVCZX","","","null","","","","","","","",""
"588.3999999985099","","image-keyboard-response","254","339221","0.0-183.0","382M9COHEI1QL38L4THHZOFK38MEUZ","A1V1JNPU0KOA3X","33Q5P9PUSP8QOKKNNN5S19YACNVCZX","","img/set1/S2.jpg","68","2","structured_incentive","68","true","structured_incentive,random,structured_normal","1,2,2,3","",""
"null","","html-keyboard-response","255","339575","0.0-184.0","382M9COHEI1QL38L4THHZOFK38MEUZ","A1V1JNPU0KOA3X","33Q5P9PUSP8QOKKNNN5S19YACNVCZX","","<img src=""img/set1/S2.jpg"" width=""540"" height = ""360"" style=""border:16px solid orange"">","null","","","","","","","",""
"null","","html-keyboard-response","256","339578","0.0-185.0","382M9COHEI1QL38L4THHZOFK38MEUZ","A1V1JNPU0KOA3X","33Q5P9PUSP8QOKKNNN5S19YACNVCZX","","","null","","","","","","","",""
"546.8999999985099","","image-keyboard-response","257","340127","0.0-186.0","382M9COHEI1QL38L4THHZOFK38MEUZ","A1V1JNPU0KOA3X","33Q5P9PUSP8QOKKNNN5S19YACNVCZX","","img/set1/S1.jpg","83","1","structured_incentive","83","true","structured_incentive,random,structured_normal","1,2,2,3","",""
"null","","html-keyboard-response","258","340479","0.0-187.0","382M9COHEI1QL38L4THHZOFK38MEUZ","A1V1JNPU0KOA3X","33Q5P9PUSP8QOKKNNN5S19YACNVCZX","","<img src=""img/set1/S1.jpg"" width=""540"" height = ""360"" style=""border:16px solid orange"">","null","","","","","","","",""
"null","","html-keyboard-response","259","340483","0.0-188.0","382M9COHEI1QL38L4THHZOFK38MEUZ","A1V1JNPU0KOA3X","33Q5P9PUSP8QOKKNNN5S19YACNVCZX","","","null","","","","","","","",""
"568.6999999992549","","image-keyboard-response","260","341052","0.0-189.0","382M9COHEI1QL38L4THHZOFK38MEUZ","A1V1JNPU0KOA3X","33Q5P9PUSP8QOKKNNN5S19YACNVCZX","","img/set1/S2.jpg","68","2","structured_incentive","68","true","structured_incentive,random,structured_normal","1,2,2,3","",""
"null","","html-keyboard-response","261","341417","0.0-190.0","382M9COHEI1QL38L4THHZOFK38MEUZ","A1V1JNPU0KOA3X","33Q5P9PUSP8QOKKNNN5S19YACNVCZX","","<img src=""img/set1/S2.jpg"" width=""540"" height = ""360"" style=""border:16px solid orange"">","null","","","","","","","",""
"null","","html-keyboard-response","262","341419","0.0-191.0","382M9COHEI1QL38L4THHZOFK38MEUZ","A1V1JNPU0KOA3X","33Q5P9PUSP8QOKKNNN5S19YACNVCZX","","","null","","","","","","","",""
"820.6000000014901","","image-keyboard-response","263","342241","0.0-192.0","382M9COHEI1QL38L4THHZOFK38MEUZ","A1V1JNPU0KOA3X","33Q5P9PUSP8QOKKNNN5S19YACNVCZX","","img/set1/S4.jpg","74","4","structured_incentive","74","true","structured_incentive,random,structured_normal","1,2,2,3","",""
"null","","html-keyboard-response","264","342607","0.0-193.0","382M9COHEI1QL38L4THHZOFK38MEUZ","A1V1JNPU0KOA3X","33Q5P9PUSP8QOKKNNN5S19YACNVCZX","","<img src=""img/set1/S4.jpg"" width=""540"" height = ""360"" style=""border:16px solid orange"">","null","","","","","","","",""
"null","","html-keyboard-response","265","342609","0.0-194.0","382M9COHEI1QL38L4THHZOFK38MEUZ","A1V1JNPU0KOA3X","33Q5P9PUSP8QOKKNNN5S19YACNVCZX","","","null","","","","","","","",""
"721.6000000014901","","image-keyboard-response","266","343333","0.0-195.0","382M9COHEI1QL38L4THHZOFK38MEUZ","A1V1JNPU0KOA3X","33Q5P9PUSP8QOKKNNN5S19YACNVCZX","","img/set1/S3.jpg","72","3","structured_incentive","72","true","structured_incentive,random,structured_normal","1,2,2,3","",""
"null","","html-keyboard-response","267","343693","0.0-196.0","382M9COHEI1QL38L4THHZOFK38MEUZ","A1V1JNPU0KOA3X","33Q5P9PUSP8QOKKNNN5S19YACNVCZX","","<img src=""img/set1/S3.jpg"" width=""540"" height = ""360"" style=""border:16px solid Violet"">","null","","","","","","","",""
"null","","html-keyboard-response","268","343695","0.0-197.0","382M9COHEI1QL38L4THHZOFK38MEUZ","A1V1JNPU0KOA3X","33Q5P9PUSP8QOKKNNN5S19YACNVCZX","","","null","","","","","","","",""
"621.3000000007451","","image-keyboard-response","269","344318","0.0-198.0","382M9COHEI1QL38L4THHZOFK38MEUZ","A1V1JNPU0KOA3X","33Q5P9PUSP8QOKKNNN5S19YACNVCZX","","img/set1/S3.jpg","72","3","structured_incentive","72","true","structured_incentive,random,structured_normal","1,2,2,3","",""
"null","","html-keyboard-response","270","344684","0.0-199.0","382M9COHEI1QL38L4THHZOFK38MEUZ","A1V1JNPU0KOA3X","33Q5P9PUSP8QOKKNNN5S19YACNVCZX","","<img src=""img/set1/S3.jpg"" width=""540"" height = ""360"" style=""border:16px solid Violet"">","null","","","","","","","",""
"null","","html-keyboard-response","271","344687","0.0-200.0","382M9COHEI1QL38L4THHZOFK38MEUZ","A1V1JNPU0KOA3X","33Q5P9PUSP8QOKKNNN5S19YACNVCZX","","","null","","","","","","","",""
"530.8000000007451","","image-keyboard-response","272","345219","0.0-201.0","382M9COHEI1QL38L4THHZOFK38MEUZ","A1V1JNPU0KOA3X","33Q5P9PUSP8QOKKNNN5S19YACNVCZX","","img/set1/S3.jpg","72","3","structured_incentive","72","true","structured_incentive,random,structured_normal","1,2,2,3","",""
"null","","html-keyboard-response","273","345587","0.0-202.0","382M9COHEI1QL38L4THHZOFK38MEUZ","A1V1JNPU0KOA3X","33Q5P9PUSP8QOKKNNN5S19YACNVCZX","","<img src=""img/set1/S3.jpg"" width=""540"" height = ""360"" style=""border:16px solid Violet"">","null","","","","","","","",""
"null","","html-keyboard-response","274","345591","0.0-203.0","382M9COHEI1QL38L4THHZOFK38MEUZ","A1V1JNPU0KOA3X","33Q5P9PUSP8QOKKNNN5S19YACNVCZX","","","null","","","","","","","",""
"690.6000000014901","","image-keyboard-response","275","346282","0.0-204.0","382M9COHEI1QL38L4THHZOFK38MEUZ","A1V1JNPU0KOA3X","33Q5P9PUSP8QOKKNNN5S19YACNVCZX","","img/set1/S4.jpg","74","4","structured_incentive","74","true","structured_incentive,random,structured_normal","1,2,2,3","",""
"null","","html-keyboard-response","276","346636","0.0-205.0","382M9COHEI1QL38L4THHZOFK38MEUZ","A1V1JNPU0KOA3X","33Q5P9PUSP8QOKKNNN5S19YACNVCZX","","<img src=""img/set1/S4.jpg"" width=""540"" height = ""360"" style=""border:16px solid orange"">","null","","","","","","","",""
"null","","html-keyboard-response","277","346640","0.0-206.0","382M9COHEI1QL38L4THHZOFK38MEUZ","A1V1JNPU0KOA3X","33Q5P9PUSP8QOKKNNN5S19YACNVCZX","","","null","","","","","","","",""
"1385.7000000029802","","image-keyboard-response","278","348028","0.0-207.0","382M9COHEI1QL38L4THHZOFK38MEUZ","A1V1JNPU0KOA3X","33Q5P9PUSP8QOKKNNN5S19YACNVCZX","","img/set1/S2.jpg","68","2","structured_incentive","68","true","structured_incentive,random,structured_normal","1,2,2,3","",""
"null","","html-keyboard-response","279","348380","0.0-208.0","382M9COHEI1QL38L4THHZOFK38MEUZ","A1V1JNPU0KOA3X","33Q5P9PUSP8QOKKNNN5S19YACNVCZX","","<img src=""img/set1/S2.jpg"" width=""540"" height = ""360"" style=""border:16px solid orange"">","null","","","","","","","",""
"null","","html-keyboard-response","280","348382","0.0-209.0","382M9COHEI1QL38L4THHZOFK38MEUZ","A1V1JNPU0KOA3X","33Q5P9PUSP8QOKKNNN5S19YACNVCZX","","","null","","","","","","","",""
"929.8000000007451","","image-keyboard-response","281","349314","0.0-210.0","382M9COHEI1QL38L4THHZOFK38MEUZ","A1V1JNPU0KOA3X","33Q5P9PUSP8QOKKNNN5S19YACNVCZX","","img/set1/S4.jpg","74","4","structured_incentive","74","true","structured_incentive,random,structured_normal","1,2,2,3","",""
"null","","html-keyboard-response","282","349673","0.0-211.0","382M9COHEI1QL38L4THHZOFK38MEUZ","A1V1JNPU0KOA3X","33Q5P9PUSP8QOKKNNN5S19YACNVCZX","","<img src=""img/set1/S4.jpg"" width=""540"" height = ""360"" style=""border:16px solid orange"">","null","","","","","","","",""
"null","","html-keyboard-response","283","349676","0.0-212.0","382M9COHEI1QL38L4THHZOFK38MEUZ","A1V1JNPU0KOA3X","33Q5P9PUSP8QOKKNNN5S19YACNVCZX","","","null","","","","","","","",""
"974.6000000014901","","image-keyboard-response","284","350653","0.0-213.0","382M9COHEI1QL38L4THHZOFK38MEUZ","A1V1JNPU0KOA3X","33Q5P9PUSP8QOKKNNN5S19YACNVCZX","","img/set1/S1.jpg","83","1","structured_incentive","83","true","structured_incentive,random,structured_normal","1,2,2,3","",""
"null","","html-keyboard-response","285","351014","0.0-214.0","382M9COHEI1QL38L4THHZOFK38MEUZ","A1V1JNPU0KOA3X","33Q5P9PUSP8QOKKNNN5S19YACNVCZX","","<img src=""img/set1/S1.jpg"" width=""540"" height = ""360"" style=""border:16px solid orange"">","null","","","","","","","",""
"null","","html-keyboard-response","286","351016","0.0-215.0","382M9COHEI1QL38L4THHZOFK38MEUZ","A1V1JNPU0KOA3X","33Q5P9PUSP8QOKKNNN5S19YACNVCZX","","","null","","","","","","","",""
"890","","image-keyboard-response","287","351908","0.0-216.0","382M9COHEI1QL38L4THHZOFK38MEUZ","A1V1JNPU0KOA3X","33Q5P9PUSP8QOKKNNN5S19YACNVCZX","","img/set1/S2.jpg","68","2","structured_incentive","68","true","structured_incentive,random,structured_normal","1,2,2,3","",""
"null","","html-keyboard-response","288","352266","0.0-217.0","382M9COHEI1QL38L4THHZOFK38MEUZ","A1V1JNPU0KOA3X","33Q5P9PUSP8QOKKNNN5S19YACNVCZX","","<img src=""img/set1/S2.jpg"" width=""540"" height = ""360"" style=""border:16px solid orange"">","null","","","","","","","",""
"null","","html-keyboard-response","289","352268","0.0-218.0","382M9COHEI1QL38L4THHZOFK38MEUZ","A1V1JNPU0KOA3X","33Q5P9PUSP8QOKKNNN5S19YACNVCZX","","","null","","","","","","","",""
"904.6999999992549","","image-keyboard-response","290","353174","0.0-219.0","382M9COHEI1QL38L4THHZOFK38MEUZ","A1V1JNPU0KOA3X","33Q5P9PUSP8QOKKNNN5S19YACNVCZX","","img/set1/S3.jpg","72","3","structured_incentive","72","true","structured_incentive,random,structured_normal","1,2,2,3","",""
"null","","html-keyboard-response","291","353533","0.0-220.0","382M9COHEI1QL38L4THHZOFK38MEUZ","A1V1JNPU0KOA3X","33Q5P9PUSP8QOKKNNN5S19YACNVCZX","","<img src=""img/set1/S3.jpg"" width=""540"" height = ""360"" style=""border:16px solid Violet"">","null","","","","","","","",""
"null","","html-keyboard-response","292","353535","0.0-221.0","382M9COHEI1QL38L4THHZOFK38MEUZ","A1V1JNPU0KOA3X","33Q5P9PUSP8QOKKNNN5S19YACNVCZX","","","null","","","","","","","",""
"990.2000000029802","","image-keyboard-response","293","354526","0.0-222.0","382M9COHEI1QL38L4THHZOFK38MEUZ","A1V1JNPU0KOA3X","33Q5P9PUSP8QOKKNNN5S19YACNVCZX","","img/set1/S4.jpg","74","4","structured_incentive","74","true","structured_incentive,random,structured_normal","1,2,2,3","",""
"null","","html-keyboard-response","294","354879","0.0-223.0","382M9COHEI1QL38L4THHZOFK38MEUZ","A1V1JNPU0KOA3X","33Q5P9PUSP8QOKKNNN5S19YACNVCZX","","<img src=""img/set1/S4.jpg"" width=""540"" height = ""360"" style=""border:16px solid orange"">","null","","","","","","","",""
"null","","html-keyboard-response","295","354882","0.0-224.0","382M9COHEI1QL38L4THHZOFK38MEUZ","A1V1JNPU0KOA3X","33Q5P9PUSP8QOKKNNN5S19YACNVCZX","","","null","","","","","","","",""
"596.2999999970198","","image-keyboard-response","296","355480","0.0-225.0","382M9COHEI1QL38L4THHZOFK38MEUZ","A1V1JNPU0KOA3X","33Q5P9PUSP8QOKKNNN5S19YACNVCZX","","img/set1/S4.jpg","74","4","structured_incentive","74","true","structured_incentive,random,structured_normal","1,2,2,3","",""
"null","","html-keyboard-response","297","355842","0.0-226.0","382M9COHEI1QL38L4THHZOFK38MEUZ","A1V1JNPU0KOA3X","33Q5P9PUSP8QOKKNNN5S19YACNVCZX","","<img src=""img/set1/S4.jpg"" width=""540"" height = ""360"" style=""border:16px solid orange"">","null","","","","","","","",""
"null","","html-keyboard-response","298","355846","0.0-227.0","382M9COHEI1QL38L4THHZOFK38MEUZ","A1V1JNPU0KOA3X","33Q5P9PUSP8QOKKNNN5S19YACNVCZX","","","null","","","","","","","",""
"844","","image-keyboard-response","299","356691","0.0-228.0","382M9COHEI1QL38L4THHZOFK38MEUZ","A1V1JNPU0KOA3X","33Q5P9PUSP8QOKKNNN5S19YACNVCZX","","img/set1/S1.jpg","83","1","structured_incentive","83","true","structured_incentive,random,structured_normal","1,2,2,3","",""
"null","","html-keyboard-response","300","357056","0.0-229.0","382M9COHEI1QL38L4THHZOFK38MEUZ","A1V1JNPU0KOA3X","33Q5P9PUSP8QOKKNNN5S19YACNVCZX","","<img src=""img/set1/S1.jpg"" width=""540"" height = ""360"" style=""border:16px solid orange"">","null","","","","","","","",""
"null","","html-keyboard-response","301","357059","0.0-230.0","382M9COHEI1QL38L4THHZOFK38MEUZ","A1V1JNPU0KOA3X","33Q5P9PUSP8QOKKNNN5S19YACNVCZX","","","null","","","","","","","",""
"1006","","image-keyboard-response","302","358066","0.0-231.0","382M9COHEI1QL38L4THHZOFK38MEUZ","A1V1JNPU0KOA3X","33Q5P9PUSP8QOKKNNN5S19YACNVCZX","","img/set1/S2.jpg","68","2","structured_incentive","68","true","structured_incentive,random,structured_normal","1,2,2,3","",""
"null","","html-keyboard-response","303","358424","0.0-232.0","382M9COHEI1QL38L4THHZOFK38MEUZ","A1V1JNPU0KOA3X","33Q5P9PUSP8QOKKNNN5S19YACNVCZX","","<img src=""img/set1/S2.jpg"" width=""540"" height = ""360"" style=""border:16px solid orange"">","null","","","","","","","",""
"null","","html-keyboard-response","304","358426","0.0-233.0","382M9COHEI1QL38L4THHZOFK38MEUZ","A1V1JNPU0KOA3X","33Q5P9PUSP8QOKKNNN5S19YACNVCZX","","","null","","","","","","","",""
"1032.699999999255","","image-keyboard-response","305","359461","0.0-234.0","382M9COHEI1QL38L4THHZOFK38MEUZ","A1V1JNPU0KOA3X","33Q5P9PUSP8QOKKNNN5S19YACNVCZX","","img/set1/S4.jpg","74","4","structured_incentive","74","true","structured_incentive,random,structured_normal","1,2,2,3","",""
"null","","html-keyboard-response","306","359813","0.0-235.0","382M9COHEI1QL38L4THHZOFK38MEUZ","A1V1JNPU0KOA3X","33Q5P9PUSP8QOKKNNN5S19YACNVCZX","","<img src=""img/set1/S4.jpg"" width=""540"" height = ""360"" style=""border:16px solid orange"">","null","","","","","","","",""
"null","","html-keyboard-response","307","359816","0.0-236.0","382M9COHEI1QL38L4THHZOFK38MEUZ","A1V1JNPU0KOA3X","33Q5P9PUSP8QOKKNNN5S19YACNVCZX","","","null","","","","","","","",""
"930.6999999992549","","image-keyboard-response","308","360748","0.0-237.0","382M9COHEI1QL38L4THHZOFK38MEUZ","A1V1JNPU0KOA3X","33Q5P9PUSP8QOKKNNN5S19YACNVCZX","","img/set1/S1.jpg","83","1","structured_incentive","83","true","structured_incentive,random,structured_normal","1,2,2,3","",""
"null","","html-keyboard-response","309","361103","0.0-238.0","382M9COHEI1QL38L4THHZOFK38MEUZ","A1V1JNPU0KOA3X","33Q5P9PUSP8QOKKNNN5S19YACNVCZX","","<img src=""img/set1/S1.jpg"" width=""540"" height = ""360"" style=""border:16px solid orange"">","null","","","","","","","",""
"null","","html-keyboard-response","310","361106","0.0-239.0","382M9COHEI1QL38L4THHZOFK38MEUZ","A1V1JNPU0KOA3X","33Q5P9PUSP8QOKKNNN5S19YACNVCZX","","","null","","","","","","","",""
"894.1999999992549","","image-keyboard-response","311","362001","0.0-240.0","382M9COHEI1QL38L4THHZOFK38MEUZ","A1V1JNPU0KOA3X","33Q5P9PUSP8QOKKNNN5S19YACNVCZX","","img/set1/S2.jpg","68","2","structured_incentive","68","true","structured_incentive,random,structured_normal","1,2,2,3","",""
"null","","html-keyboard-response","312","362366","0.0-241.0","382M9COHEI1QL38L4THHZOFK38MEUZ","A1V1JNPU0KOA3X","33Q5P9PUSP8QOKKNNN5S19YACNVCZX","","<img src=""img/set1/S2.jpg"" width=""540"" height = ""360"" style=""border:16px solid orange"">","null","","","","","","","",""
"null","","html-keyboard-response","313","362368","0.0-242.0","382M9COHEI1QL38L4THHZOFK38MEUZ","A1V1JNPU0KOA3X","33Q5P9PUSP8QOKKNNN5S19YACNVCZX","","","null","","","","","","","",""
"663.5999999977648","","image-keyboard-response","314","363034","0.0-243.0","382M9COHEI1QL38L4THHZOFK38MEUZ","A1V1JNPU0KOA3X","33Q5P9PUSP8QOKKNNN5S19YACNVCZX","","img/set1/S1.jpg","83","1","structured_incentive","83","true","structured_incentive,random,structured_normal","1,2,2,3","",""
"null","","html-keyboard-response","315","363397","0.0-244.0","382M9COHEI1QL38L4THHZOFK38MEUZ","A1V1JNPU0KOA3X","33Q5P9PUSP8QOKKNNN5S19YACNVCZX","","<img src=""img/set1/S1.jpg"" width=""540"" height = ""360"" style=""border:16px solid orange"">","null","","","","","","","",""
"null","","html-keyboard-response","316","363399","0.0-245.0","382M9COHEI1QL38L4THHZOFK38MEUZ","A1V1JNPU0KOA3X","33Q5P9PUSP8QOKKNNN5S19YACNVCZX","","","null","","","","","","","",""
"596.7999999970198","","image-keyboard-response","317","363998","0.0-246.0","382M9COHEI1QL38L4THHZOFK38MEUZ","A1V1JNPU0KOA3X","33Q5P9PUSP8QOKKNNN5S19YACNVCZX","","img/set1/S2.jpg","68","2","structured_incentive","68","true","structured_incentive,random,structured_normal","1,2,2,3","",""
"null","","html-keyboard-response","318","364363","0.0-247.0","382M9COHEI1QL38L4THHZOFK38MEUZ","A1V1JNPU0KOA3X","33Q5P9PUSP8QOKKNNN5S19YACNVCZX","","<img src=""img/set1/S2.jpg"" width=""540"" height = ""360"" style=""border:16px solid orange"">","null","","","","","","","",""
"null","","html-keyboard-response","319","364366","0.0-248.0","382M9COHEI1QL38L4THHZOFK38MEUZ","A1V1JNPU0KOA3X","33Q5P9PUSP8QOKKNNN5S19YACNVCZX","","","null","","","","","","","",""
"622.2000000029802","","image-keyboard-response","320","364989","0.0-249.0","382M9COHEI1QL38L4THHZOFK38MEUZ","A1V1JNPU0KOA3X","33Q5P9PUSP8QOKKNNN5S19YACNVCZX","","img/set1/S3.jpg","72","3","structured_incentive","72","true","structured_incentive,random,structured_normal","1,2,2,3","",""
"null","","html-keyboard-response","321","365343","0.0-250.0","382M9COHEI1QL38L4THHZOFK38MEUZ","A1V1JNPU0KOA3X","33Q5P9PUSP8QOKKNNN5S19YACNVCZX","","<img src=""img/set1/S3.jpg"" width=""540"" height = ""360"" style=""border:16px solid Violet"">","null","","","","","","","",""
"null","","html-keyboard-response","322","365346","0.0-251.0","382M9COHEI1QL38L4THHZOFK38MEUZ","A1V1JNPU0KOA3X","33Q5P9PUSP8QOKKNNN5S19YACNVCZX","","","null","","","","","","","",""
"947.3000000007451","","image-keyboard-response","323","366295","0.0-252.0","382M9COHEI1QL38L4THHZOFK38MEUZ","A1V1JNPU0KOA3X","33Q5P9PUSP8QOKKNNN5S19YACNVCZX","","img/set1/S1.jpg","83","1","structured_incentive","83","true","structured_incentive,random,structured_normal","1,2,2,3","",""
"null","","html-keyboard-response","324","366647","0.0-253.0","382M9COHEI1QL38L4THHZOFK38MEUZ","A1V1JNPU0KOA3X","33Q5P9PUSP8QOKKNNN5S19YACNVCZX","","<img src=""img/set1/S1.jpg"" width=""540"" height = ""360"" style=""border:16px solid orange"">","null","","","","","","","",""
"null","","html-keyboard-response","325","366650","0.0-254.0","382M9COHEI1QL38L4THHZOFK38MEUZ","A1V1JNPU0KOA3X","33Q5P9PUSP8QOKKNNN5S19YACNVCZX","","","null","","","","","","","",""
"833.7999999970198","","image-keyboard-response","326","367485","0.0-255.0","382M9COHEI1QL38L4THHZOFK38MEUZ","A1V1JNPU0KOA3X","33Q5P9PUSP8QOKKNNN5S19YACNVCZX","","img/set1/S3.jpg","72","3","structured_incentive","72","true","structured_incentive,random,structured_normal","1,2,2,3","",""
"null","","html-keyboard-response","327","367846","0.0-256.0","382M9COHEI1QL38L4THHZOFK38MEUZ","A1V1JNPU0KOA3X","33Q5P9PUSP8QOKKNNN5S19YACNVCZX","","<img src=""img/set1/S3.jpg"" width=""540"" height = ""360"" style=""border:16px solid Violet"">","null","","","","","","","",""
"null","","html-keyboard-response","328","367848","0.0-257.0","382M9COHEI1QL38L4THHZOFK38MEUZ","A1V1JNPU0KOA3X","33Q5P9PUSP8QOKKNNN5S19YACNVCZX","","","null","","","","","","","",""
"733.8999999985099","","image-keyboard-response","329","368584","0.0-258.0","382M9COHEI1QL38L4THHZOFK38MEUZ","A1V1JNPU0KOA3X","33Q5P9PUSP8QOKKNNN5S19YACNVCZX","","img/set1/S1.jpg","83","1","structured_incentive","83","true","structured_incentive,random,structured_normal","1,2,2,3","",""
"null","","html-keyboard-response","330","368950","0.0-259.0","382M9COHEI1QL38L4THHZOFK38MEUZ","A1V1JNPU0KOA3X","33Q5P9PUSP8QOKKNNN5S19YACNVCZX","","<img src=""img/set1/S1.jpg"" width=""540"" height = ""360"" style=""border:16px solid orange"">","null","","","","","","","",""
"null","","html-keyboard-response","331","368953","0.0-260.0","382M9COHEI1QL38L4THHZOFK38MEUZ","A1V1JNPU0KOA3X","33Q5P9PUSP8QOKKNNN5S19YACNVCZX","","","null","","","","","","","",""
"920.9000000022352","","image-keyboard-response","332","369875","0.0-261.0","382M9COHEI1QL38L4THHZOFK38MEUZ","A1V1JNPU0KOA3X","33Q5P9PUSP8QOKKNNN5S19YACNVCZX","","img/set1/S2.jpg","68","2","structured_incentive","68","true","structured_incentive,random,structured_normal","1,2,2,3","",""
"null","","html-keyboard-response","333","370243","0.0-262.0","382M9COHEI1QL38L4THHZOFK38MEUZ","A1V1JNPU0KOA3X","33Q5P9PUSP8QOKKNNN5S19YACNVCZX","","<img src=""img/set1/S2.jpg"" width=""540"" height = ""360"" style=""border:16px solid orange"">","null","","","","","","","",""
"null","","html-keyboard-response","334","370246","0.0-263.0","382M9COHEI1QL38L4THHZOFK38MEUZ","A1V1JNPU0KOA3X","33Q5P9PUSP8QOKKNNN5S19YACNVCZX","","","null","","","","","","","",""
"971.5","","image-keyboard-response","335","371219","0.0-264.0","382M9COHEI1QL38L4THHZOFK38MEUZ","A1V1JNPU0KOA3X","33Q5P9PUSP8QOKKNNN5S19YACNVCZX","","img/set1/S3.jpg","72","3","structured_incentive","72","true","structured_incentive,random,structured_normal","1,2,2,3","",""
"null","","html-keyboard-response","336","371584","0.0-265.0","382M9COHEI1QL38L4THHZOFK38MEUZ","A1V1JNPU0KOA3X","33Q5P9PUSP8QOKKNNN5S19YACNVCZX","","<img src=""img/set1/S3.jpg"" width=""540"" height = ""360"" style=""border:16px solid Violet"">","null","","","","","","","",""
"null","","html-keyboard-response","337","371586","0.0-266.0","382M9COHEI1QL38L4THHZOFK38MEUZ","A1V1JNPU0KOA3X","33Q5P9PUSP8QOKKNNN5S19YACNVCZX","","","null","","","","","","","",""
"911.3000000007451","","image-keyboard-response","338","372499","0.0-267.0","382M9COHEI1QL38L4THHZOFK38MEUZ","A1V1JNPU0KOA3X","33Q5P9PUSP8QOKKNNN5S19YACNVCZX","","img/set1/S1.jpg","83","1","structured_incentive","83","true","structured_incentive,random,structured_normal","1,2,2,3","",""
"null","","html-keyboard-response","339","372862","0.0-268.0","382M9COHEI1QL38L4THHZOFK38MEUZ","A1V1JNPU0KOA3X","33Q5P9PUSP8QOKKNNN5S19YACNVCZX","","<img src=""img/set1/S1.jpg"" width=""540"" height = ""360"" style=""border:16px solid orange"">","null","","","","","","","",""
"null","","html-keyboard-response","340","372864","0.0-269.0","382M9COHEI1QL38L4THHZOFK38MEUZ","A1V1JNPU0KOA3X","33Q5P9PUSP8QOKKNNN5S19YACNVCZX","","","null","","","","","","","",""
"702","","image-keyboard-response","341","373568","0.0-270.0","382M9COHEI1QL38L4THHZOFK38MEUZ","A1V1JNPU0KOA3X","33Q5P9PUSP8QOKKNNN5S19YACNVCZX","","img/set1/S2.jpg","68","2","structured_incentive","68","true","structured_incentive,random,structured_normal","1,2,2,3","",""
"null","","html-keyboard-response","342","373921","0.0-271.0","382M9COHEI1QL38L4THHZOFK38MEUZ","A1V1JNPU0KOA3X","33Q5P9PUSP8QOKKNNN5S19YACNVCZX","","<img src=""img/set1/S2.jpg"" width=""540"" height = ""360"" style=""border:16px solid orange"">","null","","","","","","","",""
"null","","html-keyboard-response","343","373923","0.0-272.0","382M9COHEI1QL38L4THHZOFK38MEUZ","A1V1JNPU0KOA3X","33Q5P9PUSP8QOKKNNN5S19YACNVCZX","","","null","","","","","","","",""
"564.1999999992549","","image-keyboard-response","344","374489","0.0-273.0","382M9COHEI1QL38L4THHZOFK38MEUZ","A1V1JNPU0KOA3X","33Q5P9PUSP8QOKKNNN5S19YACNVCZX","","img/set1/S1.jpg","83","1","structured_incentive","83","true","structured_incentive,random,structured_normal","1,2,2,3","",""
"null","","html-keyboard-response","345","374844","0.0-274.0","382M9COHEI1QL38L4THHZOFK38MEUZ","A1V1JNPU0KOA3X","33Q5P9PUSP8QOKKNNN5S19YACNVCZX","","<img src=""img/set1/S1.jpg"" width=""540"" height = ""360"" style=""border:16px solid orange"">","null","","","","","","","",""
"null","","html-keyboard-response","346","374847","0.0-275.0","382M9COHEI1QL38L4THHZOFK38MEUZ","A1V1JNPU0KOA3X","33Q5P9PUSP8QOKKNNN5S19YACNVCZX","","","null","","","","","","","",""
"524","","image-keyboard-response","347","375372","0.0-276.0","382M9COHEI1QL38L4THHZOFK38MEUZ","A1V1JNPU0KOA3X","33Q5P9PUSP8QOKKNNN5S19YACNVCZX","","img/set1/S3.jpg","68","3","structured_incentive","72","false","structured_incentive,random,structured_normal","1,2,2,3","",""
"null","","html-keyboard-response","348","375733","0.0-277.0","382M9COHEI1QL38L4THHZOFK38MEUZ","A1V1JNPU0KOA3X","33Q5P9PUSP8QOKKNNN5S19YACNVCZX","","<img src=""img/set1/S3.jpg"" width=""540"" height = ""360"">","null","","","","","","","",""
"null","","html-keyboard-response","349","375736","0.0-278.0","382M9COHEI1QL38L4THHZOFK38MEUZ","A1V1JNPU0KOA3X","33Q5P9PUSP8QOKKNNN5S19YACNVCZX","","","null","","","","","","","",""
"873.3000000007451","","image-keyboard-response","350","376611","0.0-279.0","382M9COHEI1QL38L4THHZOFK38MEUZ","A1V1JNPU0KOA3X","33Q5P9PUSP8QOKKNNN5S19YACNVCZX","","img/set1/S1.jpg","83","1","structured_incentive","83","true","structured_incentive,random,structured_normal","1,2,2,3","",""
"null","","html-keyboard-response","351","376968","0.0-280.0","382M9COHEI1QL38L4THHZOFK38MEUZ","A1V1JNPU0KOA3X","33Q5P9PUSP8QOKKNNN5S19YACNVCZX","","<img src=""img/set1/S1.jpg"" width=""540"" height = ""360"" style=""border:16px solid orange"">","null","","","","","","","",""
"null","","html-keyboard-response","352","376970","0.0-281.0","382M9COHEI1QL38L4THHZOFK38MEUZ","A1V1JNPU0KOA3X","33Q5P9PUSP8QOKKNNN5S19YACNVCZX","","","null","","","","","","","",""
"832","","image-keyboard-response","353","377804","0.0-282.0","382M9COHEI1QL38L4THHZOFK38MEUZ","A1V1JNPU0KOA3X","33Q5P9PUSP8QOKKNNN5S19YACNVCZX","","img/set1/S2.jpg","68","2","structured_incentive","68","true","structured_incentive,random,structured_normal","1,2,2,3","",""
"null","","html-keyboard-response","354","378174","0.0-283.0","382M9COHEI1QL38L4THHZOFK38MEUZ","A1V1JNPU0KOA3X","33Q5P9PUSP8QOKKNNN5S19YACNVCZX","","<img src=""img/set1/S2.jpg"" width=""540"" height = ""360"" style=""border:16px solid orange"">","null","","","","","","","",""
"null","","html-keyboard-response","355","378177","0.0-284.0","382M9COHEI1QL38L4THHZOFK38MEUZ","A1V1JNPU0KOA3X","33Q5P9PUSP8QOKKNNN5S19YACNVCZX","","","null","","","","","","","",""
"599.0999999977648","","image-keyboard-response","356","378777","0.0-285.0","382M9COHEI1QL38L4THHZOFK38MEUZ","A1V1JNPU0KOA3X","33Q5P9PUSP8QOKKNNN5S19YACNVCZX","","img/set1/S3.jpg","72","3","structured_incentive","72","true","structured_incentive,random,structured_normal","1,2,2,3","",""
"null","","html-keyboard-response","357","379143","0.0-286.0","382M9COHEI1QL38L4THHZOFK38MEUZ","A1V1JNPU0KOA3X","33Q5P9PUSP8QOKKNNN5S19YACNVCZX","","<img src=""img/set1/S3.jpg"" width=""540"" height = ""360"" style=""border:16px solid Violet"">","null","","","","","","","",""
"null","","html-keyboard-response","358","379146","0.0-287.0","382M9COHEI1QL38L4THHZOFK38MEUZ","A1V1JNPU0KOA3X","33Q5P9PUSP8QOKKNNN5S19YACNVCZX","","","null","","","","","","","",""
"511.6000000014901","","image-keyboard-response","359","379658","0.0-288.0","382M9COHEI1QL38L4THHZOFK38MEUZ","A1V1JNPU0KOA3X","33Q5P9PUSP8QOKKNNN5S19YACNVCZX","","img/set1/S3.jpg","72","3","structured_incentive","72","true","structured_incentive,random,structured_normal","1,2,2,3","",""
"null","","html-keyboard-response","360","380017","0.0-289.0","382M9COHEI1QL38L4THHZOFK38MEUZ","A1V1JNPU0KOA3X","33Q5P9PUSP8QOKKNNN5S19YACNVCZX","","<img src=""img/set1/S3.jpg"" width=""540"" height = ""360"" style=""border:16px solid Violet"">","null","","","","","","","",""
"null","","html-keyboard-response","361","380020","0.0-290.0","382M9COHEI1QL38L4THHZOFK38MEUZ","A1V1JNPU0KOA3X","33Q5P9PUSP8QOKKNNN5S19YACNVCZX","","","null","","","","","","","",""
"817.5","","image-keyboard-response","362","380840","0.0-291.0","382M9COHEI1QL38L4THHZOFK38MEUZ","A1V1JNPU0KOA3X","33Q5P9PUSP8QOKKNNN5S19YACNVCZX","","img/set1/S4.jpg","74","4","structured_incentive","74","true","structured_incentive,random,structured_normal","1,2,2,3","",""
"null","","html-keyboard-response","363","381200","0.0-292.0","382M9COHEI1QL38L4THHZOFK38MEUZ","A1V1JNPU0KOA3X","33Q5P9PUSP8QOKKNNN5S19YACNVCZX","","<img src=""img/set1/S4.jpg"" width=""540"" height = ""360"" style=""border:16px solid orange"">","null","","","","","","","",""
"null","","html-keyboard-response","364","381203","0.0-293.0","382M9COHEI1QL38L4THHZOFK38MEUZ","A1V1JNPU0KOA3X","33Q5P9PUSP8QOKKNNN5S19YACNVCZX","","","null","","","","","","","",""
"607","","image-keyboard-response","365","381812","0.0-294.0","382M9COHEI1QL38L4THHZOFK38MEUZ","A1V1JNPU0KOA3X","33Q5P9PUSP8QOKKNNN5S19YACNVCZX","","img/set1/S4.jpg","74","4","structured_incentive","74","true","structured_incentive,random,structured_normal","1,2,2,3","",""
"null","","html-keyboard-response","366","382168","0.0-295.0","382M9COHEI1QL38L4THHZOFK38MEUZ","A1V1JNPU0KOA3X","33Q5P9PUSP8QOKKNNN5S19YACNVCZX","","<img src=""img/set1/S4.jpg"" width=""540"" height = ""360"" style=""border:16px solid orange"">","null","","","","","","","",""
"null","","html-keyboard-response","367","382170","0.0-296.0","382M9COHEI1QL38L4THHZOFK38MEUZ","A1V1JNPU0KOA3X","33Q5P9PUSP8QOKKNNN5S19YACNVCZX","","","null","","","","","","","",""
"807","","image-keyboard-response","368","382978","0.0-297.0","382M9COHEI1QL38L4THHZOFK38MEUZ","A1V1JNPU0KOA3X","33Q5P9PUSP8QOKKNNN5S19YACNVCZX","","img/set1/S1.jpg","83","1","structured_incentive","83","true","structured_incentive,random,structured_normal","1,2,2,3","",""
"null","","html-keyboard-response","369","383339","0.0-298.0","382M9COHEI1QL38L4THHZOFK38MEUZ","A1V1JNPU0KOA3X","33Q5P9PUSP8QOKKNNN5S19YACNVCZX","","<img src=""img/set1/S1.jpg"" width=""540"" height = ""360"" style=""border:16px solid orange"">","null","","","","","","","",""
"null","","html-keyboard-response","370","383341","0.0-299.0","382M9COHEI1QL38L4THHZOFK38MEUZ","A1V1JNPU0KOA3X","33Q5P9PUSP8QOKKNNN5S19YACNVCZX","","","null","","","","","","","",""
"800.4000000022352","","image-keyboard-response","371","384143","0.0-300.0","382M9COHEI1QL38L4THHZOFK38MEUZ","A1V1JNPU0KOA3X","33Q5P9PUSP8QOKKNNN5S19YACNVCZX","","img/set1/S2.jpg","68","2","structured_incentive","68","true","structured_incentive,random,structured_normal","1,2,2,3","",""
"null","","html-keyboard-response","372","384503","0.0-301.0","382M9COHEI1QL38L4THHZOFK38MEUZ","A1V1JNPU0KOA3X","33Q5P9PUSP8QOKKNNN5S19YACNVCZX","","<img src=""img/set1/S2.jpg"" width=""540"" height = ""360"" style=""border:16px solid orange"">","null","","","","","","","",""
"null","","html-keyboard-response","373","384506","0.0-302.0","382M9COHEI1QL38L4THHZOFK38MEUZ","A1V1JNPU0KOA3X","33Q5P9PUSP8QOKKNNN5S19YACNVCZX","","","null","","","","","","","",""
"932.8000000007451","","image-keyboard-response","374","385440","0.0-303.0","382M9COHEI1QL38L4THHZOFK38MEUZ","A1V1JNPU0KOA3X","33Q5P9PUSP8QOKKNNN5S19YACNVCZX","","img/set1/S4.jpg","74","4","structured_incentive","74","true","structured_incentive,random,structured_normal","1,2,2,3","",""
"null","","html-keyboard-response","375","385795","0.0-304.0","382M9COHEI1QL38L4THHZOFK38MEUZ","A1V1JNPU0KOA3X","33Q5P9PUSP8QOKKNNN5S19YACNVCZX","","<img src=""img/set1/S4.jpg"" width=""540"" height = ""360"" style=""border:16px solid orange"">","null","","","","","","","",""
"null","","html-keyboard-response","376","385797","0.0-305.0","382M9COHEI1QL38L4THHZOFK38MEUZ","A1V1JNPU0KOA3X","33Q5P9PUSP8QOKKNNN5S19YACNVCZX","","","null","","","","","","","",""
"818","","image-keyboard-response","377","386616","0.0-306.0","382M9COHEI1QL38L4THHZOFK38MEUZ","A1V1JNPU0KOA3X","33Q5P9PUSP8QOKKNNN5S19YACNVCZX","","img/set1/S1.jpg","83","1","structured_incentive","83","true","structured_incentive,random,structured_normal","1,2,2,3","",""
"null","","html-keyboard-response","378","386977","0.0-307.0","382M9COHEI1QL38L4THHZOFK38MEUZ","A1V1JNPU0KOA3X","33Q5P9PUSP8QOKKNNN5S19YACNVCZX","","<img src=""img/set1/S1.jpg"" width=""540"" height = ""360"" style=""border:16px solid orange"">","null","","","","","","","",""
"null","","html-keyboard-response","379","386979","0.0-308.0","382M9COHEI1QL38L4THHZOFK38MEUZ","A1V1JNPU0KOA3X","33Q5P9PUSP8QOKKNNN5S19YACNVCZX","","","null","","","","","","","",""
"803.0999999977648","","image-keyboard-response","380","387784","0.0-309.0","382M9COHEI1QL38L4THHZOFK38MEUZ","A1V1JNPU0KOA3X","33Q5P9PUSP8QOKKNNN5S19YACNVCZX","","img/set1/S2.jpg","68","2","structured_incentive","68","true","structured_incentive,random,structured_normal","1,2,2,3","",""
"null","","html-keyboard-response","381","388136","0.0-310.0","382M9COHEI1QL38L4THHZOFK38MEUZ","A1V1JNPU0KOA3X","33Q5P9PUSP8QOKKNNN5S19YACNVCZX","","<img src=""img/set1/S2.jpg"" width=""540"" height = ""360"" style=""border:16px solid orange"">","null","","","","","","","",""
"null","","html-keyboard-response","382","388138","0.0-311.0","382M9COHEI1QL38L4THHZOFK38MEUZ","A1V1JNPU0KOA3X","33Q5P9PUSP8QOKKNNN5S19YACNVCZX","","","null","","","","","","","",""
"942.5999999977648","","image-keyboard-response","383","389082","0.0-312.0","382M9COHEI1QL38L4THHZOFK38MEUZ","A1V1JNPU0KOA3X","33Q5P9PUSP8QOKKNNN5S19YACNVCZX","","img/set1/S4.jpg","74","4","structured_incentive","74","true","structured_incentive,random,structured_normal","1,2,2,3","",""
"null","","html-keyboard-response","384","389450","0.0-313.0","382M9COHEI1QL38L4THHZOFK38MEUZ","A1V1JNPU0KOA3X","33Q5P9PUSP8QOKKNNN5S19YACNVCZX","","<img src=""img/set1/S4.jpg"" width=""540"" height = ""360"" style=""border:16px solid orange"">","null","","","","","","","",""
"null","","html-keyboard-response","385","389453","0.0-314.0","382M9COHEI1QL38L4THHZOFK38MEUZ","A1V1JNPU0KOA3X","33Q5P9PUSP8QOKKNNN5S19YACNVCZX","","","null","","","","","","","",""
"697.1000000014901","","image-keyboard-response","386","390151","0.0-315.0","382M9COHEI1QL38L4THHZOFK38MEUZ","A1V1JNPU0KOA3X","33Q5P9PUSP8QOKKNNN5S19YACNVCZX","","img/set1/S3.jpg","72","3","structured_incentive","72","true","structured_incentive,random,structured_normal","1,2,2,3","",""
"null","","html-keyboard-response","387","390503","0.0-316.0","382M9COHEI1QL38L4THHZOFK38MEUZ","A1V1JNPU0KOA3X","33Q5P9PUSP8QOKKNNN5S19YACNVCZX","","<img src=""img/set1/S3.jpg"" width=""540"" height = ""360"" style=""border:16px solid Violet"">","null","","","","","","","",""
"null","","html-keyboard-response","388","390506","0.0-317.0","382M9COHEI1QL38L4THHZOFK38MEUZ","A1V1JNPU0KOA3X","33Q5P9PUSP8QOKKNNN5S19YACNVCZX","","","null","","","","","","","",""
"818.8999999985099","","image-keyboard-response","389","391327","0.0-318.0","382M9COHEI1QL38L4THHZOFK38MEUZ","A1V1JNPU0KOA3X","33Q5P9PUSP8QOKKNNN5S19YACNVCZX","","img/set1/S4.jpg","74","4","structured_incentive","74","true","structured_incentive,random,structured_normal","1,2,2,3","",""
"null","","html-keyboard-response","390","391692","0.0-319.0","382M9COHEI1QL38L4THHZOFK38MEUZ","A1V1JNPU0KOA3X","33Q5P9PUSP8QOKKNNN5S19YACNVCZX","","<img src=""img/set1/S4.jpg"" width=""540"" height = ""360"" style=""border:16px solid orange"">","null","","","","","","","",""
"null","","html-keyboard-response","391","391695","0.0-320.0","382M9COHEI1QL38L4THHZOFK38MEUZ","A1V1JNPU0KOA3X","33Q5P9PUSP8QOKKNNN5S19YACNVCZX","","","null","","","","","","","",""
"589.8999999985099","","image-keyboard-response","392","392286","0.0-321.0","382M9COHEI1QL38L4THHZOFK38MEUZ","A1V1JNPU0KOA3X","33Q5P9PUSP8QOKKNNN5S19YACNVCZX","","img/set1/S4.jpg","74","4","structured_incentive","74","true","structured_incentive,random,structured_normal","1,2,2,3","",""
"null","","html-keyboard-response","393","392653","0.0-322.0","382M9COHEI1QL38L4THHZOFK38MEUZ","A1V1JNPU0KOA3X","33Q5P9PUSP8QOKKNNN5S19YACNVCZX","","<img src=""img/set1/S4.jpg"" width=""540"" height = ""360"" style=""border:16px solid orange"">","null","","","","","","","",""
"null","","html-keyboard-response","394","392656","0.0-323.0","382M9COHEI1QL38L4THHZOFK38MEUZ","A1V1JNPU0KOA3X","33Q5P9PUSP8QOKKNNN5S19YACNVCZX","","","null","","","","","","","",""
"545.3999999985099","","image-keyboard-response","395","393204","0.0-324.0","382M9COHEI1QL38L4THHZOFK38MEUZ","A1V1JNPU0KOA3X","33Q5P9PUSP8QOKKNNN5S19YACNVCZX","","img/set1/S4.jpg","74","4","structured_incentive","74","true","structured_incentive,random,structured_normal","1,2,2,3","",""
"null","","html-keyboard-response","396","393572","0.0-325.0","382M9COHEI1QL38L4THHZOFK38MEUZ","A1V1JNPU0KOA3X","33Q5P9PUSP8QOKKNNN5S19YACNVCZX","","<img src=""img/set1/S4.jpg"" width=""540"" height = ""360"" style=""border:16px solid orange"">","null","","","","","","","",""
"null","","html-keyboard-response","397","393574","0.0-326.0","382M9COHEI1QL38L4THHZOFK38MEUZ","A1V1JNPU0KOA3X","33Q5P9PUSP8QOKKNNN5S19YACNVCZX","","","null","","","","","","","",""
"476.79999999701977","","image-keyboard-response","398","394052","0.0-327.0","382M9COHEI1QL38L4THHZOFK38MEUZ","A1V1JNPU0KOA3X","33Q5P9PUSP8QOKKNNN5S19YACNVCZX","","img/set1/S4.jpg","74","4","structured_incentive","74","true","structured_incentive,random,structured_normal","1,2,2,3","",""
"null","","html-keyboard-response","399","394405","0.0-328.0","382M9COHEI1QL38L4THHZOFK38MEUZ","A1V1JNPU0KOA3X","33Q5P9PUSP8QOKKNNN5S19YACNVCZX","","<img src=""img/set1/S4.jpg"" width=""540"" height = ""360"" style=""border:16px solid orange"">","null","","","","","","","",""
"null","","html-keyboard-response","400","394407","0.0-329.0","382M9COHEI1QL38L4THHZOFK38MEUZ","A1V1JNPU0KOA3X","33Q5P9PUSP8QOKKNNN5S19YACNVCZX","","","null","","","","","","","",""
"515.3000000007451","","image-keyboard-response","401","394924","0.0-330.0","382M9COHEI1QL38L4THHZOFK38MEUZ","A1V1JNPU0KOA3X","33Q5P9PUSP8QOKKNNN5S19YACNVCZX","","img/set1/S4.jpg","74","4","structured_incentive","74","true","structured_incentive,random,structured_normal","1,2,2,3","",""
"null","","html-keyboard-response","402","395287","0.0-331.0","382M9COHEI1QL38L4THHZOFK38MEUZ","A1V1JNPU0KOA3X","33Q5P9PUSP8QOKKNNN5S19YACNVCZX","","<img src=""img/set1/S4.jpg"" width=""540"" height = ""360"" style=""border:16px solid orange"">","null","","","","","","","",""
"null","","html-keyboard-response","403","395290","0.0-332.0","382M9COHEI1QL38L4THHZOFK38MEUZ","A1V1JNPU0KOA3X","33Q5P9PUSP8QOKKNNN5S19YACNVCZX","","","null","","","","","","","",""
"941.3000000007451","","image-keyboard-response","404","396233","0.0-333.0","382M9COHEI1QL38L4THHZOFK38MEUZ","A1V1JNPU0KOA3X","33Q5P9PUSP8QOKKNNN5S19YACNVCZX","","img/set1/S2.jpg","68","2","structured_incentive","68","true","structured_incentive,random,structured_normal","1,2,2,3","",""
"null","","html-keyboard-response","405","396588","0.0-334.0","382M9COHEI1QL38L4THHZOFK38MEUZ","A1V1JNPU0KOA3X","33Q5P9PUSP8QOKKNNN5S19YACNVCZX","","<img src=""img/set1/S2.jpg"" width=""540"" height = ""360"" style=""border:16px solid orange"">","null","","","","","","","",""
"null","","html-keyboard-response","406","396590","0.0-335.0","382M9COHEI1QL38L4THHZOFK38MEUZ","A1V1JNPU0KOA3X","33Q5P9PUSP8QOKKNNN5S19YACNVCZX","","","null","","","","","","","",""
"990.7999999970198","","image-keyboard-response","407","397582","0.0-336.0","382M9COHEI1QL38L4THHZOFK38MEUZ","A1V1JNPU0KOA3X","33Q5P9PUSP8QOKKNNN5S19YACNVCZX","","img/set1/S3.jpg","72","3","structured_incentive","72","true","structured_incentive,random,structured_normal","1,2,2,3","",""
"null","","html-keyboard-response","408","397943","0.0-337.0","382M9COHEI1QL38L4THHZOFK38MEUZ","A1V1JNPU0KOA3X","33Q5P9PUSP8QOKKNNN5S19YACNVCZX","","<img src=""img/set1/S3.jpg"" width=""540"" height = ""360"" style=""border:16px solid Violet"">","null","","","","","","","",""
"null","","html-keyboard-response","409","397945","0.0-338.0","382M9COHEI1QL38L4THHZOFK38MEUZ","A1V1JNPU0KOA3X","33Q5P9PUSP8QOKKNNN5S19YACNVCZX","","","null","","","","","","","",""
