"rt","url","trial_type","trial_index","time_elapsed","internal_node_id","assignmentID","mturkID","hitID","view_history","stimulus","key_press","state","test_part","correct_response","correct","order_block","order_chunk","bonus","responses"
"308782","consent.html","external-html","0","309396","0.0-0.0","3BDCF01OGYGL8I2IVG1AF4BH8TYLYR","A222GZB608T1B8","33Q5P9PUSP8QOKKNNN5S19YACNVCZX","","","","","","","","","","",""
"510004.7999999821","","instructions","1","819402","0.0-1.0","3BDCF01OGYGL8I2IVG1AF4BH8TYLYR","A222GZB608T1B8","33Q5P9PUSP8QOKKNNN5S19YACNVCZX","[{""page_index"":0,""viewing_time"":9561.799999982119},{""page_index"":1,""viewing_time"":157182},{""page_index"":2,""viewing_time"":31240},{""page_index"":3,""viewing_time"":77901.10000002384},{""page_index"":4,""viewing_time"":30930},{""page_index"":5,""viewing_time"":41528.79999998212},{""page_index"":6,""viewing_time"":25738.80000001192},{""page_index"":7,""viewing_time"":135920.09999999404}]","","","","","","","","","",""
"null","","image-keyboard-response","2","821915","0.0-2.0-0.0","3BDCF01OGYGL8I2IVG1AF4BH8TYLYR","A222GZB608T1B8","33Q5P9PUSP8QOKKNNN5S19YACNVCZX","","img/practice/S3.jpg","null","3","practice","72","false","","","",""
"null","","html-keyboard-response","3","822237","0.0-2.0-1.0","3BDCF01OGYGL8I2IVG1AF4BH8TYLYR","A222GZB608T1B8","33Q5P9PUSP8QOKKNNN5S19YACNVCZX","","<img src=""img/practice/S3.jpg"" width=""540"" height = ""360"">","null","","","","","","","",""
"null","","html-keyboard-response","4","822244","0.0-2.0-2.0","3BDCF01OGYGL8I2IVG1AF4BH8TYLYR","A222GZB608T1B8","33Q5P9PUSP8QOKKNNN5S19YACNVCZX","","","null","","","","","","","",""
"122.69999998807907","","image-keyboard-response","5","822369","0.0-2.0-0.1","3BDCF01OGYGL8I2IVG1AF4BH8TYLYR","A222GZB608T1B8","33Q5P9PUSP8QOKKNNN5S19YACNVCZX","","img/practice/S1.jpg","72","1","practice","83","false","","","",""
"null","","html-keyboard-response","6","822678","0.0-2.0-1.1","3BDCF01OGYGL8I2IVG1AF4BH8TYLYR","A222GZB608T1B8","33Q5P9PUSP8QOKKNNN5S19YACNVCZX","","<img src=""img/practice/S1.jpg"" width=""540"" height = ""360"">","null","","","","","","","",""
"null","","html-keyboard-response","7","822682","0.0-2.0-2.1","3BDCF01OGYGL8I2IVG1AF4BH8TYLYR","A222GZB608T1B8","33Q5P9PUSP8QOKKNNN5S19YACNVCZX","","","null","","","","","","","",""
"1386.5","","image-keyboard-response","8","824070","0.0-2.0-0.2","3BDCF01OGYGL8I2IVG1AF4BH8TYLYR","A222GZB608T1B8","33Q5P9PUSP8QOKKNNN5S19YACNVCZX","","img/practice/S2.jpg","83","2","practice","68","false","","","",""
"null","","html-keyboard-response","9","824387","0.0-2.0-1.2","3BDCF01OGYGL8I2IVG1AF4BH8TYLYR","A222GZB608T1B8","33Q5P9PUSP8QOKKNNN5S19YACNVCZX","","<img src=""img/practice/S2.jpg"" width=""540"" height = ""360"">","null","","","","","","","",""
"null","","html-keyboard-response","10","824390","0.0-2.0-2.2","3BDCF01OGYGL8I2IVG1AF4BH8TYLYR","A222GZB608T1B8","33Q5P9PUSP8QOKKNNN5S19YACNVCZX","","","null","","","","","","","",""
"null","","image-keyboard-response","11","826892","0.0-2.0-0.3","3BDCF01OGYGL8I2IVG1AF4BH8TYLYR","A222GZB608T1B8","33Q5P9PUSP8QOKKNNN5S19YACNVCZX","","img/practice/S4.jpg","null","4","practice","74","false","","","",""
"null","","html-keyboard-response","12","827208","0.0-2.0-1.3","3BDCF01OGYGL8I2IVG1AF4BH8TYLYR","A222GZB608T1B8","33Q5P9PUSP8QOKKNNN5S19YACNVCZX","","<img src=""img/practice/S4.jpg"" width=""540"" height = ""360"">","null","","","","","","","",""
"null","","html-keyboard-response","13","827214","0.0-2.0-2.3","3BDCF01OGYGL8I2IVG1AF4BH8TYLYR","A222GZB608T1B8","33Q5P9PUSP8QOKKNNN5S19YACNVCZX","","","null","","","","","","","",""
"2286.2999999821186","","image-keyboard-response","14","829504","0.0-2.0-0.4","3BDCF01OGYGL8I2IVG1AF4BH8TYLYR","A222GZB608T1B8","33Q5P9PUSP8QOKKNNN5S19YACNVCZX","","img/practice/S1.jpg","68","1","practice","83","false","","","",""
"null","","html-keyboard-response","15","829810","0.0-2.0-1.4","3BDCF01OGYGL8I2IVG1AF4BH8TYLYR","A222GZB608T1B8","33Q5P9PUSP8QOKKNNN5S19YACNVCZX","","<img src=""img/practice/S1.jpg"" width=""540"" height = ""360"">","null","","","","","","","",""
"null","","html-keyboard-response","16","829812","0.0-2.0-2.4","3BDCF01OGYGL8I2IVG1AF4BH8TYLYR","A222GZB608T1B8","33Q5P9PUSP8QOKKNNN5S19YACNVCZX","","","null","","","","","","","",""
"1714.8999999761581","","image-keyboard-response","17","831528","0.0-2.0-0.5","3BDCF01OGYGL8I2IVG1AF4BH8TYLYR","A222GZB608T1B8","33Q5P9PUSP8QOKKNNN5S19YACNVCZX","","img/practice/S2.jpg","83","2","practice","68","false","","","",""
"null","","html-keyboard-response","18","831833","0.0-2.0-1.5","3BDCF01OGYGL8I2IVG1AF4BH8TYLYR","A222GZB608T1B8","33Q5P9PUSP8QOKKNNN5S19YACNVCZX","","<img src=""img/practice/S2.jpg"" width=""540"" height = ""360"">","null","","","","","","","",""
"null","","html-keyboard-response","19","831836","0.0-2.0-2.5","3BDCF01OGYGL8I2IVG1AF4BH8TYLYR","A222GZB608T1B8","33Q5P9PUSP8QOKKNNN5S19YACNVCZX","","","null","","","","","","","",""
"1583.5","","image-keyboard-response","20","833420","0.0-2.0-0.6","3BDCF01OGYGL8I2IVG1AF4BH8TYLYR","A222GZB608T1B8","33Q5P9PUSP8QOKKNNN5S19YACNVCZX","","img/practice/S4.jpg","74","4","practice","74","true","","","",""
"null","","html-keyboard-response","21","833732","0.0-2.0-1.6","3BDCF01OGYGL8I2IVG1AF4BH8TYLYR","A222GZB608T1B8","33Q5P9PUSP8QOKKNNN5S19YACNVCZX","","<img src=""img/practice/S4.jpg"" width=""540"" height = ""360"" style=""border:16px solid orange"">","null","","","","","","","",""
"null","","html-keyboard-response","22","833734","0.0-2.0-2.6","3BDCF01OGYGL8I2IVG1AF4BH8TYLYR","A222GZB608T1B8","33Q5P9PUSP8QOKKNNN5S19YACNVCZX","","","null","","","","","","","",""
"1595.0999999940395","","image-keyboard-response","23","835330","0.0-2.0-0.7","3BDCF01OGYGL8I2IVG1AF4BH8TYLYR","A222GZB608T1B8","33Q5P9PUSP8QOKKNNN5S19YACNVCZX","","img/practice/S3.jpg","74","3","practice","72","false","","","",""
"null","","html-keyboard-response","24","835641","0.0-2.0-1.7","3BDCF01OGYGL8I2IVG1AF4BH8TYLYR","A222GZB608T1B8","33Q5P9PUSP8QOKKNNN5S19YACNVCZX","","<img src=""img/practice/S3.jpg"" width=""540"" height = ""360"">","null","","","","","","","",""
"null","","html-keyboard-response","25","835644","0.0-2.0-2.7","3BDCF01OGYGL8I2IVG1AF4BH8TYLYR","A222GZB608T1B8","33Q5P9PUSP8QOKKNNN5S19YACNVCZX","","","null","","","","","","","",""
"null","","image-keyboard-response","26","838155","0.0-2.0-0.8","3BDCF01OGYGL8I2IVG1AF4BH8TYLYR","A222GZB608T1B8","33Q5P9PUSP8QOKKNNN5S19YACNVCZX","","img/practice/S3.jpg","null","3","practice","72","false","","","",""
"null","","html-keyboard-response","27","838457","0.0-2.0-1.8","3BDCF01OGYGL8I2IVG1AF4BH8TYLYR","A222GZB608T1B8","33Q5P9PUSP8QOKKNNN5S19YACNVCZX","","<img src=""img/practice/S3.jpg"" width=""540"" height = ""360"">","null","","","","","","","",""
"null","","html-keyboard-response","28","838463","0.0-2.0-2.8","3BDCF01OGYGL8I2IVG1AF4BH8TYLYR","A222GZB608T1B8","33Q5P9PUSP8QOKKNNN5S19YACNVCZX","","","null","","","","","","","",""
"1288.7999999821186","","image-keyboard-response","29","839753","0.0-2.0-0.9","3BDCF01OGYGL8I2IVG1AF4BH8TYLYR","A222GZB608T1B8","33Q5P9PUSP8QOKKNNN5S19YACNVCZX","","img/practice/S4.jpg","83","4","practice","74","false","","","",""
"null","","html-keyboard-response","30","840063","0.0-2.0-1.9","3BDCF01OGYGL8I2IVG1AF4BH8TYLYR","A222GZB608T1B8","33Q5P9PUSP8QOKKNNN5S19YACNVCZX","","<img src=""img/practice/S4.jpg"" width=""540"" height = ""360"">","null","","","","","","","",""
"null","","html-keyboard-response","31","840066","0.0-2.0-2.9","3BDCF01OGYGL8I2IVG1AF4BH8TYLYR","A222GZB608T1B8","33Q5P9PUSP8QOKKNNN5S19YACNVCZX","","","null","","","","","","","",""
"1192.5999999940395","","image-keyboard-response","32","841260","0.0-2.0-0.10","3BDCF01OGYGL8I2IVG1AF4BH8TYLYR","A222GZB608T1B8","33Q5P9PUSP8QOKKNNN5S19YACNVCZX","","img/practice/S1.jpg","68","1","practice","83","false","","","",""
"null","","html-keyboard-response","33","841563","0.0-2.0-1.10","3BDCF01OGYGL8I2IVG1AF4BH8TYLYR","A222GZB608T1B8","33Q5P9PUSP8QOKKNNN5S19YACNVCZX","","<img src=""img/practice/S1.jpg"" width=""540"" height = ""360"">","null","","","","","","","",""
"null","","html-keyboard-response","34","841566","0.0-2.0-2.10","3BDCF01OGYGL8I2IVG1AF4BH8TYLYR","A222GZB608T1B8","33Q5P9PUSP8QOKKNNN5S19YACNVCZX","","","null","","","","","","","",""
"1412.5999999940395","","image-keyboard-response","35","842980","0.0-2.0-0.11","3BDCF01OGYGL8I2IVG1AF4BH8TYLYR","A222GZB608T1B8","33Q5P9PUSP8QOKKNNN5S19YACNVCZX","","img/practice/S2.jpg","72","2","practice","68","false","","","",""
"null","","html-keyboard-response","36","843289","0.0-2.0-1.11","3BDCF01OGYGL8I2IVG1AF4BH8TYLYR","A222GZB608T1B8","33Q5P9PUSP8QOKKNNN5S19YACNVCZX","","<img src=""img/practice/S2.jpg"" width=""540"" height = ""360"">","null","","","","","","","",""
"null","","html-keyboard-response","37","843292","0.0-2.0-2.11","3BDCF01OGYGL8I2IVG1AF4BH8TYLYR","A222GZB608T1B8","33Q5P9PUSP8QOKKNNN5S19YACNVCZX","","","null","","","","","","","",""
"1366.2999999821186","","image-keyboard-response","38","844659","0.0-2.0-0.12","3BDCF01OGYGL8I2IVG1AF4BH8TYLYR","A222GZB608T1B8","33Q5P9PUSP8QOKKNNN5S19YACNVCZX","","img/practice/S1.jpg","83","1","practice","83","true","","","",""
"null","","html-keyboard-response","39","844976","0.0-2.0-1.12","3BDCF01OGYGL8I2IVG1AF4BH8TYLYR","A222GZB608T1B8","33Q5P9PUSP8QOKKNNN5S19YACNVCZX","","<img src=""img/practice/S1.jpg"" width=""540"" height = ""360"" style=""border:16px solid orange"">","null","","","","","","","",""
"null","","html-keyboard-response","40","844979","0.0-2.0-2.12","3BDCF01OGYGL8I2IVG1AF4BH8TYLYR","A222GZB608T1B8","33Q5P9PUSP8QOKKNNN5S19YACNVCZX","","","null","","","","","","","",""
"1570","","image-keyboard-response","41","846549","0.0-2.0-0.13","3BDCF01OGYGL8I2IVG1AF4BH8TYLYR","A222GZB608T1B8","33Q5P9PUSP8QOKKNNN5S19YACNVCZX","","img/practice/S2.jpg","74","2","practice","68","false","","","",""
"null","","html-keyboard-response","42","846853","0.0-2.0-1.13","3BDCF01OGYGL8I2IVG1AF4BH8TYLYR","A222GZB608T1B8","33Q5P9PUSP8QOKKNNN5S19YACNVCZX","","<img src=""img/practice/S2.jpg"" width=""540"" height = ""360"">","null","","","","","","","",""
"null","","html-keyboard-response","43","846855","0.0-2.0-2.13","3BDCF01OGYGL8I2IVG1AF4BH8TYLYR","A222GZB608T1B8","33Q5P9PUSP8QOKKNNN5S19YACNVCZX","","","null","","","","","","","",""
"1393.4000000059605","","image-keyboard-response","44","848249","0.0-2.0-0.14","3BDCF01OGYGL8I2IVG1AF4BH8TYLYR","A222GZB608T1B8","33Q5P9PUSP8QOKKNNN5S19YACNVCZX","","img/practice/S3.jpg","68","3","practice","72","false","","","",""
"null","","html-keyboard-response","45","848559","0.0-2.0-1.14","3BDCF01OGYGL8I2IVG1AF4BH8TYLYR","A222GZB608T1B8","33Q5P9PUSP8QOKKNNN5S19YACNVCZX","","<img src=""img/practice/S3.jpg"" width=""540"" height = ""360"">","null","","","","","","","",""
"null","","html-keyboard-response","46","848563","0.0-2.0-2.14","3BDCF01OGYGL8I2IVG1AF4BH8TYLYR","A222GZB608T1B8","33Q5P9PUSP8QOKKNNN5S19YACNVCZX","","","null","","","","","","","",""
"1432.6000000238419","","image-keyboard-response","47","849996","0.0-2.0-0.15","3BDCF01OGYGL8I2IVG1AF4BH8TYLYR","A222GZB608T1B8","33Q5P9PUSP8QOKKNNN5S19YACNVCZX","","img/practice/S4.jpg","83","4","practice","74","false","","","",""
"null","","html-keyboard-response","48","850300","0.0-2.0-1.15","3BDCF01OGYGL8I2IVG1AF4BH8TYLYR","A222GZB608T1B8","33Q5P9PUSP8QOKKNNN5S19YACNVCZX","","<img src=""img/practice/S4.jpg"" width=""540"" height = ""360"">","null","","","","","","","",""
"null","","html-keyboard-response","49","850304","0.0-2.0-2.15","3BDCF01OGYGL8I2IVG1AF4BH8TYLYR","A222GZB608T1B8","33Q5P9PUSP8QOKKNNN5S19YACNVCZX","","","null","","","","","","","",""
"1264.5999999940395","","image-keyboard-response","50","851569","0.0-2.0-0.16","3BDCF01OGYGL8I2IVG1AF4BH8TYLYR","A222GZB608T1B8","33Q5P9PUSP8QOKKNNN5S19YACNVCZX","","img/practice/S2.jpg","74","2","practice","68","false","","","",""
"null","","html-keyboard-response","51","851875","0.0-2.0-1.16","3BDCF01OGYGL8I2IVG1AF4BH8TYLYR","A222GZB608T1B8","33Q5P9PUSP8QOKKNNN5S19YACNVCZX","","<img src=""img/practice/S2.jpg"" width=""540"" height = ""360"">","null","","","","","","","",""
"null","","html-keyboard-response","52","851877","0.0-2.0-2.16","3BDCF01OGYGL8I2IVG1AF4BH8TYLYR","A222GZB608T1B8","33Q5P9PUSP8QOKKNNN5S19YACNVCZX","","","null","","","","","","","",""
"1301.4000000059605","","image-keyboard-response","53","853179","0.0-2.0-0.17","3BDCF01OGYGL8I2IVG1AF4BH8TYLYR","A222GZB608T1B8","33Q5P9PUSP8QOKKNNN5S19YACNVCZX","","img/practice/S3.jpg","68","3","practice","72","false","","","",""
"null","","html-keyboard-response","54","853491","0.0-2.0-1.17","3BDCF01OGYGL8I2IVG1AF4BH8TYLYR","A222GZB608T1B8","33Q5P9PUSP8QOKKNNN5S19YACNVCZX","","<img src=""img/practice/S3.jpg"" width=""540"" height = ""360"">","null","","","","","","","",""
"null","","html-keyboard-response","55","853493","0.0-2.0-2.17","3BDCF01OGYGL8I2IVG1AF4BH8TYLYR","A222GZB608T1B8","33Q5P9PUSP8QOKKNNN5S19YACNVCZX","","","null","","","","","","","",""
"1434.5999999940395","","image-keyboard-response","56","854929","0.0-2.0-0.18","3BDCF01OGYGL8I2IVG1AF4BH8TYLYR","A222GZB608T1B8","33Q5P9PUSP8QOKKNNN5S19YACNVCZX","","img/practice/S4.jpg","83","4","practice","74","false","","","",""
"null","","html-keyboard-response","57","855236","0.0-2.0-1.18","3BDCF01OGYGL8I2IVG1AF4BH8TYLYR","A222GZB608T1B8","33Q5P9PUSP8QOKKNNN5S19YACNVCZX","","<img src=""img/practice/S4.jpg"" width=""540"" height = ""360"">","null","","","","","","","",""
"null","","html-keyboard-response","58","855239","0.0-2.0-2.18","3BDCF01OGYGL8I2IVG1AF4BH8TYLYR","A222GZB608T1B8","33Q5P9PUSP8QOKKNNN5S19YACNVCZX","","","null","","","","","","","",""
"1600.5999999940395","","image-keyboard-response","59","856840","0.0-2.0-0.19","3BDCF01OGYGL8I2IVG1AF4BH8TYLYR","A222GZB608T1B8","33Q5P9PUSP8QOKKNNN5S19YACNVCZX","","img/practice/S1.jpg","74","1","practice","83","false","","","",""
"null","","html-keyboard-response","60","857148","0.0-2.0-1.19","3BDCF01OGYGL8I2IVG1AF4BH8TYLYR","A222GZB608T1B8","33Q5P9PUSP8QOKKNNN5S19YACNVCZX","","<img src=""img/practice/S1.jpg"" width=""540"" height = ""360"">","null","","","","","","","",""
"null","","html-keyboard-response","61","857151","0.0-2.0-2.19","3BDCF01OGYGL8I2IVG1AF4BH8TYLYR","A222GZB608T1B8","33Q5P9PUSP8QOKKNNN5S19YACNVCZX","","","null","","","","","","","",""
"null","","image-keyboard-response","62","859654","0.0-2.0-0.20","3BDCF01OGYGL8I2IVG1AF4BH8TYLYR","A222GZB608T1B8","33Q5P9PUSP8QOKKNNN5S19YACNVCZX","","img/practice/S4.jpg","null","4","practice","74","false","","","",""
"null","","html-keyboard-response","63","859962","0.0-2.0-1.20","3BDCF01OGYGL8I2IVG1AF4BH8TYLYR","A222GZB608T1B8","33Q5P9PUSP8QOKKNNN5S19YACNVCZX","","<img src=""img/practice/S4.jpg"" width=""540"" height = ""360"">","null","","","","","","","",""
"null","","html-keyboard-response","64","859968","0.0-2.0-2.20","3BDCF01OGYGL8I2IVG1AF4BH8TYLYR","A222GZB608T1B8","33Q5P9PUSP8QOKKNNN5S19YACNVCZX","","","null","","","","","","","",""
"165","","image-keyboard-response","65","860134","0.0-2.0-0.21","3BDCF01OGYGL8I2IVG1AF4BH8TYLYR","A222GZB608T1B8","33Q5P9PUSP8QOKKNNN5S19YACNVCZX","","img/practice/S3.jpg","68","3","practice","72","false","","","",""
"null","","html-keyboard-response","66","860444","0.0-2.0-1.21","3BDCF01OGYGL8I2IVG1AF4BH8TYLYR","A222GZB608T1B8","33Q5P9PUSP8QOKKNNN5S19YACNVCZX","","<img src=""img/practice/S3.jpg"" width=""540"" height = ""360"">","null","","","","","","","",""
"null","","html-keyboard-response","67","860447","0.0-2.0-2.21","3BDCF01OGYGL8I2IVG1AF4BH8TYLYR","A222GZB608T1B8","33Q5P9PUSP8QOKKNNN5S19YACNVCZX","","","null","","","","","","","",""
"1482","","image-keyboard-response","68","861930","0.0-2.0-0.22","3BDCF01OGYGL8I2IVG1AF4BH8TYLYR","A222GZB608T1B8","33Q5P9PUSP8QOKKNNN5S19YACNVCZX","","img/practice/S2.jpg","83","2","practice","68","false","","","",""
"null","","html-keyboard-response","69","862245","0.0-2.0-1.22","3BDCF01OGYGL8I2IVG1AF4BH8TYLYR","A222GZB608T1B8","33Q5P9PUSP8QOKKNNN5S19YACNVCZX","","<img src=""img/practice/S2.jpg"" width=""540"" height = ""360"">","null","","","","","","","",""
"null","","html-keyboard-response","70","862250","0.0-2.0-2.22","3BDCF01OGYGL8I2IVG1AF4BH8TYLYR","A222GZB608T1B8","33Q5P9PUSP8QOKKNNN5S19YACNVCZX","","","null","","","","","","","",""
"1652.9000000059605","","image-keyboard-response","71","863904","0.0-2.0-0.23","3BDCF01OGYGL8I2IVG1AF4BH8TYLYR","A222GZB608T1B8","33Q5P9PUSP8QOKKNNN5S19YACNVCZX","","img/practice/S1.jpg","72","1","practice","83","false","","","",""
"null","","html-keyboard-response","72","864211","0.0-2.0-1.23","3BDCF01OGYGL8I2IVG1AF4BH8TYLYR","A222GZB608T1B8","33Q5P9PUSP8QOKKNNN5S19YACNVCZX","","<img src=""img/practice/S1.jpg"" width=""540"" height = ""360"">","null","","","","","","","",""
"null","","html-keyboard-response","73","864213","0.0-2.0-2.23","3BDCF01OGYGL8I2IVG1AF4BH8TYLYR","A222GZB608T1B8","33Q5P9PUSP8QOKKNNN5S19YACNVCZX","","","null","","","","","","","",""
"11429.199999988079","","instructions","74","875643","0.0-3.0","3BDCF01OGYGL8I2IVG1AF4BH8TYLYR","A222GZB608T1B8","33Q5P9PUSP8QOKKNNN5S19YACNVCZX","[{""page_index"":0,""viewing_time"":11428.90000000596}]","","","","","","","","","",""
"85916.60000002384","","instructions","75","961560","0.0-4.0","3BDCF01OGYGL8I2IVG1AF4BH8TYLYR","A222GZB608T1B8","33Q5P9PUSP8QOKKNNN5S19YACNVCZX","[{""page_index"":0,""viewing_time"":85916.30000001192}]","","","","","","","","","",""
"13088.90000000596","","instructions","76","974649","0.0-5.0","3BDCF01OGYGL8I2IVG1AF4BH8TYLYR","A222GZB608T1B8","33Q5P9PUSP8QOKKNNN5S19YACNVCZX","[{""page_index"":0,""viewing_time"":13088.5}]","","","","","","","","","",""
"null","","image-keyboard-response","77","977163","0.0-6.0","3BDCF01OGYGL8I2IVG1AF4BH8TYLYR","A222GZB608T1B8","33Q5P9PUSP8QOKKNNN5S19YACNVCZX","","img/set1/S4.jpg","null","4","random","74","false","random,structured_normal,structured_incentive","1,2,2,3","",""
"null","","html-keyboard-response","78","977527","0.0-7.0","3BDCF01OGYGL8I2IVG1AF4BH8TYLYR","A222GZB608T1B8","33Q5P9PUSP8QOKKNNN5S19YACNVCZX","","<img src=""img/set1/S4.jpg"" width=""540"" height = ""360"">","null","","","","","","","",""
"null","","html-keyboard-response","79","977529","0.0-8.0","3BDCF01OGYGL8I2IVG1AF4BH8TYLYR","A222GZB608T1B8","33Q5P9PUSP8QOKKNNN5S19YACNVCZX","","","null","","","","","","","",""
"18.400000005960464","","image-keyboard-response","80","977549","0.0-9.0","3BDCF01OGYGL8I2IVG1AF4BH8TYLYR","A222GZB608T1B8","33Q5P9PUSP8QOKKNNN5S19YACNVCZX","","img/set1/S3.jpg","68","3","random","72","false","random,structured_normal,structured_incentive","1,2,2,3","",""
"null","","html-keyboard-response","81","977910","0.0-10.0","3BDCF01OGYGL8I2IVG1AF4BH8TYLYR","A222GZB608T1B8","33Q5P9PUSP8QOKKNNN5S19YACNVCZX","","<img src=""img/set1/S3.jpg"" width=""540"" height = ""360"">","null","","","","","","","",""
"null","","html-keyboard-response","82","977912","0.0-11.0","3BDCF01OGYGL8I2IVG1AF4BH8TYLYR","A222GZB608T1B8","33Q5P9PUSP8QOKKNNN5S19YACNVCZX","","","null","","","","","","","",""
"1069.199999988079","","image-keyboard-response","83","978983","0.0-12.0","3BDCF01OGYGL8I2IVG1AF4BH8TYLYR","A222GZB608T1B8","33Q5P9PUSP8QOKKNNN5S19YACNVCZX","","img/set1/S1.jpg","74","1","random","83","false","random,structured_normal,structured_incentive","1,2,2,3","",""
"null","","html-keyboard-response","84","979340","0.0-13.0","3BDCF01OGYGL8I2IVG1AF4BH8TYLYR","A222GZB608T1B8","33Q5P9PUSP8QOKKNNN5S19YACNVCZX","","<img src=""img/set1/S1.jpg"" width=""540"" height = ""360"">","null","","","","","","","",""
"null","","html-keyboard-response","85","979343","0.0-14.0","3BDCF01OGYGL8I2IVG1AF4BH8TYLYR","A222GZB608T1B8","33Q5P9PUSP8QOKKNNN5S19YACNVCZX","","","null","","","","","","","",""
"674.3000000119209","","image-keyboard-response","86","980019","0.0-15.0","3BDCF01OGYGL8I2IVG1AF4BH8TYLYR","A222GZB608T1B8","33Q5P9PUSP8QOKKNNN5S19YACNVCZX","","img/set1/S2.jpg","83","2","random","68","false","random,structured_normal,structured_incentive","1,2,2,3","",""
"null","","html-keyboard-response","87","980382","0.0-16.0","3BDCF01OGYGL8I2IVG1AF4BH8TYLYR","A222GZB608T1B8","33Q5P9PUSP8QOKKNNN5S19YACNVCZX","","<img src=""img/set1/S2.jpg"" width=""540"" height = ""360"">","null","","","","","","","",""
"null","","html-keyboard-response","88","980384","0.0-17.0","3BDCF01OGYGL8I2IVG1AF4BH8TYLYR","A222GZB608T1B8","33Q5P9PUSP8QOKKNNN5S19YACNVCZX","","","null","","","","","","","",""
"365","","image-keyboard-response","89","980751","0.0-18.0","3BDCF01OGYGL8I2IVG1AF4BH8TYLYR","A222GZB608T1B8","33Q5P9PUSP8QOKKNNN5S19YACNVCZX","","img/set1/S1.jpg","72","1","random","83","false","random,structured_normal,structured_incentive","1,2,2,3","",""
"null","","html-keyboard-response","90","981106","0.0-19.0","3BDCF01OGYGL8I2IVG1AF4BH8TYLYR","A222GZB608T1B8","33Q5P9PUSP8QOKKNNN5S19YACNVCZX","","<img src=""img/set1/S1.jpg"" width=""540"" height = ""360"">","null","","","","","","","",""
"null","","html-keyboard-response","91","981110","0.0-20.0","3BDCF01OGYGL8I2IVG1AF4BH8TYLYR","A222GZB608T1B8","33Q5P9PUSP8QOKKNNN5S19YACNVCZX","","","null","","","","","","","",""
"437.89999997615814","","image-keyboard-response","92","981548","0.0-21.0","3BDCF01OGYGL8I2IVG1AF4BH8TYLYR","A222GZB608T1B8","33Q5P9PUSP8QOKKNNN5S19YACNVCZX","","img/set1/S4.jpg","83","4","random","74","false","random,structured_normal,structured_incentive","1,2,2,3","",""
"null","","html-keyboard-response","93","981906","0.0-22.0","3BDCF01OGYGL8I2IVG1AF4BH8TYLYR","A222GZB608T1B8","33Q5P9PUSP8QOKKNNN5S19YACNVCZX","","<img src=""img/set1/S4.jpg"" width=""540"" height = ""360"">","null","","","","","","","",""
"null","","html-keyboard-response","94","981908","0.0-23.0","3BDCF01OGYGL8I2IVG1AF4BH8TYLYR","A222GZB608T1B8","33Q5P9PUSP8QOKKNNN5S19YACNVCZX","","","null","","","","","","","",""
"404.90000000596046","","image-keyboard-response","95","982314","0.0-24.0","3BDCF01OGYGL8I2IVG1AF4BH8TYLYR","A222GZB608T1B8","33Q5P9PUSP8QOKKNNN5S19YACNVCZX","","img/set1/S2.jpg","68","2","random","68","true","random,structured_normal,structured_incentive","1,2,2,3","",""
"null","","html-keyboard-response","96","982668","0.0-25.0","3BDCF01OGYGL8I2IVG1AF4BH8TYLYR","A222GZB608T1B8","33Q5P9PUSP8QOKKNNN5S19YACNVCZX","","<img src=""img/set1/S2.jpg"" width=""540"" height = ""360"" style=""border:16px solid orange"">","null","","","","","","","",""
"null","","html-keyboard-response","97","982670","0.0-26.0","3BDCF01OGYGL8I2IVG1AF4BH8TYLYR","A222GZB608T1B8","33Q5P9PUSP8QOKKNNN5S19YACNVCZX","","","null","","","","","","","",""
"439.59999999403954","","image-keyboard-response","98","983111","0.0-27.0","3BDCF01OGYGL8I2IVG1AF4BH8TYLYR","A222GZB608T1B8","33Q5P9PUSP8QOKKNNN5S19YACNVCZX","","img/set1/S4.jpg","72","4","random","74","false","random,structured_normal,structured_incentive","1,2,2,3","",""
"null","","html-keyboard-response","99","983470","0.0-28.0","3BDCF01OGYGL8I2IVG1AF4BH8TYLYR","A222GZB608T1B8","33Q5P9PUSP8QOKKNNN5S19YACNVCZX","","<img src=""img/set1/S4.jpg"" width=""540"" height = ""360"">","null","","","","","","","",""
"null","","html-keyboard-response","100","983473","0.0-29.0","3BDCF01OGYGL8I2IVG1AF4BH8TYLYR","A222GZB608T1B8","33Q5P9PUSP8QOKKNNN5S19YACNVCZX","","","null","","","","","","","",""
"784.1000000238419","","image-keyboard-response","101","984258","0.0-30.0","3BDCF01OGYGL8I2IVG1AF4BH8TYLYR","A222GZB608T1B8","33Q5P9PUSP8QOKKNNN5S19YACNVCZX","","img/set1/S4.jpg","83","4","random","74","false","random,structured_normal,structured_incentive","1,2,2,3","",""
"null","","html-keyboard-response","102","984624","0.0-31.0","3BDCF01OGYGL8I2IVG1AF4BH8TYLYR","A222GZB608T1B8","33Q5P9PUSP8QOKKNNN5S19YACNVCZX","","<img src=""img/set1/S4.jpg"" width=""540"" height = ""360"">","null","","","","","","","",""
"null","","html-keyboard-response","103","984628","0.0-32.0","3BDCF01OGYGL8I2IVG1AF4BH8TYLYR","A222GZB608T1B8","33Q5P9PUSP8QOKKNNN5S19YACNVCZX","","","null","","","","","","","",""
"1673.2999999821186","","image-keyboard-response","104","986302","0.0-33.0","3BDCF01OGYGL8I2IVG1AF4BH8TYLYR","A222GZB608T1B8","33Q5P9PUSP8QOKKNNN5S19YACNVCZX","","img/set1/S4.jpg","68","4","random","74","false","random,structured_normal,structured_incentive","1,2,2,3","",""
"null","","html-keyboard-response","105","986661","0.0-34.0","3BDCF01OGYGL8I2IVG1AF4BH8TYLYR","A222GZB608T1B8","33Q5P9PUSP8QOKKNNN5S19YACNVCZX","","<img src=""img/set1/S4.jpg"" width=""540"" height = ""360"">","null","","","","","","","",""
"null","","html-keyboard-response","106","986663","0.0-35.0","3BDCF01OGYGL8I2IVG1AF4BH8TYLYR","A222GZB608T1B8","33Q5P9PUSP8QOKKNNN5S19YACNVCZX","","","null","","","","","","","",""
"1224.5999999940395","","image-keyboard-response","107","987889","0.0-36.0","3BDCF01OGYGL8I2IVG1AF4BH8TYLYR","A222GZB608T1B8","33Q5P9PUSP8QOKKNNN5S19YACNVCZX","","img/set1/S3.jpg","74","3","random","72","false","random,structured_normal,structured_incentive","1,2,2,3","",""
"null","","html-keyboard-response","108","988244","0.0-37.0","3BDCF01OGYGL8I2IVG1AF4BH8TYLYR","A222GZB608T1B8","33Q5P9PUSP8QOKKNNN5S19YACNVCZX","","<img src=""img/set1/S3.jpg"" width=""540"" height = ""360"">","null","","","","","","","",""
"null","","html-keyboard-response","109","988246","0.0-38.0","3BDCF01OGYGL8I2IVG1AF4BH8TYLYR","A222GZB608T1B8","33Q5P9PUSP8QOKKNNN5S19YACNVCZX","","","null","","","","","","","",""
"1341.0999999940395","","image-keyboard-response","110","989588","0.0-39.0","3BDCF01OGYGL8I2IVG1AF4BH8TYLYR","A222GZB608T1B8","33Q5P9PUSP8QOKKNNN5S19YACNVCZX","","img/set1/S2.jpg","72","2","random","68","false","random,structured_normal,structured_incentive","1,2,2,3","",""
"null","","html-keyboard-response","111","989945","0.0-40.0","3BDCF01OGYGL8I2IVG1AF4BH8TYLYR","A222GZB608T1B8","33Q5P9PUSP8QOKKNNN5S19YACNVCZX","","<img src=""img/set1/S2.jpg"" width=""540"" height = ""360"">","null","","","","","","","",""
"null","","html-keyboard-response","112","989947","0.0-41.0","3BDCF01OGYGL8I2IVG1AF4BH8TYLYR","A222GZB608T1B8","33Q5P9PUSP8QOKKNNN5S19YACNVCZX","","","null","","","","","","","",""
"1560.7000000178814","","image-keyboard-response","113","991509","0.0-42.0","3BDCF01OGYGL8I2IVG1AF4BH8TYLYR","A222GZB608T1B8","33Q5P9PUSP8QOKKNNN5S19YACNVCZX","","img/set1/S3.jpg","83","3","random","72","false","random,structured_normal,structured_incentive","1,2,2,3","",""
"null","","html-keyboard-response","114","991866","0.0-43.0","3BDCF01OGYGL8I2IVG1AF4BH8TYLYR","A222GZB608T1B8","33Q5P9PUSP8QOKKNNN5S19YACNVCZX","","<img src=""img/set1/S3.jpg"" width=""540"" height = ""360"">","null","","","","","","","",""
"null","","html-keyboard-response","115","991868","0.0-44.0","3BDCF01OGYGL8I2IVG1AF4BH8TYLYR","A222GZB608T1B8","33Q5P9PUSP8QOKKNNN5S19YACNVCZX","","","null","","","","","","","",""
"1168.2000000178814","","image-keyboard-response","116","993038","0.0-45.0","3BDCF01OGYGL8I2IVG1AF4BH8TYLYR","A222GZB608T1B8","33Q5P9PUSP8QOKKNNN5S19YACNVCZX","","img/set1/S2.jpg","72","2","random","68","false","random,structured_normal,structured_incentive","1,2,2,3","",""
"null","","html-keyboard-response","117","993399","0.0-46.0","3BDCF01OGYGL8I2IVG1AF4BH8TYLYR","A222GZB608T1B8","33Q5P9PUSP8QOKKNNN5S19YACNVCZX","","<img src=""img/set1/S2.jpg"" width=""540"" height = ""360"">","null","","","","","","","",""
"null","","html-keyboard-response","118","993402","0.0-47.0","3BDCF01OGYGL8I2IVG1AF4BH8TYLYR","A222GZB608T1B8","33Q5P9PUSP8QOKKNNN5S19YACNVCZX","","","null","","","","","","","",""
"1177.4000000059605","","image-keyboard-response","119","994580","0.0-48.0","3BDCF01OGYGL8I2IVG1AF4BH8TYLYR","A222GZB608T1B8","33Q5P9PUSP8QOKKNNN5S19YACNVCZX","","img/set1/S3.jpg","74","3","random","72","false","random,structured_normal,structured_incentive","1,2,2,3","",""
"null","","html-keyboard-response","120","994933","0.0-49.0","3BDCF01OGYGL8I2IVG1AF4BH8TYLYR","A222GZB608T1B8","33Q5P9PUSP8QOKKNNN5S19YACNVCZX","","<img src=""img/set1/S3.jpg"" width=""540"" height = ""360"">","null","","","","","","","",""
"null","","html-keyboard-response","121","994936","0.0-50.0","3BDCF01OGYGL8I2IVG1AF4BH8TYLYR","A222GZB608T1B8","33Q5P9PUSP8QOKKNNN5S19YACNVCZX","","","null","","","","","","","",""
"1240.5999999940395","","image-keyboard-response","122","996179","0.0-51.0","3BDCF01OGYGL8I2IVG1AF4BH8TYLYR","A222GZB608T1B8","33Q5P9PUSP8QOKKNNN5S19YACNVCZX","","img/set1/S1.jpg","83","1","random","83","true","random,structured_normal,structured_incentive","1,2,2,3","",""
"null","","html-keyboard-response","123","996533","0.0-52.0","3BDCF01OGYGL8I2IVG1AF4BH8TYLYR","A222GZB608T1B8","33Q5P9PUSP8QOKKNNN5S19YACNVCZX","","<img src=""img/set1/S1.jpg"" width=""540"" height = ""360"" style=""border:16px solid orange"">","null","","","","","","","",""
"null","","html-keyboard-response","124","996536","0.0-53.0","3BDCF01OGYGL8I2IVG1AF4BH8TYLYR","A222GZB608T1B8","33Q5P9PUSP8QOKKNNN5S19YACNVCZX","","","null","","","","","","","",""
"1324.7000000178814","","image-keyboard-response","125","997862","0.0-54.0","3BDCF01OGYGL8I2IVG1AF4BH8TYLYR","A222GZB608T1B8","33Q5P9PUSP8QOKKNNN5S19YACNVCZX","","img/set1/S3.jpg","74","3","random","72","false","random,structured_normal,structured_incentive","1,2,2,3","",""
"null","","html-keyboard-response","126","998214","0.0-55.0","3BDCF01OGYGL8I2IVG1AF4BH8TYLYR","A222GZB608T1B8","33Q5P9PUSP8QOKKNNN5S19YACNVCZX","","<img src=""img/set1/S3.jpg"" width=""540"" height = ""360"">","null","","","","","","","",""
"null","","html-keyboard-response","127","998216","0.0-56.0","3BDCF01OGYGL8I2IVG1AF4BH8TYLYR","A222GZB608T1B8","33Q5P9PUSP8QOKKNNN5S19YACNVCZX","","","null","","","","","","","",""
"1491.5999999940395","","image-keyboard-response","128","999709","0.0-57.0","3BDCF01OGYGL8I2IVG1AF4BH8TYLYR","A222GZB608T1B8","33Q5P9PUSP8QOKKNNN5S19YACNVCZX","","img/set1/S4.jpg","68","4","random","74","false","random,structured_normal,structured_incentive","1,2,2,3","",""
"null","","html-keyboard-response","129","1000064","0.0-58.0","3BDCF01OGYGL8I2IVG1AF4BH8TYLYR","A222GZB608T1B8","33Q5P9PUSP8QOKKNNN5S19YACNVCZX","","<img src=""img/set1/S4.jpg"" width=""540"" height = ""360"">","null","","","","","","","",""
"null","","html-keyboard-response","130","1000066","0.0-59.0","3BDCF01OGYGL8I2IVG1AF4BH8TYLYR","A222GZB608T1B8","33Q5P9PUSP8QOKKNNN5S19YACNVCZX","","","null","","","","","","","",""
"1171.7999999821186","","image-keyboard-response","131","1001239","0.0-60.0","3BDCF01OGYGL8I2IVG1AF4BH8TYLYR","A222GZB608T1B8","33Q5P9PUSP8QOKKNNN5S19YACNVCZX","","img/set1/S4.jpg","68","4","random","74","false","random,structured_normal,structured_incentive","1,2,2,3","",""
"null","","html-keyboard-response","132","1001596","0.0-61.0","3BDCF01OGYGL8I2IVG1AF4BH8TYLYR","A222GZB608T1B8","33Q5P9PUSP8QOKKNNN5S19YACNVCZX","","<img src=""img/set1/S4.jpg"" width=""540"" height = ""360"">","null","","","","","","","",""
"null","","html-keyboard-response","133","1001599","0.0-62.0","3BDCF01OGYGL8I2IVG1AF4BH8TYLYR","A222GZB608T1B8","33Q5P9PUSP8QOKKNNN5S19YACNVCZX","","","null","","","","","","","",""
"1138.5","","image-keyboard-response","134","1002738","0.0-63.0","3BDCF01OGYGL8I2IVG1AF4BH8TYLYR","A222GZB608T1B8","33Q5P9PUSP8QOKKNNN5S19YACNVCZX","","img/set1/S3.jpg","74","3","random","72","false","random,structured_normal,structured_incentive","1,2,2,3","",""
"null","","html-keyboard-response","135","1003096","0.0-64.0","3BDCF01OGYGL8I2IVG1AF4BH8TYLYR","A222GZB608T1B8","33Q5P9PUSP8QOKKNNN5S19YACNVCZX","","<img src=""img/set1/S3.jpg"" width=""540"" height = ""360"">","null","","","","","","","",""
"null","","html-keyboard-response","136","1003099","0.0-65.0","3BDCF01OGYGL8I2IVG1AF4BH8TYLYR","A222GZB608T1B8","33Q5P9PUSP8QOKKNNN5S19YACNVCZX","","","null","","","","","","","",""
"1208.300000011921","","image-keyboard-response","137","1004308","0.0-66.0","3BDCF01OGYGL8I2IVG1AF4BH8TYLYR","A222GZB608T1B8","33Q5P9PUSP8QOKKNNN5S19YACNVCZX","","img/set1/S1.jpg","83","1","random","83","true","random,structured_normal,structured_incentive","1,2,2,3","",""
"null","","html-keyboard-response","138","1004661","0.0-67.0","3BDCF01OGYGL8I2IVG1AF4BH8TYLYR","A222GZB608T1B8","33Q5P9PUSP8QOKKNNN5S19YACNVCZX","","<img src=""img/set1/S1.jpg"" width=""540"" height = ""360"" style=""border:16px solid orange"">","null","","","","","","","",""
"null","","html-keyboard-response","139","1004664","0.0-68.0","3BDCF01OGYGL8I2IVG1AF4BH8TYLYR","A222GZB608T1B8","33Q5P9PUSP8QOKKNNN5S19YACNVCZX","","","null","","","","","","","",""
"1333.699999988079","","image-keyboard-response","140","1005999","0.0-69.0","3BDCF01OGYGL8I2IVG1AF4BH8TYLYR","A222GZB608T1B8","33Q5P9PUSP8QOKKNNN5S19YACNVCZX","","img/set1/S1.jpg","83","1","random","83","true","random,structured_normal,structured_incentive","1,2,2,3","",""
"null","","html-keyboard-response","141","1006353","0.0-70.0","3BDCF01OGYGL8I2IVG1AF4BH8TYLYR","A222GZB608T1B8","33Q5P9PUSP8QOKKNNN5S19YACNVCZX","","<img src=""img/set1/S1.jpg"" width=""540"" height = ""360"" style=""border:16px solid orange"">","null","","","","","","","",""
"null","","html-keyboard-response","142","1006357","0.0-71.0","3BDCF01OGYGL8I2IVG1AF4BH8TYLYR","A222GZB608T1B8","33Q5P9PUSP8QOKKNNN5S19YACNVCZX","","","null","","","","","","","",""
"1585.300000011921","","image-keyboard-response","143","1007943","0.0-72.0","3BDCF01OGYGL8I2IVG1AF4BH8TYLYR","A222GZB608T1B8","33Q5P9PUSP8QOKKNNN5S19YACNVCZX","","img/set1/S1.jpg","83","1","random","83","true","random,structured_normal,structured_incentive","1,2,2,3","",""
"null","","html-keyboard-response","144","1008311","0.0-73.0","3BDCF01OGYGL8I2IVG1AF4BH8TYLYR","A222GZB608T1B8","33Q5P9PUSP8QOKKNNN5S19YACNVCZX","","<img src=""img/set1/S1.jpg"" width=""540"" height = ""360"" style=""border:16px solid orange"">","null","","","","","","","",""
"null","","html-keyboard-response","145","1008313","0.0-74.0","3BDCF01OGYGL8I2IVG1AF4BH8TYLYR","A222GZB608T1B8","33Q5P9PUSP8QOKKNNN5S19YACNVCZX","","","null","","","","","","","",""
"1115.0999999940395","","image-keyboard-response","146","1009429","0.0-75.0","3BDCF01OGYGL8I2IVG1AF4BH8TYLYR","A222GZB608T1B8","33Q5P9PUSP8QOKKNNN5S19YACNVCZX","","img/set1/S2.jpg","72","2","random","68","false","random,structured_normal,structured_incentive","1,2,2,3","",""
"null","","html-keyboard-response","147","1009783","0.0-76.0","3BDCF01OGYGL8I2IVG1AF4BH8TYLYR","A222GZB608T1B8","33Q5P9PUSP8QOKKNNN5S19YACNVCZX","","<img src=""img/set1/S2.jpg"" width=""540"" height = ""360"">","null","","","","","","","",""
"null","","html-keyboard-response","148","1009785","0.0-77.0","3BDCF01OGYGL8I2IVG1AF4BH8TYLYR","A222GZB608T1B8","33Q5P9PUSP8QOKKNNN5S19YACNVCZX","","","null","","","","","","","",""
"1141.9000000059605","","image-keyboard-response","149","1010928","0.0-78.0","3BDCF01OGYGL8I2IVG1AF4BH8TYLYR","A222GZB608T1B8","33Q5P9PUSP8QOKKNNN5S19YACNVCZX","","img/set1/S3.jpg","74","3","random","72","false","random,structured_normal,structured_incentive","1,2,2,3","",""
"null","","html-keyboard-response","150","1011292","0.0-79.0","3BDCF01OGYGL8I2IVG1AF4BH8TYLYR","A222GZB608T1B8","33Q5P9PUSP8QOKKNNN5S19YACNVCZX","","<img src=""img/set1/S3.jpg"" width=""540"" height = ""360"">","null","","","","","","","",""
"null","","html-keyboard-response","151","1011295","0.0-80.0","3BDCF01OGYGL8I2IVG1AF4BH8TYLYR","A222GZB608T1B8","33Q5P9PUSP8QOKKNNN5S19YACNVCZX","","","null","","","","","","","",""
"1172.5","","image-keyboard-response","152","1012468","0.0-81.0","3BDCF01OGYGL8I2IVG1AF4BH8TYLYR","A222GZB608T1B8","33Q5P9PUSP8QOKKNNN5S19YACNVCZX","","img/set1/S4.jpg","68","4","random","74","false","random,structured_normal,structured_incentive","1,2,2,3","",""
"null","","html-keyboard-response","153","1012836","0.0-82.0","3BDCF01OGYGL8I2IVG1AF4BH8TYLYR","A222GZB608T1B8","33Q5P9PUSP8QOKKNNN5S19YACNVCZX","","<img src=""img/set1/S4.jpg"" width=""540"" height = ""360"">","null","","","","","","","",""
"null","","html-keyboard-response","154","1012838","0.0-83.0","3BDCF01OGYGL8I2IVG1AF4BH8TYLYR","A222GZB608T1B8","33Q5P9PUSP8QOKKNNN5S19YACNVCZX","","","null","","","","","","","",""
"1660.800000011921","","image-keyboard-response","155","1014500","0.0-84.0","3BDCF01OGYGL8I2IVG1AF4BH8TYLYR","A222GZB608T1B8","33Q5P9PUSP8QOKKNNN5S19YACNVCZX","","img/set1/S4.jpg","68","4","random","74","false","random,structured_normal,structured_incentive","1,2,2,3","",""
"null","","html-keyboard-response","156","1014859","0.0-85.0","3BDCF01OGYGL8I2IVG1AF4BH8TYLYR","A222GZB608T1B8","33Q5P9PUSP8QOKKNNN5S19YACNVCZX","","<img src=""img/set1/S4.jpg"" width=""540"" height = ""360"">","null","","","","","","","",""
"null","","html-keyboard-response","157","1014861","0.0-86.0","3BDCF01OGYGL8I2IVG1AF4BH8TYLYR","A222GZB608T1B8","33Q5P9PUSP8QOKKNNN5S19YACNVCZX","","","null","","","","","","","",""
"1036.0999999940395","","image-keyboard-response","158","1015899","0.0-87.0","3BDCF01OGYGL8I2IVG1AF4BH8TYLYR","A222GZB608T1B8","33Q5P9PUSP8QOKKNNN5S19YACNVCZX","","img/set1/S3.jpg","74","3","random","72","false","random,structured_normal,structured_incentive","1,2,2,3","",""
"null","","html-keyboard-response","159","1016257","0.0-88.0","3BDCF01OGYGL8I2IVG1AF4BH8TYLYR","A222GZB608T1B8","33Q5P9PUSP8QOKKNNN5S19YACNVCZX","","<img src=""img/set1/S3.jpg"" width=""540"" height = ""360"">","null","","","","","","","",""
"null","","html-keyboard-response","160","1016259","0.0-89.0","3BDCF01OGYGL8I2IVG1AF4BH8TYLYR","A222GZB608T1B8","33Q5P9PUSP8QOKKNNN5S19YACNVCZX","","","null","","","","","","","",""
"1208.3999999761581","","image-keyboard-response","161","1017468","0.0-90.0","3BDCF01OGYGL8I2IVG1AF4BH8TYLYR","A222GZB608T1B8","33Q5P9PUSP8QOKKNNN5S19YACNVCZX","","img/set1/S3.jpg","74","3","random","72","false","random,structured_normal,structured_incentive","1,2,2,3","",""
"null","","html-keyboard-response","162","1017823","0.0-91.0","3BDCF01OGYGL8I2IVG1AF4BH8TYLYR","A222GZB608T1B8","33Q5P9PUSP8QOKKNNN5S19YACNVCZX","","<img src=""img/set1/S3.jpg"" width=""540"" height = ""360"">","null","","","","","","","",""
"null","","html-keyboard-response","163","1017825","0.0-92.0","3BDCF01OGYGL8I2IVG1AF4BH8TYLYR","A222GZB608T1B8","33Q5P9PUSP8QOKKNNN5S19YACNVCZX","","","null","","","","","","","",""
"1055.5","","image-keyboard-response","164","1018883","0.0-93.0","3BDCF01OGYGL8I2IVG1AF4BH8TYLYR","A222GZB608T1B8","33Q5P9PUSP8QOKKNNN5S19YACNVCZX","","img/set1/S2.jpg","72","2","random","68","false","random,structured_normal,structured_incentive","1,2,2,3","",""
"null","","html-keyboard-response","165","1019248","0.0-94.0","3BDCF01OGYGL8I2IVG1AF4BH8TYLYR","A222GZB608T1B8","33Q5P9PUSP8QOKKNNN5S19YACNVCZX","","<img src=""img/set1/S2.jpg"" width=""540"" height = ""360"">","null","","","","","","","",""
"null","","html-keyboard-response","166","1019251","0.0-95.0","3BDCF01OGYGL8I2IVG1AF4BH8TYLYR","A222GZB608T1B8","33Q5P9PUSP8QOKKNNN5S19YACNVCZX","","","null","","","","","","","",""
"1300.699999988079","","image-keyboard-response","167","1020553","0.0-96.0","3BDCF01OGYGL8I2IVG1AF4BH8TYLYR","A222GZB608T1B8","33Q5P9PUSP8QOKKNNN5S19YACNVCZX","","img/set1/S2.jpg","72","2","random","68","false","random,structured_normal,structured_incentive","1,2,2,3","",""
"null","","html-keyboard-response","168","1020912","0.0-97.0","3BDCF01OGYGL8I2IVG1AF4BH8TYLYR","A222GZB608T1B8","33Q5P9PUSP8QOKKNNN5S19YACNVCZX","","<img src=""img/set1/S2.jpg"" width=""540"" height = ""360"">","null","","","","","","","",""
"null","","html-keyboard-response","169","1020914","0.0-98.0","3BDCF01OGYGL8I2IVG1AF4BH8TYLYR","A222GZB608T1B8","33Q5P9PUSP8QOKKNNN5S19YACNVCZX","","","null","","","","","","","",""
"1103.5999999940395","","image-keyboard-response","170","1022019","0.0-99.0","3BDCF01OGYGL8I2IVG1AF4BH8TYLYR","A222GZB608T1B8","33Q5P9PUSP8QOKKNNN5S19YACNVCZX","","img/set1/S4.jpg","74","4","random","74","true","random,structured_normal,structured_incentive","1,2,2,3","",""
"null","","html-keyboard-response","171","1022371","0.0-100.0","3BDCF01OGYGL8I2IVG1AF4BH8TYLYR","A222GZB608T1B8","33Q5P9PUSP8QOKKNNN5S19YACNVCZX","","<img src=""img/set1/S4.jpg"" width=""540"" height = ""360"" style=""border:16px solid orange"">","null","","","","","","","",""
"null","","html-keyboard-response","172","1022374","0.0-101.0","3BDCF01OGYGL8I2IVG1AF4BH8TYLYR","A222GZB608T1B8","33Q5P9PUSP8QOKKNNN5S19YACNVCZX","","","null","","","","","","","",""
"1823","","image-keyboard-response","173","1024198","0.0-102.0","3BDCF01OGYGL8I2IVG1AF4BH8TYLYR","A222GZB608T1B8","33Q5P9PUSP8QOKKNNN5S19YACNVCZX","","img/set1/S2.jpg","74","2","random","68","false","random,structured_normal,structured_incentive","1,2,2,3","",""
"null","","html-keyboard-response","174","1024553","0.0-103.0","3BDCF01OGYGL8I2IVG1AF4BH8TYLYR","A222GZB608T1B8","33Q5P9PUSP8QOKKNNN5S19YACNVCZX","","<img src=""img/set1/S2.jpg"" width=""540"" height = ""360"">","null","","","","","","","",""
"null","","html-keyboard-response","175","1024557","0.0-104.0","3BDCF01OGYGL8I2IVG1AF4BH8TYLYR","A222GZB608T1B8","33Q5P9PUSP8QOKKNNN5S19YACNVCZX","","","null","","","","","","","",""
"1180.7000000178814","","image-keyboard-response","176","1025739","0.0-105.0","3BDCF01OGYGL8I2IVG1AF4BH8TYLYR","A222GZB608T1B8","33Q5P9PUSP8QOKKNNN5S19YACNVCZX","","img/set1/S4.jpg","68","4","random","74","false","random,structured_normal,structured_incentive","1,2,2,3","",""
"null","","html-keyboard-response","177","1026093","0.0-106.0","3BDCF01OGYGL8I2IVG1AF4BH8TYLYR","A222GZB608T1B8","33Q5P9PUSP8QOKKNNN5S19YACNVCZX","","<img src=""img/set1/S4.jpg"" width=""540"" height = ""360"">","null","","","","","","","",""
"null","","html-keyboard-response","178","1026095","0.0-107.0","3BDCF01OGYGL8I2IVG1AF4BH8TYLYR","A222GZB608T1B8","33Q5P9PUSP8QOKKNNN5S19YACNVCZX","","","null","","","","","","","",""
"1181.5","","image-keyboard-response","179","1027278","0.0-108.0","3BDCF01OGYGL8I2IVG1AF4BH8TYLYR","A222GZB608T1B8","33Q5P9PUSP8QOKKNNN5S19YACNVCZX","","img/set1/S1.jpg","83","1","random","83","true","random,structured_normal,structured_incentive","1,2,2,3","",""
"null","","html-keyboard-response","180","1027642","0.0-109.0","3BDCF01OGYGL8I2IVG1AF4BH8TYLYR","A222GZB608T1B8","33Q5P9PUSP8QOKKNNN5S19YACNVCZX","","<img src=""img/set1/S1.jpg"" width=""540"" height = ""360"" style=""border:16px solid orange"">","null","","","","","","","",""
"null","","html-keyboard-response","181","1027645","0.0-110.0","3BDCF01OGYGL8I2IVG1AF4BH8TYLYR","A222GZB608T1B8","33Q5P9PUSP8QOKKNNN5S19YACNVCZX","","","null","","","","","","","",""
"1456","","image-keyboard-response","182","1029102","0.0-111.0","3BDCF01OGYGL8I2IVG1AF4BH8TYLYR","A222GZB608T1B8","33Q5P9PUSP8QOKKNNN5S19YACNVCZX","","img/set1/S4.jpg","68","4","random","74","false","random,structured_normal,structured_incentive","1,2,2,3","",""
"null","","html-keyboard-response","183","1029459","0.0-112.0","3BDCF01OGYGL8I2IVG1AF4BH8TYLYR","A222GZB608T1B8","33Q5P9PUSP8QOKKNNN5S19YACNVCZX","","<img src=""img/set1/S4.jpg"" width=""540"" height = ""360"">","null","","","","","","","",""
"null","","html-keyboard-response","184","1029461","0.0-113.0","3BDCF01OGYGL8I2IVG1AF4BH8TYLYR","A222GZB608T1B8","33Q5P9PUSP8QOKKNNN5S19YACNVCZX","","","null","","","","","","","",""
"1266","","image-keyboard-response","185","1030728","0.0-114.0","3BDCF01OGYGL8I2IVG1AF4BH8TYLYR","A222GZB608T1B8","33Q5P9PUSP8QOKKNNN5S19YACNVCZX","","img/set1/S1.jpg","74","1","random","83","false","random,structured_normal,structured_incentive","1,2,2,3","",""
"null","","html-keyboard-response","186","1031083","0.0-115.0","3BDCF01OGYGL8I2IVG1AF4BH8TYLYR","A222GZB608T1B8","33Q5P9PUSP8QOKKNNN5S19YACNVCZX","","<img src=""img/set1/S1.jpg"" width=""540"" height = ""360"">","null","","","","","","","",""
"null","","html-keyboard-response","187","1031085","0.0-116.0","3BDCF01OGYGL8I2IVG1AF4BH8TYLYR","A222GZB608T1B8","33Q5P9PUSP8QOKKNNN5S19YACNVCZX","","","null","","","","","","","",""
"1131.7999999821186","","image-keyboard-response","188","1032218","0.0-117.0","3BDCF01OGYGL8I2IVG1AF4BH8TYLYR","A222GZB608T1B8","33Q5P9PUSP8QOKKNNN5S19YACNVCZX","","img/set1/S4.jpg","83","4","random","74","false","random,structured_normal,structured_incentive","1,2,2,3","",""
"null","","html-keyboard-response","189","1032580","0.0-118.0","3BDCF01OGYGL8I2IVG1AF4BH8TYLYR","A222GZB608T1B8","33Q5P9PUSP8QOKKNNN5S19YACNVCZX","","<img src=""img/set1/S4.jpg"" width=""540"" height = ""360"">","null","","","","","","","",""
"null","","html-keyboard-response","190","1032583","0.0-119.0","3BDCF01OGYGL8I2IVG1AF4BH8TYLYR","A222GZB608T1B8","33Q5P9PUSP8QOKKNNN5S19YACNVCZX","","","null","","","","","","","",""
"1163","","image-keyboard-response","191","1033748","0.0-120.0","3BDCF01OGYGL8I2IVG1AF4BH8TYLYR","A222GZB608T1B8","33Q5P9PUSP8QOKKNNN5S19YACNVCZX","","img/set1/S2.jpg","72","2","random","68","false","random,structured_normal,structured_incentive","1,2,2,3","",""
"null","","html-keyboard-response","192","1034101","0.0-121.0","3BDCF01OGYGL8I2IVG1AF4BH8TYLYR","A222GZB608T1B8","33Q5P9PUSP8QOKKNNN5S19YACNVCZX","","<img src=""img/set1/S2.jpg"" width=""540"" height = ""360"">","null","","","","","","","",""
"null","","html-keyboard-response","193","1034103","0.0-122.0","3BDCF01OGYGL8I2IVG1AF4BH8TYLYR","A222GZB608T1B8","33Q5P9PUSP8QOKKNNN5S19YACNVCZX","","","null","","","","","","","",""
"1113.7999999821186","","image-keyboard-response","194","1035218","0.0-123.0","3BDCF01OGYGL8I2IVG1AF4BH8TYLYR","A222GZB608T1B8","33Q5P9PUSP8QOKKNNN5S19YACNVCZX","","img/set1/S4.jpg","74","4","random","74","true","random,structured_normal,structured_incentive","1,2,2,3","",""
"null","","html-keyboard-response","195","1035572","0.0-124.0","3BDCF01OGYGL8I2IVG1AF4BH8TYLYR","A222GZB608T1B8","33Q5P9PUSP8QOKKNNN5S19YACNVCZX","","<img src=""img/set1/S4.jpg"" width=""540"" height = ""360"" style=""border:16px solid orange"">","null","","","","","","","",""
"null","","html-keyboard-response","196","1035574","0.0-125.0","3BDCF01OGYGL8I2IVG1AF4BH8TYLYR","A222GZB608T1B8","33Q5P9PUSP8QOKKNNN5S19YACNVCZX","","","null","","","","","","","",""
"1195.0999999940395","","image-keyboard-response","197","1036770","0.0-126.0","3BDCF01OGYGL8I2IVG1AF4BH8TYLYR","A222GZB608T1B8","33Q5P9PUSP8QOKKNNN5S19YACNVCZX","","img/set1/S4.jpg","74","4","random","74","true","random,structured_normal,structured_incentive","1,2,2,3","",""
"null","","html-keyboard-response","198","1037125","0.0-127.0","3BDCF01OGYGL8I2IVG1AF4BH8TYLYR","A222GZB608T1B8","33Q5P9PUSP8QOKKNNN5S19YACNVCZX","","<img src=""img/set1/S4.jpg"" width=""540"" height = ""360"" style=""border:16px solid orange"">","null","","","","","","","",""
"null","","html-keyboard-response","199","1037128","0.0-128.0","3BDCF01OGYGL8I2IVG1AF4BH8TYLYR","A222GZB608T1B8","33Q5P9PUSP8QOKKNNN5S19YACNVCZX","","","null","","","","","","","",""
"1338.5","","image-keyboard-response","200","1038468","0.0-129.0","3BDCF01OGYGL8I2IVG1AF4BH8TYLYR","A222GZB608T1B8","33Q5P9PUSP8QOKKNNN5S19YACNVCZX","","img/set1/S2.jpg","72","2","random","68","false","random,structured_normal,structured_incentive","1,2,2,3","",""
"null","","html-keyboard-response","201","1038827","0.0-130.0","3BDCF01OGYGL8I2IVG1AF4BH8TYLYR","A222GZB608T1B8","33Q5P9PUSP8QOKKNNN5S19YACNVCZX","","<img src=""img/set1/S2.jpg"" width=""540"" height = ""360"">","null","","","","","","","",""
"null","","html-keyboard-response","202","1038829","0.0-131.0","3BDCF01OGYGL8I2IVG1AF4BH8TYLYR","A222GZB608T1B8","33Q5P9PUSP8QOKKNNN5S19YACNVCZX","","","null","","","","","","","",""
"1091","","image-keyboard-response","203","1039922","0.0-132.0","3BDCF01OGYGL8I2IVG1AF4BH8TYLYR","A222GZB608T1B8","33Q5P9PUSP8QOKKNNN5S19YACNVCZX","","img/set1/S1.jpg","83","1","random","83","true","random,structured_normal,structured_incentive","1,2,2,3","",""
"null","","html-keyboard-response","204","1040289","0.0-133.0","3BDCF01OGYGL8I2IVG1AF4BH8TYLYR","A222GZB608T1B8","33Q5P9PUSP8QOKKNNN5S19YACNVCZX","","<img src=""img/set1/S1.jpg"" width=""540"" height = ""360"" style=""border:16px solid orange"">","null","","","","","","","",""
"null","","html-keyboard-response","205","1040291","0.0-134.0","3BDCF01OGYGL8I2IVG1AF4BH8TYLYR","A222GZB608T1B8","33Q5P9PUSP8QOKKNNN5S19YACNVCZX","","","null","","","","","","","",""
"1676.0999999940395","","image-keyboard-response","206","1041968","0.0-135.0","3BDCF01OGYGL8I2IVG1AF4BH8TYLYR","A222GZB608T1B8","33Q5P9PUSP8QOKKNNN5S19YACNVCZX","","img/set1/S2.jpg","72","2","random","68","false","random,structured_normal,structured_incentive","1,2,2,3","",""
"null","","html-keyboard-response","207","1042335","0.0-136.0","3BDCF01OGYGL8I2IVG1AF4BH8TYLYR","A222GZB608T1B8","33Q5P9PUSP8QOKKNNN5S19YACNVCZX","","<img src=""img/set1/S2.jpg"" width=""540"" height = ""360"">","null","","","","","","","",""
"null","","html-keyboard-response","208","1042337","0.0-137.0","3BDCF01OGYGL8I2IVG1AF4BH8TYLYR","A222GZB608T1B8","33Q5P9PUSP8QOKKNNN5S19YACNVCZX","","","null","","","","","","","",""
"1221.5999999940395","","image-keyboard-response","209","1043560","0.0-138.0","3BDCF01OGYGL8I2IVG1AF4BH8TYLYR","A222GZB608T1B8","33Q5P9PUSP8QOKKNNN5S19YACNVCZX","","img/set1/S2.jpg","72","2","random","68","false","random,structured_normal,structured_incentive","1,2,2,3","",""
"null","","html-keyboard-response","210","1043911","0.0-139.0","3BDCF01OGYGL8I2IVG1AF4BH8TYLYR","A222GZB608T1B8","33Q5P9PUSP8QOKKNNN5S19YACNVCZX","","<img src=""img/set1/S2.jpg"" width=""540"" height = ""360"">","null","","","","","","","",""
"null","","html-keyboard-response","211","1043913","0.0-140.0","3BDCF01OGYGL8I2IVG1AF4BH8TYLYR","A222GZB608T1B8","33Q5P9PUSP8QOKKNNN5S19YACNVCZX","","","null","","","","","","","",""
"1073.800000011921","","image-keyboard-response","212","1044989","0.0-141.0","3BDCF01OGYGL8I2IVG1AF4BH8TYLYR","A222GZB608T1B8","33Q5P9PUSP8QOKKNNN5S19YACNVCZX","","img/set1/S2.jpg","83","2","random","68","false","random,structured_normal,structured_incentive","1,2,2,3","",""
"null","","html-keyboard-response","213","1045343","0.0-142.0","3BDCF01OGYGL8I2IVG1AF4BH8TYLYR","A222GZB608T1B8","33Q5P9PUSP8QOKKNNN5S19YACNVCZX","","<img src=""img/set1/S2.jpg"" width=""540"" height = ""360"">","null","","","","","","","",""
"null","","html-keyboard-response","214","1045346","0.0-143.0","3BDCF01OGYGL8I2IVG1AF4BH8TYLYR","A222GZB608T1B8","33Q5P9PUSP8QOKKNNN5S19YACNVCZX","","","null","","","","","","","",""
"1270.5999999940395","","image-keyboard-response","215","1046618","0.0-144.0","3BDCF01OGYGL8I2IVG1AF4BH8TYLYR","A222GZB608T1B8","33Q5P9PUSP8QOKKNNN5S19YACNVCZX","","img/set1/S4.jpg","74","4","random","74","true","random,structured_normal,structured_incentive","1,2,2,3","",""
"null","","html-keyboard-response","216","1046975","0.0-145.0","3BDCF01OGYGL8I2IVG1AF4BH8TYLYR","A222GZB608T1B8","33Q5P9PUSP8QOKKNNN5S19YACNVCZX","","<img src=""img/set1/S4.jpg"" width=""540"" height = ""360"" style=""border:16px solid orange"">","null","","","","","","","",""
"null","","html-keyboard-response","217","1046977","0.0-146.0","3BDCF01OGYGL8I2IVG1AF4BH8TYLYR","A222GZB608T1B8","33Q5P9PUSP8QOKKNNN5S19YACNVCZX","","","null","","","","","","","",""
"919.5999999940395","","image-keyboard-response","218","1047898","0.0-147.0","3BDCF01OGYGL8I2IVG1AF4BH8TYLYR","A222GZB608T1B8","33Q5P9PUSP8QOKKNNN5S19YACNVCZX","","img/set1/S4.jpg","74","4","random","74","true","random,structured_normal,structured_incentive","1,2,2,3","",""
"null","","html-keyboard-response","219","1048250","0.0-148.0","3BDCF01OGYGL8I2IVG1AF4BH8TYLYR","A222GZB608T1B8","33Q5P9PUSP8QOKKNNN5S19YACNVCZX","","<img src=""img/set1/S4.jpg"" width=""540"" height = ""360"" style=""border:16px solid orange"">","null","","","","","","","",""
"null","","html-keyboard-response","220","1048252","0.0-149.0","3BDCF01OGYGL8I2IVG1AF4BH8TYLYR","A222GZB608T1B8","33Q5P9PUSP8QOKKNNN5S19YACNVCZX","","","null","","","","","","","",""
"1374.5999999940395","","image-keyboard-response","221","1049628","0.0-150.0","3BDCF01OGYGL8I2IVG1AF4BH8TYLYR","A222GZB608T1B8","33Q5P9PUSP8QOKKNNN5S19YACNVCZX","","img/set1/S1.jpg","83","1","random","83","true","random,structured_normal,structured_incentive","1,2,2,3","",""
"null","","html-keyboard-response","222","1049983","0.0-151.0","3BDCF01OGYGL8I2IVG1AF4BH8TYLYR","A222GZB608T1B8","33Q5P9PUSP8QOKKNNN5S19YACNVCZX","","<img src=""img/set1/S1.jpg"" width=""540"" height = ""360"" style=""border:16px solid orange"">","null","","","","","","","",""
"null","","html-keyboard-response","223","1049985","0.0-152.0","3BDCF01OGYGL8I2IVG1AF4BH8TYLYR","A222GZB608T1B8","33Q5P9PUSP8QOKKNNN5S19YACNVCZX","","","null","","","","","","","",""
"1484.9000000059605","","image-keyboard-response","224","1051472","0.0-153.0","3BDCF01OGYGL8I2IVG1AF4BH8TYLYR","A222GZB608T1B8","33Q5P9PUSP8QOKKNNN5S19YACNVCZX","","img/set1/S2.jpg","72","2","random","68","false","random,structured_normal,structured_incentive","1,2,2,3","",""
"null","","html-keyboard-response","225","1051826","0.0-154.0","3BDCF01OGYGL8I2IVG1AF4BH8TYLYR","A222GZB608T1B8","33Q5P9PUSP8QOKKNNN5S19YACNVCZX","","<img src=""img/set1/S2.jpg"" width=""540"" height = ""360"">","null","","","","","","","",""
"null","","html-keyboard-response","226","1051828","0.0-155.0","3BDCF01OGYGL8I2IVG1AF4BH8TYLYR","A222GZB608T1B8","33Q5P9PUSP8QOKKNNN5S19YACNVCZX","","","null","","","","","","","",""
"1089.7999999821186","","image-keyboard-response","227","1052920","0.0-156.0","3BDCF01OGYGL8I2IVG1AF4BH8TYLYR","A222GZB608T1B8","33Q5P9PUSP8QOKKNNN5S19YACNVCZX","","img/set1/S3.jpg","74","3","random","72","false","random,structured_normal,structured_incentive","1,2,2,3","",""
"null","","html-keyboard-response","228","1053273","0.0-157.0","3BDCF01OGYGL8I2IVG1AF4BH8TYLYR","A222GZB608T1B8","33Q5P9PUSP8QOKKNNN5S19YACNVCZX","","<img src=""img/set1/S3.jpg"" width=""540"" height = ""360"">","null","","","","","","","",""
"null","","html-keyboard-response","229","1053275","0.0-158.0","3BDCF01OGYGL8I2IVG1AF4BH8TYLYR","A222GZB608T1B8","33Q5P9PUSP8QOKKNNN5S19YACNVCZX","","","null","","","","","","","",""
"1260.9000000059605","","image-keyboard-response","230","1054538","0.0-159.0","3BDCF01OGYGL8I2IVG1AF4BH8TYLYR","A222GZB608T1B8","33Q5P9PUSP8QOKKNNN5S19YACNVCZX","","img/set1/S3.jpg","68","3","random","72","false","random,structured_normal,structured_incentive","1,2,2,3","",""
"null","","html-keyboard-response","231","1054891","0.0-160.0","3BDCF01OGYGL8I2IVG1AF4BH8TYLYR","A222GZB608T1B8","33Q5P9PUSP8QOKKNNN5S19YACNVCZX","","<img src=""img/set1/S3.jpg"" width=""540"" height = ""360"">","null","","","","","","","",""
"null","","html-keyboard-response","232","1054894","0.0-161.0","3BDCF01OGYGL8I2IVG1AF4BH8TYLYR","A222GZB608T1B8","33Q5P9PUSP8QOKKNNN5S19YACNVCZX","","","null","","","","","","","",""
"1042.0999999940395","","image-keyboard-response","233","1055937","0.0-162.0","3BDCF01OGYGL8I2IVG1AF4BH8TYLYR","A222GZB608T1B8","33Q5P9PUSP8QOKKNNN5S19YACNVCZX","","img/set1/S1.jpg","83","1","random","83","true","random,structured_normal,structured_incentive","1,2,2,3","",""
"null","","html-keyboard-response","234","1056296","0.0-163.0","3BDCF01OGYGL8I2IVG1AF4BH8TYLYR","A222GZB608T1B8","33Q5P9PUSP8QOKKNNN5S19YACNVCZX","","<img src=""img/set1/S1.jpg"" width=""540"" height = ""360"" style=""border:16px solid orange"">","null","","","","","","","",""
"null","","html-keyboard-response","235","1056298","0.0-164.0","3BDCF01OGYGL8I2IVG1AF4BH8TYLYR","A222GZB608T1B8","33Q5P9PUSP8QOKKNNN5S19YACNVCZX","","","null","","","","","","","",""
"1356.5999999940395","","image-keyboard-response","236","1057658","0.0-165.0","3BDCF01OGYGL8I2IVG1AF4BH8TYLYR","A222GZB608T1B8","33Q5P9PUSP8QOKKNNN5S19YACNVCZX","","img/set1/S2.jpg","74","2","random","68","false","random,structured_normal,structured_incentive","1,2,2,3","",""
"null","","html-keyboard-response","237","1058014","0.0-166.0","3BDCF01OGYGL8I2IVG1AF4BH8TYLYR","A222GZB608T1B8","33Q5P9PUSP8QOKKNNN5S19YACNVCZX","","<img src=""img/set1/S2.jpg"" width=""540"" height = ""360"">","null","","","","","","","",""
"null","","html-keyboard-response","238","1058017","0.0-167.0","3BDCF01OGYGL8I2IVG1AF4BH8TYLYR","A222GZB608T1B8","33Q5P9PUSP8QOKKNNN5S19YACNVCZX","","","null","","","","","","","",""
"972.1999999880791","","image-keyboard-response","239","1058990","0.0-168.0","3BDCF01OGYGL8I2IVG1AF4BH8TYLYR","A222GZB608T1B8","33Q5P9PUSP8QOKKNNN5S19YACNVCZX","","img/set1/S1.jpg","68","1","random","83","false","random,structured_normal,structured_incentive","1,2,2,3","",""
"null","","html-keyboard-response","240","1059345","0.0-169.0","3BDCF01OGYGL8I2IVG1AF4BH8TYLYR","A222GZB608T1B8","33Q5P9PUSP8QOKKNNN5S19YACNVCZX","","<img src=""img/set1/S1.jpg"" width=""540"" height = ""360"">","null","","","","","","","",""
"null","","html-keyboard-response","241","1059347","0.0-170.0","3BDCF01OGYGL8I2IVG1AF4BH8TYLYR","A222GZB608T1B8","33Q5P9PUSP8QOKKNNN5S19YACNVCZX","","","null","","","","","","","",""
"1169.5","","image-keyboard-response","242","1060518","0.0-171.0","3BDCF01OGYGL8I2IVG1AF4BH8TYLYR","A222GZB608T1B8","33Q5P9PUSP8QOKKNNN5S19YACNVCZX","","img/set1/S3.jpg","74","3","random","72","false","random,structured_normal,structured_incentive","1,2,2,3","",""
"null","","html-keyboard-response","243","1060876","0.0-172.0","3BDCF01OGYGL8I2IVG1AF4BH8TYLYR","A222GZB608T1B8","33Q5P9PUSP8QOKKNNN5S19YACNVCZX","","<img src=""img/set1/S3.jpg"" width=""540"" height = ""360"">","null","","","","","","","",""
"null","","html-keyboard-response","244","1060879","0.0-173.0","3BDCF01OGYGL8I2IVG1AF4BH8TYLYR","A222GZB608T1B8","33Q5P9PUSP8QOKKNNN5S19YACNVCZX","","","null","","","","","","","",""
"1274.9000000059605","","image-keyboard-response","245","1062155","0.0-174.0","3BDCF01OGYGL8I2IVG1AF4BH8TYLYR","A222GZB608T1B8","33Q5P9PUSP8QOKKNNN5S19YACNVCZX","","img/set1/S4.jpg","83","4","random","74","false","random,structured_normal,structured_incentive","1,2,2,3","",""
"null","","html-keyboard-response","246","1062518","0.0-175.0","3BDCF01OGYGL8I2IVG1AF4BH8TYLYR","A222GZB608T1B8","33Q5P9PUSP8QOKKNNN5S19YACNVCZX","","<img src=""img/set1/S4.jpg"" width=""540"" height = ""360"">","null","","","","","","","",""
"null","","html-keyboard-response","247","1062520","0.0-176.0","3BDCF01OGYGL8I2IVG1AF4BH8TYLYR","A222GZB608T1B8","33Q5P9PUSP8QOKKNNN5S19YACNVCZX","","","null","","","","","","","",""
"916.1999999880791","","image-keyboard-response","248","1063438","0.0-177.0","3BDCF01OGYGL8I2IVG1AF4BH8TYLYR","A222GZB608T1B8","33Q5P9PUSP8QOKKNNN5S19YACNVCZX","","img/set1/S1.jpg","68","1","random","83","false","random,structured_normal,structured_incentive","1,2,2,3","",""
"null","","html-keyboard-response","249","1063806","0.0-178.0","3BDCF01OGYGL8I2IVG1AF4BH8TYLYR","A222GZB608T1B8","33Q5P9PUSP8QOKKNNN5S19YACNVCZX","","<img src=""img/set1/S1.jpg"" width=""540"" height = ""360"">","null","","","","","","","",""
"null","","html-keyboard-response","250","1063809","0.0-179.0","3BDCF01OGYGL8I2IVG1AF4BH8TYLYR","A222GZB608T1B8","33Q5P9PUSP8QOKKNNN5S19YACNVCZX","","","null","","","","","","","",""
"1188.5999999940395","","image-keyboard-response","251","1064998","0.0-180.0","3BDCF01OGYGL8I2IVG1AF4BH8TYLYR","A222GZB608T1B8","33Q5P9PUSP8QOKKNNN5S19YACNVCZX","","img/set1/S4.jpg","74","4","random","74","true","random,structured_normal,structured_incentive","1,2,2,3","",""
"null","","html-keyboard-response","252","1065361","0.0-181.0","3BDCF01OGYGL8I2IVG1AF4BH8TYLYR","A222GZB608T1B8","33Q5P9PUSP8QOKKNNN5S19YACNVCZX","","<img src=""img/set1/S4.jpg"" width=""540"" height = ""360"" style=""border:16px solid orange"">","null","","","","","","","",""
"null","","html-keyboard-response","253","1065363","0.0-182.0","3BDCF01OGYGL8I2IVG1AF4BH8TYLYR","A222GZB608T1B8","33Q5P9PUSP8QOKKNNN5S19YACNVCZX","","","null","","","","","","","",""
"1442.5","","image-keyboard-response","254","1066808","0.0-183.0","3BDCF01OGYGL8I2IVG1AF4BH8TYLYR","A222GZB608T1B8","33Q5P9PUSP8QOKKNNN5S19YACNVCZX","","img/set1/S3.jpg","74","3","random","72","false","random,structured_normal,structured_incentive","1,2,2,3","",""
"null","","html-keyboard-response","255","1067174","0.0-184.0","3BDCF01OGYGL8I2IVG1AF4BH8TYLYR","A222GZB608T1B8","33Q5P9PUSP8QOKKNNN5S19YACNVCZX","","<img src=""img/set1/S3.jpg"" width=""540"" height = ""360"">","null","","","","","","","",""
"null","","html-keyboard-response","256","1067176","0.0-185.0","3BDCF01OGYGL8I2IVG1AF4BH8TYLYR","A222GZB608T1B8","33Q5P9PUSP8QOKKNNN5S19YACNVCZX","","","null","","","","","","","",""
"1070.4000000059605","","image-keyboard-response","257","1068248","0.0-186.0","3BDCF01OGYGL8I2IVG1AF4BH8TYLYR","A222GZB608T1B8","33Q5P9PUSP8QOKKNNN5S19YACNVCZX","","img/set1/S3.jpg","83","3","random","72","false","random,structured_normal,structured_incentive","1,2,2,3","",""
"null","","html-keyboard-response","258","1068607","0.0-187.0","3BDCF01OGYGL8I2IVG1AF4BH8TYLYR","A222GZB608T1B8","33Q5P9PUSP8QOKKNNN5S19YACNVCZX","","<img src=""img/set1/S3.jpg"" width=""540"" height = ""360"">","null","","","","","","","",""
"null","","html-keyboard-response","259","1068610","0.0-188.0","3BDCF01OGYGL8I2IVG1AF4BH8TYLYR","A222GZB608T1B8","33Q5P9PUSP8QOKKNNN5S19YACNVCZX","","","null","","","","","","","",""
"1307.5","","image-keyboard-response","260","1069919","0.0-189.0","3BDCF01OGYGL8I2IVG1AF4BH8TYLYR","A222GZB608T1B8","33Q5P9PUSP8QOKKNNN5S19YACNVCZX","","img/set1/S1.jpg","83","1","random","83","true","random,structured_normal,structured_incentive","1,2,2,3","",""
"null","","html-keyboard-response","261","1070274","0.0-190.0","3BDCF01OGYGL8I2IVG1AF4BH8TYLYR","A222GZB608T1B8","33Q5P9PUSP8QOKKNNN5S19YACNVCZX","","<img src=""img/set1/S1.jpg"" width=""540"" height = ""360"" style=""border:16px solid orange"">","null","","","","","","","",""
"null","","html-keyboard-response","262","1070276","0.0-191.0","3BDCF01OGYGL8I2IVG1AF4BH8TYLYR","A222GZB608T1B8","33Q5P9PUSP8QOKKNNN5S19YACNVCZX","","","null","","","","","","","",""
"1350.6000000238419","","image-keyboard-response","263","1071628","0.0-192.0","3BDCF01OGYGL8I2IVG1AF4BH8TYLYR","A222GZB608T1B8","33Q5P9PUSP8QOKKNNN5S19YACNVCZX","","img/set1/S4.jpg","72","4","random","74","false","random,structured_normal,structured_incentive","1,2,2,3","",""
"null","","html-keyboard-response","264","1071983","0.0-193.0","3BDCF01OGYGL8I2IVG1AF4BH8TYLYR","A222GZB608T1B8","33Q5P9PUSP8QOKKNNN5S19YACNVCZX","","<img src=""img/set1/S4.jpg"" width=""540"" height = ""360"">","null","","","","","","","",""
"null","","html-keyboard-response","265","1071985","0.0-194.0","3BDCF01OGYGL8I2IVG1AF4BH8TYLYR","A222GZB608T1B8","33Q5P9PUSP8QOKKNNN5S19YACNVCZX","","","null","","","","","","","",""
"1515.9000000059605","","image-keyboard-response","266","1073503","0.0-195.0","3BDCF01OGYGL8I2IVG1AF4BH8TYLYR","A222GZB608T1B8","33Q5P9PUSP8QOKKNNN5S19YACNVCZX","","img/set1/S4.jpg","72","4","random","74","false","random,structured_normal,structured_incentive","1,2,2,3","",""
"null","","html-keyboard-response","267","1073856","0.0-196.0","3BDCF01OGYGL8I2IVG1AF4BH8TYLYR","A222GZB608T1B8","33Q5P9PUSP8QOKKNNN5S19YACNVCZX","","<img src=""img/set1/S4.jpg"" width=""540"" height = ""360"">","null","","","","","","","",""
"null","","html-keyboard-response","268","1073860","0.0-197.0","3BDCF01OGYGL8I2IVG1AF4BH8TYLYR","A222GZB608T1B8","33Q5P9PUSP8QOKKNNN5S19YACNVCZX","","","null","","","","","","","",""
"1264.2999999821186","","image-keyboard-response","269","1075125","0.0-198.0","3BDCF01OGYGL8I2IVG1AF4BH8TYLYR","A222GZB608T1B8","33Q5P9PUSP8QOKKNNN5S19YACNVCZX","","img/set1/S1.jpg","83","1","random","83","true","random,structured_normal,structured_incentive","1,2,2,3","",""
"null","","html-keyboard-response","270","1075479","0.0-199.0","3BDCF01OGYGL8I2IVG1AF4BH8TYLYR","A222GZB608T1B8","33Q5P9PUSP8QOKKNNN5S19YACNVCZX","","<img src=""img/set1/S1.jpg"" width=""540"" height = ""360"" style=""border:16px solid orange"">","null","","","","","","","",""
"null","","html-keyboard-response","271","1075482","0.0-200.0","3BDCF01OGYGL8I2IVG1AF4BH8TYLYR","A222GZB608T1B8","33Q5P9PUSP8QOKKNNN5S19YACNVCZX","","","null","","","","","","","",""
"1075.2000000178814","","image-keyboard-response","272","1076558","0.0-201.0","3BDCF01OGYGL8I2IVG1AF4BH8TYLYR","A222GZB608T1B8","33Q5P9PUSP8QOKKNNN5S19YACNVCZX","","img/set1/S1.jpg","83","1","random","83","true","random,structured_normal,structured_incentive","1,2,2,3","",""
"null","","html-keyboard-response","273","1076912","0.0-202.0","3BDCF01OGYGL8I2IVG1AF4BH8TYLYR","A222GZB608T1B8","33Q5P9PUSP8QOKKNNN5S19YACNVCZX","","<img src=""img/set1/S1.jpg"" width=""540"" height = ""360"" style=""border:16px solid orange"">","null","","","","","","","",""
"null","","html-keyboard-response","274","1076915","0.0-203.0","3BDCF01OGYGL8I2IVG1AF4BH8TYLYR","A222GZB608T1B8","33Q5P9PUSP8QOKKNNN5S19YACNVCZX","","","null","","","","","","","",""
"1441.4000000059605","","image-keyboard-response","275","1078358","0.0-204.0","3BDCF01OGYGL8I2IVG1AF4BH8TYLYR","A222GZB608T1B8","33Q5P9PUSP8QOKKNNN5S19YACNVCZX","","img/set1/S3.jpg","74","3","random","72","false","random,structured_normal,structured_incentive","1,2,2,3","",""
"null","","html-keyboard-response","276","1078718","0.0-205.0","3BDCF01OGYGL8I2IVG1AF4BH8TYLYR","A222GZB608T1B8","33Q5P9PUSP8QOKKNNN5S19YACNVCZX","","<img src=""img/set1/S3.jpg"" width=""540"" height = ""360"">","null","","","","","","","",""
"null","","html-keyboard-response","277","1078720","0.0-206.0","3BDCF01OGYGL8I2IVG1AF4BH8TYLYR","A222GZB608T1B8","33Q5P9PUSP8QOKKNNN5S19YACNVCZX","","","null","","","","","","","",""
"1483.2000000178814","","image-keyboard-response","278","1080209","0.0-207.0","3BDCF01OGYGL8I2IVG1AF4BH8TYLYR","A222GZB608T1B8","33Q5P9PUSP8QOKKNNN5S19YACNVCZX","","img/set1/S4.jpg","74","4","random","74","true","random,structured_normal,structured_incentive","1,2,2,3","",""
"null","","html-keyboard-response","279","1080561","0.0-208.0","3BDCF01OGYGL8I2IVG1AF4BH8TYLYR","A222GZB608T1B8","33Q5P9PUSP8QOKKNNN5S19YACNVCZX","","<img src=""img/set1/S4.jpg"" width=""540"" height = ""360"" style=""border:16px solid orange"">","null","","","","","","","",""
"null","","html-keyboard-response","280","1080563","0.0-209.0","3BDCF01OGYGL8I2IVG1AF4BH8TYLYR","A222GZB608T1B8","33Q5P9PUSP8QOKKNNN5S19YACNVCZX","","","null","","","","","","","",""
"1288.2000000178814","","image-keyboard-response","281","1081853","0.0-210.0","3BDCF01OGYGL8I2IVG1AF4BH8TYLYR","A222GZB608T1B8","33Q5P9PUSP8QOKKNNN5S19YACNVCZX","","img/set1/S1.jpg","83","1","random","83","true","random,structured_normal,structured_incentive","1,2,2,3","",""
"null","","html-keyboard-response","282","1082210","0.0-211.0","3BDCF01OGYGL8I2IVG1AF4BH8TYLYR","A222GZB608T1B8","33Q5P9PUSP8QOKKNNN5S19YACNVCZX","","<img src=""img/set1/S1.jpg"" width=""540"" height = ""360"" style=""border:16px solid orange"">","null","","","","","","","",""
"null","","html-keyboard-response","283","1082213","0.0-212.0","3BDCF01OGYGL8I2IVG1AF4BH8TYLYR","A222GZB608T1B8","33Q5P9PUSP8QOKKNNN5S19YACNVCZX","","","null","","","","","","","",""
"1528.1000000238419","","image-keyboard-response","284","1083742","0.0-213.0","3BDCF01OGYGL8I2IVG1AF4BH8TYLYR","A222GZB608T1B8","33Q5P9PUSP8QOKKNNN5S19YACNVCZX","","img/set1/S1.jpg","83","1","random","83","true","random,structured_normal,structured_incentive","1,2,2,3","",""
"null","","html-keyboard-response","285","1084100","0.0-214.0","3BDCF01OGYGL8I2IVG1AF4BH8TYLYR","A222GZB608T1B8","33Q5P9PUSP8QOKKNNN5S19YACNVCZX","","<img src=""img/set1/S1.jpg"" width=""540"" height = ""360"" style=""border:16px solid orange"">","null","","","","","","","",""
"null","","html-keyboard-response","286","1084102","0.0-215.0","3BDCF01OGYGL8I2IVG1AF4BH8TYLYR","A222GZB608T1B8","33Q5P9PUSP8QOKKNNN5S19YACNVCZX","","","null","","","","","","","",""
"1159.9000000059605","","image-keyboard-response","287","1085263","0.0-216.0","3BDCF01OGYGL8I2IVG1AF4BH8TYLYR","A222GZB608T1B8","33Q5P9PUSP8QOKKNNN5S19YACNVCZX","","img/set1/S4.jpg","74","4","random","74","true","random,structured_normal,structured_incentive","1,2,2,3","",""
"null","","html-keyboard-response","288","1085621","0.0-217.0","3BDCF01OGYGL8I2IVG1AF4BH8TYLYR","A222GZB608T1B8","33Q5P9PUSP8QOKKNNN5S19YACNVCZX","","<img src=""img/set1/S4.jpg"" width=""540"" height = ""360"" style=""border:16px solid orange"">","null","","","","","","","",""
"null","","html-keyboard-response","289","1085623","0.0-218.0","3BDCF01OGYGL8I2IVG1AF4BH8TYLYR","A222GZB608T1B8","33Q5P9PUSP8QOKKNNN5S19YACNVCZX","","","null","","","","","","","",""
"939.0999999940395","","image-keyboard-response","290","1086564","0.0-219.0","3BDCF01OGYGL8I2IVG1AF4BH8TYLYR","A222GZB608T1B8","33Q5P9PUSP8QOKKNNN5S19YACNVCZX","","img/set1/S4.jpg","74","4","random","74","true","random,structured_normal,structured_incentive","1,2,2,3","",""
"null","","html-keyboard-response","291","1086923","0.0-220.0","3BDCF01OGYGL8I2IVG1AF4BH8TYLYR","A222GZB608T1B8","33Q5P9PUSP8QOKKNNN5S19YACNVCZX","","<img src=""img/set1/S4.jpg"" width=""540"" height = ""360"" style=""border:16px solid orange"">","null","","","","","","","",""
"null","","html-keyboard-response","292","1086927","0.0-221.0","3BDCF01OGYGL8I2IVG1AF4BH8TYLYR","A222GZB608T1B8","33Q5P9PUSP8QOKKNNN5S19YACNVCZX","","","null","","","","","","","",""
"959.0999999940395","","image-keyboard-response","293","1087888","0.0-222.0","3BDCF01OGYGL8I2IVG1AF4BH8TYLYR","A222GZB608T1B8","33Q5P9PUSP8QOKKNNN5S19YACNVCZX","","img/set1/S4.jpg","74","4","random","74","true","random,structured_normal,structured_incentive","1,2,2,3","",""
"null","","html-keyboard-response","294","1088240","0.0-223.0","3BDCF01OGYGL8I2IVG1AF4BH8TYLYR","A222GZB608T1B8","33Q5P9PUSP8QOKKNNN5S19YACNVCZX","","<img src=""img/set1/S4.jpg"" width=""540"" height = ""360"" style=""border:16px solid orange"">","null","","","","","","","",""
"null","","html-keyboard-response","295","1088242","0.0-224.0","3BDCF01OGYGL8I2IVG1AF4BH8TYLYR","A222GZB608T1B8","33Q5P9PUSP8QOKKNNN5S19YACNVCZX","","","null","","","","","","","",""
"1188.699999988079","","image-keyboard-response","296","1089432","0.0-225.0","3BDCF01OGYGL8I2IVG1AF4BH8TYLYR","A222GZB608T1B8","33Q5P9PUSP8QOKKNNN5S19YACNVCZX","","img/set1/S3.jpg","68","3","random","72","false","random,structured_normal,structured_incentive","1,2,2,3","",""
"null","","html-keyboard-response","297","1089785","0.0-226.0","3BDCF01OGYGL8I2IVG1AF4BH8TYLYR","A222GZB608T1B8","33Q5P9PUSP8QOKKNNN5S19YACNVCZX","","<img src=""img/set1/S3.jpg"" width=""540"" height = ""360"">","null","","","","","","","",""
"null","","html-keyboard-response","298","1089787","0.0-227.0","3BDCF01OGYGL8I2IVG1AF4BH8TYLYR","A222GZB608T1B8","33Q5P9PUSP8QOKKNNN5S19YACNVCZX","","","null","","","","","","","",""
"1069.0999999940395","","image-keyboard-response","299","1090858","0.0-228.0","3BDCF01OGYGL8I2IVG1AF4BH8TYLYR","A222GZB608T1B8","33Q5P9PUSP8QOKKNNN5S19YACNVCZX","","img/set1/S1.jpg","83","1","random","83","true","random,structured_normal,structured_incentive","1,2,2,3","",""
"null","","html-keyboard-response","300","1091213","0.0-229.0","3BDCF01OGYGL8I2IVG1AF4BH8TYLYR","A222GZB608T1B8","33Q5P9PUSP8QOKKNNN5S19YACNVCZX","","<img src=""img/set1/S1.jpg"" width=""540"" height = ""360"" style=""border:16px solid orange"">","null","","","","","","","",""
"null","","html-keyboard-response","301","1091215","0.0-230.0","3BDCF01OGYGL8I2IVG1AF4BH8TYLYR","A222GZB608T1B8","33Q5P9PUSP8QOKKNNN5S19YACNVCZX","","","null","","","","","","","",""
"1092.0999999940395","","image-keyboard-response","302","1092308","0.0-231.0","3BDCF01OGYGL8I2IVG1AF4BH8TYLYR","A222GZB608T1B8","33Q5P9PUSP8QOKKNNN5S19YACNVCZX","","img/set1/S4.jpg","74","4","random","74","true","random,structured_normal,structured_incentive","1,2,2,3","",""
"null","","html-keyboard-response","303","1092668","0.0-232.0","3BDCF01OGYGL8I2IVG1AF4BH8TYLYR","A222GZB608T1B8","33Q5P9PUSP8QOKKNNN5S19YACNVCZX","","<img src=""img/set1/S4.jpg"" width=""540"" height = ""360"" style=""border:16px solid orange"">","null","","","","","","","",""
"null","","html-keyboard-response","304","1092670","0.0-233.0","3BDCF01OGYGL8I2IVG1AF4BH8TYLYR","A222GZB608T1B8","33Q5P9PUSP8QOKKNNN5S19YACNVCZX","","","null","","","","","","","",""
"1129.5","","image-keyboard-response","305","1093801","0.0-234.0","3BDCF01OGYGL8I2IVG1AF4BH8TYLYR","A222GZB608T1B8","33Q5P9PUSP8QOKKNNN5S19YACNVCZX","","img/set1/S3.jpg","74","3","random","72","false","random,structured_normal,structured_incentive","1,2,2,3","",""
"null","","html-keyboard-response","306","1094154","0.0-235.0","3BDCF01OGYGL8I2IVG1AF4BH8TYLYR","A222GZB608T1B8","33Q5P9PUSP8QOKKNNN5S19YACNVCZX","","<img src=""img/set1/S3.jpg"" width=""540"" height = ""360"">","null","","","","","","","",""
"null","","html-keyboard-response","307","1094158","0.0-236.0","3BDCF01OGYGL8I2IVG1AF4BH8TYLYR","A222GZB608T1B8","33Q5P9PUSP8QOKKNNN5S19YACNVCZX","","","null","","","","","","","",""
"1189.0999999940395","","image-keyboard-response","308","1095348","0.0-237.0","3BDCF01OGYGL8I2IVG1AF4BH8TYLYR","A222GZB608T1B8","33Q5P9PUSP8QOKKNNN5S19YACNVCZX","","img/set1/S3.jpg","83","3","random","72","false","random,structured_normal,structured_incentive","1,2,2,3","",""
"null","","html-keyboard-response","309","1095702","0.0-238.0","3BDCF01OGYGL8I2IVG1AF4BH8TYLYR","A222GZB608T1B8","33Q5P9PUSP8QOKKNNN5S19YACNVCZX","","<img src=""img/set1/S3.jpg"" width=""540"" height = ""360"">","null","","","","","","","",""
"null","","html-keyboard-response","310","1095704","0.0-239.0","3BDCF01OGYGL8I2IVG1AF4BH8TYLYR","A222GZB608T1B8","33Q5P9PUSP8QOKKNNN5S19YACNVCZX","","","null","","","","","","","",""
"1583.7000000178814","","image-keyboard-response","311","1097289","0.0-240.0","3BDCF01OGYGL8I2IVG1AF4BH8TYLYR","A222GZB608T1B8","33Q5P9PUSP8QOKKNNN5S19YACNVCZX","","img/set1/S2.jpg","72","2","random","68","false","random,structured_normal,structured_incentive","1,2,2,3","",""
"null","","html-keyboard-response","312","1097655","0.0-241.0","3BDCF01OGYGL8I2IVG1AF4BH8TYLYR","A222GZB608T1B8","33Q5P9PUSP8QOKKNNN5S19YACNVCZX","","<img src=""img/set1/S2.jpg"" width=""540"" height = ""360"">","null","","","","","","","",""
"null","","html-keyboard-response","313","1097658","0.0-242.0","3BDCF01OGYGL8I2IVG1AF4BH8TYLYR","A222GZB608T1B8","33Q5P9PUSP8QOKKNNN5S19YACNVCZX","","","null","","","","","","","",""
"1260","","image-keyboard-response","314","1098918","0.0-243.0","3BDCF01OGYGL8I2IVG1AF4BH8TYLYR","A222GZB608T1B8","33Q5P9PUSP8QOKKNNN5S19YACNVCZX","","img/set1/S3.jpg","74","3","random","72","false","random,structured_normal,structured_incentive","1,2,2,3","",""
"null","","html-keyboard-response","315","1099277","0.0-244.0","3BDCF01OGYGL8I2IVG1AF4BH8TYLYR","A222GZB608T1B8","33Q5P9PUSP8QOKKNNN5S19YACNVCZX","","<img src=""img/set1/S3.jpg"" width=""540"" height = ""360"">","null","","","","","","","",""
"null","","html-keyboard-response","316","1099279","0.0-245.0","3BDCF01OGYGL8I2IVG1AF4BH8TYLYR","A222GZB608T1B8","33Q5P9PUSP8QOKKNNN5S19YACNVCZX","","","null","","","","","","","",""
"1477.0999999940395","","image-keyboard-response","317","1100758","0.0-246.0","3BDCF01OGYGL8I2IVG1AF4BH8TYLYR","A222GZB608T1B8","33Q5P9PUSP8QOKKNNN5S19YACNVCZX","","img/set1/S2.jpg","68","2","random","68","true","random,structured_normal,structured_incentive","1,2,2,3","",""
"null","","html-keyboard-response","318","1101116","0.0-247.0","3BDCF01OGYGL8I2IVG1AF4BH8TYLYR","A222GZB608T1B8","33Q5P9PUSP8QOKKNNN5S19YACNVCZX","","<img src=""img/set1/S2.jpg"" width=""540"" height = ""360"" style=""border:16px solid orange"">","null","","","","","","","",""
"null","","html-keyboard-response","319","1101119","0.0-248.0","3BDCF01OGYGL8I2IVG1AF4BH8TYLYR","A222GZB608T1B8","33Q5P9PUSP8QOKKNNN5S19YACNVCZX","","","null","","","","","","","",""
"1547.300000011921","","image-keyboard-response","320","1102667","0.0-249.0","3BDCF01OGYGL8I2IVG1AF4BH8TYLYR","A222GZB608T1B8","33Q5P9PUSP8QOKKNNN5S19YACNVCZX","","img/set1/S2.jpg","68","2","random","68","true","random,structured_normal,structured_incentive","1,2,2,3","",""
"null","","html-keyboard-response","321","1103030","0.0-250.0","3BDCF01OGYGL8I2IVG1AF4BH8TYLYR","A222GZB608T1B8","33Q5P9PUSP8QOKKNNN5S19YACNVCZX","","<img src=""img/set1/S2.jpg"" width=""540"" height = ""360"" style=""border:16px solid orange"">","null","","","","","","","",""
"null","","html-keyboard-response","322","1103032","0.0-251.0","3BDCF01OGYGL8I2IVG1AF4BH8TYLYR","A222GZB608T1B8","33Q5P9PUSP8QOKKNNN5S19YACNVCZX","","","null","","","","","","","",""
"1207.5","","image-keyboard-response","323","1104242","0.0-252.0","3BDCF01OGYGL8I2IVG1AF4BH8TYLYR","A222GZB608T1B8","33Q5P9PUSP8QOKKNNN5S19YACNVCZX","","img/set1/S3.jpg","74","3","random","72","false","random,structured_normal,structured_incentive","1,2,2,3","",""
"null","","html-keyboard-response","324","1104603","0.0-253.0","3BDCF01OGYGL8I2IVG1AF4BH8TYLYR","A222GZB608T1B8","33Q5P9PUSP8QOKKNNN5S19YACNVCZX","","<img src=""img/set1/S3.jpg"" width=""540"" height = ""360"">","null","","","","","","","",""
"null","","html-keyboard-response","325","1104605","0.0-254.0","3BDCF01OGYGL8I2IVG1AF4BH8TYLYR","A222GZB608T1B8","33Q5P9PUSP8QOKKNNN5S19YACNVCZX","","","null","","","","","","","",""
"1621.2999999821186","","image-keyboard-response","326","1106228","0.0-255.0","3BDCF01OGYGL8I2IVG1AF4BH8TYLYR","A222GZB608T1B8","33Q5P9PUSP8QOKKNNN5S19YACNVCZX","","img/set1/S4.jpg","83","4","random","74","false","random,structured_normal,structured_incentive","1,2,2,3","",""
"null","","html-keyboard-response","327","1106589","0.0-256.0","3BDCF01OGYGL8I2IVG1AF4BH8TYLYR","A222GZB608T1B8","33Q5P9PUSP8QOKKNNN5S19YACNVCZX","","<img src=""img/set1/S4.jpg"" width=""540"" height = ""360"">","null","","","","","","","",""
"null","","html-keyboard-response","328","1106591","0.0-257.0","3BDCF01OGYGL8I2IVG1AF4BH8TYLYR","A222GZB608T1B8","33Q5P9PUSP8QOKKNNN5S19YACNVCZX","","","null","","","","","","","",""
"1155.7999999821186","","image-keyboard-response","329","1107748","0.0-258.0","3BDCF01OGYGL8I2IVG1AF4BH8TYLYR","A222GZB608T1B8","33Q5P9PUSP8QOKKNNN5S19YACNVCZX","","img/set1/S1.jpg","83","1","random","83","true","random,structured_normal,structured_incentive","1,2,2,3","",""
"null","","html-keyboard-response","330","1108105","0.0-259.0","3BDCF01OGYGL8I2IVG1AF4BH8TYLYR","A222GZB608T1B8","33Q5P9PUSP8QOKKNNN5S19YACNVCZX","","<img src=""img/set1/S1.jpg"" width=""540"" height = ""360"" style=""border:16px solid orange"">","null","","","","","","","",""
"null","","html-keyboard-response","331","1108107","0.0-260.0","3BDCF01OGYGL8I2IVG1AF4BH8TYLYR","A222GZB608T1B8","33Q5P9PUSP8QOKKNNN5S19YACNVCZX","","","null","","","","","","","",""
"1609.9000000059605","","image-keyboard-response","332","1109719","0.0-261.0","3BDCF01OGYGL8I2IVG1AF4BH8TYLYR","A222GZB608T1B8","33Q5P9PUSP8QOKKNNN5S19YACNVCZX","","img/set1/S3.jpg","74","3","random","72","false","random,structured_normal,structured_incentive","1,2,2,3","",""
"null","","html-keyboard-response","333","1110080","0.0-262.0","3BDCF01OGYGL8I2IVG1AF4BH8TYLYR","A222GZB608T1B8","33Q5P9PUSP8QOKKNNN5S19YACNVCZX","","<img src=""img/set1/S3.jpg"" width=""540"" height = ""360"">","null","","","","","","","",""
"null","","html-keyboard-response","334","1110082","0.0-263.0","3BDCF01OGYGL8I2IVG1AF4BH8TYLYR","A222GZB608T1B8","33Q5P9PUSP8QOKKNNN5S19YACNVCZX","","","null","","","","","","","",""
"1154.5999999940395","","image-keyboard-response","335","1111238","0.0-264.0","3BDCF01OGYGL8I2IVG1AF4BH8TYLYR","A222GZB608T1B8","33Q5P9PUSP8QOKKNNN5S19YACNVCZX","","img/set1/S1.jpg","83","1","random","83","true","random,structured_normal,structured_incentive","1,2,2,3","",""
"null","","html-keyboard-response","336","1111592","0.0-265.0","3BDCF01OGYGL8I2IVG1AF4BH8TYLYR","A222GZB608T1B8","33Q5P9PUSP8QOKKNNN5S19YACNVCZX","","<img src=""img/set1/S1.jpg"" width=""540"" height = ""360"" style=""border:16px solid orange"">","null","","","","","","","",""
"null","","html-keyboard-response","337","1111594","0.0-266.0","3BDCF01OGYGL8I2IVG1AF4BH8TYLYR","A222GZB608T1B8","33Q5P9PUSP8QOKKNNN5S19YACNVCZX","","","null","","","","","","","",""
"1542.2999999821186","","image-keyboard-response","338","1113138","0.0-267.0","3BDCF01OGYGL8I2IVG1AF4BH8TYLYR","A222GZB608T1B8","33Q5P9PUSP8QOKKNNN5S19YACNVCZX","","img/set1/S4.jpg","68","4","random","74","false","random,structured_normal,structured_incentive","1,2,2,3","",""
"null","","html-keyboard-response","339","1113503","0.0-268.0","3BDCF01OGYGL8I2IVG1AF4BH8TYLYR","A222GZB608T1B8","33Q5P9PUSP8QOKKNNN5S19YACNVCZX","","<img src=""img/set1/S4.jpg"" width=""540"" height = ""360"">","null","","","","","","","",""
"null","","html-keyboard-response","340","1113505","0.0-269.0","3BDCF01OGYGL8I2IVG1AF4BH8TYLYR","A222GZB608T1B8","33Q5P9PUSP8QOKKNNN5S19YACNVCZX","","","null","","","","","","","",""
"1866.2000000178814","","image-keyboard-response","341","1115373","0.0-270.0","3BDCF01OGYGL8I2IVG1AF4BH8TYLYR","A222GZB608T1B8","33Q5P9PUSP8QOKKNNN5S19YACNVCZX","","img/set1/S2.jpg","72","2","random","68","false","random,structured_normal,structured_incentive","1,2,2,3","",""
"null","","html-keyboard-response","342","1115729","0.0-271.0","3BDCF01OGYGL8I2IVG1AF4BH8TYLYR","A222GZB608T1B8","33Q5P9PUSP8QOKKNNN5S19YACNVCZX","","<img src=""img/set1/S2.jpg"" width=""540"" height = ""360"">","null","","","","","","","",""
"null","","html-keyboard-response","343","1115732","0.0-272.0","3BDCF01OGYGL8I2IVG1AF4BH8TYLYR","A222GZB608T1B8","33Q5P9PUSP8QOKKNNN5S19YACNVCZX","","","null","","","","","","","",""
"1875.3999999761581","","image-keyboard-response","344","1117608","0.0-273.0","3BDCF01OGYGL8I2IVG1AF4BH8TYLYR","A222GZB608T1B8","33Q5P9PUSP8QOKKNNN5S19YACNVCZX","","img/set1/S4.jpg","74","4","random","74","true","random,structured_normal,structured_incentive","1,2,2,3","",""
"null","","html-keyboard-response","345","1117960","0.0-274.0","3BDCF01OGYGL8I2IVG1AF4BH8TYLYR","A222GZB608T1B8","33Q5P9PUSP8QOKKNNN5S19YACNVCZX","","<img src=""img/set1/S4.jpg"" width=""540"" height = ""360"" style=""border:16px solid orange"">","null","","","","","","","",""
"null","","html-keyboard-response","346","1117962","0.0-275.0","3BDCF01OGYGL8I2IVG1AF4BH8TYLYR","A222GZB608T1B8","33Q5P9PUSP8QOKKNNN5S19YACNVCZX","","","null","","","","","","","",""
"1498.4000000059605","","image-keyboard-response","347","1119462","0.0-276.0","3BDCF01OGYGL8I2IVG1AF4BH8TYLYR","A222GZB608T1B8","33Q5P9PUSP8QOKKNNN5S19YACNVCZX","","img/set1/S2.jpg","68","2","random","68","true","random,structured_normal,structured_incentive","1,2,2,3","",""
"null","","html-keyboard-response","348","1119823","0.0-277.0","3BDCF01OGYGL8I2IVG1AF4BH8TYLYR","A222GZB608T1B8","33Q5P9PUSP8QOKKNNN5S19YACNVCZX","","<img src=""img/set1/S2.jpg"" width=""540"" height = ""360"" style=""border:16px solid orange"">","null","","","","","","","",""
"null","","html-keyboard-response","349","1119825","0.0-278.0","3BDCF01OGYGL8I2IVG1AF4BH8TYLYR","A222GZB608T1B8","33Q5P9PUSP8QOKKNNN5S19YACNVCZX","","","null","","","","","","","",""
"1351.7999999821186","","image-keyboard-response","350","1121179","0.0-279.0","3BDCF01OGYGL8I2IVG1AF4BH8TYLYR","A222GZB608T1B8","33Q5P9PUSP8QOKKNNN5S19YACNVCZX","","img/set1/S4.jpg","74","4","random","74","true","random,structured_normal,structured_incentive","1,2,2,3","",""
"null","","html-keyboard-response","351","1121543","0.0-280.0","3BDCF01OGYGL8I2IVG1AF4BH8TYLYR","A222GZB608T1B8","33Q5P9PUSP8QOKKNNN5S19YACNVCZX","","<img src=""img/set1/S4.jpg"" width=""540"" height = ""360"" style=""border:16px solid orange"">","null","","","","","","","",""
"null","","html-keyboard-response","352","1121546","0.0-281.0","3BDCF01OGYGL8I2IVG1AF4BH8TYLYR","A222GZB608T1B8","33Q5P9PUSP8QOKKNNN5S19YACNVCZX","","","null","","","","","","","",""
"1121.8999999761581","","image-keyboard-response","353","1122670","0.0-282.0","3BDCF01OGYGL8I2IVG1AF4BH8TYLYR","A222GZB608T1B8","33Q5P9PUSP8QOKKNNN5S19YACNVCZX","","img/set1/S1.jpg","83","1","random","83","true","random,structured_normal,structured_incentive","1,2,2,3","",""
"null","","html-keyboard-response","354","1123025","0.0-283.0","3BDCF01OGYGL8I2IVG1AF4BH8TYLYR","A222GZB608T1B8","33Q5P9PUSP8QOKKNNN5S19YACNVCZX","","<img src=""img/set1/S1.jpg"" width=""540"" height = ""360"" style=""border:16px solid orange"">","null","","","","","","","",""
"null","","html-keyboard-response","355","1123028","0.0-284.0","3BDCF01OGYGL8I2IVG1AF4BH8TYLYR","A222GZB608T1B8","33Q5P9PUSP8QOKKNNN5S19YACNVCZX","","","null","","","","","","","",""
"1498.800000011921","","image-keyboard-response","356","1124528","0.0-285.0","3BDCF01OGYGL8I2IVG1AF4BH8TYLYR","A222GZB608T1B8","33Q5P9PUSP8QOKKNNN5S19YACNVCZX","","img/set1/S4.jpg","74","4","random","74","true","random,structured_normal,structured_incentive","1,2,2,3","",""
"null","","html-keyboard-response","357","1124882","0.0-286.0","3BDCF01OGYGL8I2IVG1AF4BH8TYLYR","A222GZB608T1B8","33Q5P9PUSP8QOKKNNN5S19YACNVCZX","","<img src=""img/set1/S4.jpg"" width=""540"" height = ""360"" style=""border:16px solid orange"">","null","","","","","","","",""
"null","","html-keyboard-response","358","1124884","0.0-287.0","3BDCF01OGYGL8I2IVG1AF4BH8TYLYR","A222GZB608T1B8","33Q5P9PUSP8QOKKNNN5S19YACNVCZX","","","null","","","","","","","",""
"1135.800000011921","","image-keyboard-response","359","1126022","0.0-288.0","3BDCF01OGYGL8I2IVG1AF4BH8TYLYR","A222GZB608T1B8","33Q5P9PUSP8QOKKNNN5S19YACNVCZX","","img/set1/S3.jpg","74","3","random","72","false","random,structured_normal,structured_incentive","1,2,2,3","",""
"null","","html-keyboard-response","360","1126374","0.0-289.0","3BDCF01OGYGL8I2IVG1AF4BH8TYLYR","A222GZB608T1B8","33Q5P9PUSP8QOKKNNN5S19YACNVCZX","","<img src=""img/set1/S3.jpg"" width=""540"" height = ""360"">","null","","","","","","","",""
"null","","html-keyboard-response","361","1126376","0.0-290.0","3BDCF01OGYGL8I2IVG1AF4BH8TYLYR","A222GZB608T1B8","33Q5P9PUSP8QOKKNNN5S19YACNVCZX","","","null","","","","","","","",""
"1199.800000011921","","image-keyboard-response","362","1127578","0.0-291.0","3BDCF01OGYGL8I2IVG1AF4BH8TYLYR","A222GZB608T1B8","33Q5P9PUSP8QOKKNNN5S19YACNVCZX","","img/set1/S1.jpg","83","1","random","83","true","random,structured_normal,structured_incentive","1,2,2,3","",""
"null","","html-keyboard-response","363","1127944","0.0-292.0","3BDCF01OGYGL8I2IVG1AF4BH8TYLYR","A222GZB608T1B8","33Q5P9PUSP8QOKKNNN5S19YACNVCZX","","<img src=""img/set1/S1.jpg"" width=""540"" height = ""360"" style=""border:16px solid orange"">","null","","","","","","","",""
"null","","html-keyboard-response","364","1127949","0.0-293.0","3BDCF01OGYGL8I2IVG1AF4BH8TYLYR","A222GZB608T1B8","33Q5P9PUSP8QOKKNNN5S19YACNVCZX","","","null","","","","","","","",""
"1128.199999988079","","image-keyboard-response","365","1129078","0.0-294.0","3BDCF01OGYGL8I2IVG1AF4BH8TYLYR","A222GZB608T1B8","33Q5P9PUSP8QOKKNNN5S19YACNVCZX","","img/set1/S1.jpg","83","1","random","83","true","random,structured_normal,structured_incentive","1,2,2,3","",""
"null","","html-keyboard-response","366","1129429","0.0-295.0","3BDCF01OGYGL8I2IVG1AF4BH8TYLYR","A222GZB608T1B8","33Q5P9PUSP8QOKKNNN5S19YACNVCZX","","<img src=""img/set1/S1.jpg"" width=""540"" height = ""360"" style=""border:16px solid orange"">","null","","","","","","","",""
"null","","html-keyboard-response","367","1129431","0.0-296.0","3BDCF01OGYGL8I2IVG1AF4BH8TYLYR","A222GZB608T1B8","33Q5P9PUSP8QOKKNNN5S19YACNVCZX","","","null","","","","","","","",""
"1045","","image-keyboard-response","368","1130478","0.0-297.0","3BDCF01OGYGL8I2IVG1AF4BH8TYLYR","A222GZB608T1B8","33Q5P9PUSP8QOKKNNN5S19YACNVCZX","","img/set1/S1.jpg","83","1","random","83","true","random,structured_normal,structured_incentive","1,2,2,3","",""
"null","","html-keyboard-response","369","1130837","0.0-298.0","3BDCF01OGYGL8I2IVG1AF4BH8TYLYR","A222GZB608T1B8","33Q5P9PUSP8QOKKNNN5S19YACNVCZX","","<img src=""img/set1/S1.jpg"" width=""540"" height = ""360"" style=""border:16px solid orange"">","null","","","","","","","",""
"null","","html-keyboard-response","370","1130840","0.0-299.0","3BDCF01OGYGL8I2IVG1AF4BH8TYLYR","A222GZB608T1B8","33Q5P9PUSP8QOKKNNN5S19YACNVCZX","","","null","","","","","","","",""
"1367.699999988079","","image-keyboard-response","371","1132209","0.0-300.0","3BDCF01OGYGL8I2IVG1AF4BH8TYLYR","A222GZB608T1B8","33Q5P9PUSP8QOKKNNN5S19YACNVCZX","","img/set1/S4.jpg","68","4","random","74","false","random,structured_normal,structured_incentive","1,2,2,3","",""
"null","","html-keyboard-response","372","1132566","0.0-301.0","3BDCF01OGYGL8I2IVG1AF4BH8TYLYR","A222GZB608T1B8","33Q5P9PUSP8QOKKNNN5S19YACNVCZX","","<img src=""img/set1/S4.jpg"" width=""540"" height = ""360"">","null","","","","","","","",""
"null","","html-keyboard-response","373","1132570","0.0-302.0","3BDCF01OGYGL8I2IVG1AF4BH8TYLYR","A222GZB608T1B8","33Q5P9PUSP8QOKKNNN5S19YACNVCZX","","","null","","","","","","","",""
"1100.199999988079","","image-keyboard-response","374","1133671","0.0-303.0","3BDCF01OGYGL8I2IVG1AF4BH8TYLYR","A222GZB608T1B8","33Q5P9PUSP8QOKKNNN5S19YACNVCZX","","img/set1/S1.jpg","83","1","random","83","true","random,structured_normal,structured_incentive","1,2,2,3","",""
"null","","html-keyboard-response","375","1134036","0.0-304.0","3BDCF01OGYGL8I2IVG1AF4BH8TYLYR","A222GZB608T1B8","33Q5P9PUSP8QOKKNNN5S19YACNVCZX","","<img src=""img/set1/S1.jpg"" width=""540"" height = ""360"" style=""border:16px solid orange"">","null","","","","","","","",""
"null","","html-keyboard-response","376","1134039","0.0-305.0","3BDCF01OGYGL8I2IVG1AF4BH8TYLYR","A222GZB608T1B8","33Q5P9PUSP8QOKKNNN5S19YACNVCZX","","","null","","","","","","","",""
"1528.8999999761581","","image-keyboard-response","377","1135569","0.0-306.0","3BDCF01OGYGL8I2IVG1AF4BH8TYLYR","A222GZB608T1B8","33Q5P9PUSP8QOKKNNN5S19YACNVCZX","","img/set1/S2.jpg","74","2","random","68","false","random,structured_normal,structured_incentive","1,2,2,3","",""
"null","","html-keyboard-response","378","1135929","0.0-307.0","3BDCF01OGYGL8I2IVG1AF4BH8TYLYR","A222GZB608T1B8","33Q5P9PUSP8QOKKNNN5S19YACNVCZX","","<img src=""img/set1/S2.jpg"" width=""540"" height = ""360"">","null","","","","","","","",""
"null","","html-keyboard-response","379","1135932","0.0-308.0","3BDCF01OGYGL8I2IVG1AF4BH8TYLYR","A222GZB608T1B8","33Q5P9PUSP8QOKKNNN5S19YACNVCZX","","","null","","","","","","","",""
"929.0999999940395","","image-keyboard-response","380","1136863","0.0-309.0","3BDCF01OGYGL8I2IVG1AF4BH8TYLYR","A222GZB608T1B8","33Q5P9PUSP8QOKKNNN5S19YACNVCZX","","img/set1/S3.jpg","83","3","random","72","false","random,structured_normal,structured_incentive","1,2,2,3","",""
"null","","html-keyboard-response","381","1137227","0.0-310.0","3BDCF01OGYGL8I2IVG1AF4BH8TYLYR","A222GZB608T1B8","33Q5P9PUSP8QOKKNNN5S19YACNVCZX","","<img src=""img/set1/S3.jpg"" width=""540"" height = ""360"">","null","","","","","","","",""
"null","","html-keyboard-response","382","1137230","0.0-311.0","3BDCF01OGYGL8I2IVG1AF4BH8TYLYR","A222GZB608T1B8","33Q5P9PUSP8QOKKNNN5S19YACNVCZX","","","null","","","","","","","",""
"1306.2000000178814","","image-keyboard-response","383","1138537","0.0-312.0","3BDCF01OGYGL8I2IVG1AF4BH8TYLYR","A222GZB608T1B8","33Q5P9PUSP8QOKKNNN5S19YACNVCZX","","img/set1/S3.jpg","74","3","random","72","false","random,structured_normal,structured_incentive","1,2,2,3","",""
"null","","html-keyboard-response","384","1138893","0.0-313.0","3BDCF01OGYGL8I2IVG1AF4BH8TYLYR","A222GZB608T1B8","33Q5P9PUSP8QOKKNNN5S19YACNVCZX","","<img src=""img/set1/S3.jpg"" width=""540"" height = ""360"">","null","","","","","","","",""
"null","","html-keyboard-response","385","1138895","0.0-314.0","3BDCF01OGYGL8I2IVG1AF4BH8TYLYR","A222GZB608T1B8","33Q5P9PUSP8QOKKNNN5S19YACNVCZX","","","null","","","","","","","",""
"901.0999999940395","","image-keyboard-response","386","1139797","0.0-315.0","3BDCF01OGYGL8I2IVG1AF4BH8TYLYR","A222GZB608T1B8","33Q5P9PUSP8QOKKNNN5S19YACNVCZX","","img/set1/S3.jpg","72","3","random","72","true","random,structured_normal,structured_incentive","1,2,2,3","",""
"null","","html-keyboard-response","387","1140150","0.0-316.0","3BDCF01OGYGL8I2IVG1AF4BH8TYLYR","A222GZB608T1B8","33Q5P9PUSP8QOKKNNN5S19YACNVCZX","","<img src=""img/set1/S3.jpg"" width=""540"" height = ""360"" style=""border:16px solid orange"">","null","","","","","","","",""
"null","","html-keyboard-response","388","1140153","0.0-317.0","3BDCF01OGYGL8I2IVG1AF4BH8TYLYR","A222GZB608T1B8","33Q5P9PUSP8QOKKNNN5S19YACNVCZX","","","null","","","","","","","",""
"1183.199999988079","","image-keyboard-response","389","1141338","0.0-318.0","3BDCF01OGYGL8I2IVG1AF4BH8TYLYR","A222GZB608T1B8","33Q5P9PUSP8QOKKNNN5S19YACNVCZX","","img/set1/S1.jpg","83","1","random","83","true","random,structured_normal,structured_incentive","1,2,2,3","",""
"null","","html-keyboard-response","390","1141706","0.0-319.0","3BDCF01OGYGL8I2IVG1AF4BH8TYLYR","A222GZB608T1B8","33Q5P9PUSP8QOKKNNN5S19YACNVCZX","","<img src=""img/set1/S1.jpg"" width=""540"" height = ""360"" style=""border:16px solid orange"">","null","","","","","","","",""
"null","","html-keyboard-response","391","1141709","0.0-320.0","3BDCF01OGYGL8I2IVG1AF4BH8TYLYR","A222GZB608T1B8","33Q5P9PUSP8QOKKNNN5S19YACNVCZX","","","null","","","","","","","",""
"1096.9000000059605","","image-keyboard-response","392","1142808","0.0-321.0","3BDCF01OGYGL8I2IVG1AF4BH8TYLYR","A222GZB608T1B8","33Q5P9PUSP8QOKKNNN5S19YACNVCZX","","img/set1/S3.jpg","72","3","random","72","true","random,structured_normal,structured_incentive","1,2,2,3","",""
"null","","html-keyboard-response","393","1143164","0.0-322.0","3BDCF01OGYGL8I2IVG1AF4BH8TYLYR","A222GZB608T1B8","33Q5P9PUSP8QOKKNNN5S19YACNVCZX","","<img src=""img/set1/S3.jpg"" width=""540"" height = ""360"" style=""border:16px solid orange"">","null","","","","","","","",""
"null","","html-keyboard-response","394","1143166","0.0-323.0","3BDCF01OGYGL8I2IVG1AF4BH8TYLYR","A222GZB608T1B8","33Q5P9PUSP8QOKKNNN5S19YACNVCZX","","","null","","","","","","","",""
"1030","","image-keyboard-response","395","1144198","0.0-324.0","3BDCF01OGYGL8I2IVG1AF4BH8TYLYR","A222GZB608T1B8","33Q5P9PUSP8QOKKNNN5S19YACNVCZX","","img/set1/S3.jpg","72","3","random","72","true","random,structured_normal,structured_incentive","1,2,2,3","",""
"null","","html-keyboard-response","396","1144565","0.0-325.0","3BDCF01OGYGL8I2IVG1AF4BH8TYLYR","A222GZB608T1B8","33Q5P9PUSP8QOKKNNN5S19YACNVCZX","","<img src=""img/set1/S3.jpg"" width=""540"" height = ""360"" style=""border:16px solid orange"">","null","","","","","","","",""
"null","","html-keyboard-response","397","1144568","0.0-326.0","3BDCF01OGYGL8I2IVG1AF4BH8TYLYR","A222GZB608T1B8","33Q5P9PUSP8QOKKNNN5S19YACNVCZX","","","null","","","","","","","",""
"1198.800000011921","","image-keyboard-response","398","1145768","0.0-327.0","3BDCF01OGYGL8I2IVG1AF4BH8TYLYR","A222GZB608T1B8","33Q5P9PUSP8QOKKNNN5S19YACNVCZX","","img/set1/S1.jpg","83","1","random","83","true","random,structured_normal,structured_incentive","1,2,2,3","",""
"null","","html-keyboard-response","399","1146123","0.0-328.0","3BDCF01OGYGL8I2IVG1AF4BH8TYLYR","A222GZB608T1B8","33Q5P9PUSP8QOKKNNN5S19YACNVCZX","","<img src=""img/set1/S1.jpg"" width=""540"" height = ""360"" style=""border:16px solid orange"">","null","","","","","","","",""
"null","","html-keyboard-response","400","1146125","0.0-329.0","3BDCF01OGYGL8I2IVG1AF4BH8TYLYR","A222GZB608T1B8","33Q5P9PUSP8QOKKNNN5S19YACNVCZX","","","null","","","","","","","",""
"1205","","image-keyboard-response","401","1147332","0.0-330.0","3BDCF01OGYGL8I2IVG1AF4BH8TYLYR","A222GZB608T1B8","33Q5P9PUSP8QOKKNNN5S19YACNVCZX","","img/set1/S3.jpg","72","3","random","72","true","random,structured_normal,structured_incentive","1,2,2,3","",""
"null","","html-keyboard-response","402","1147691","0.0-331.0","3BDCF01OGYGL8I2IVG1AF4BH8TYLYR","A222GZB608T1B8","33Q5P9PUSP8QOKKNNN5S19YACNVCZX","","<img src=""img/set1/S3.jpg"" width=""540"" height = ""360"" style=""border:16px solid orange"">","null","","","","","","","",""
"null","","html-keyboard-response","403","1147695","0.0-332.0","3BDCF01OGYGL8I2IVG1AF4BH8TYLYR","A222GZB608T1B8","33Q5P9PUSP8QOKKNNN5S19YACNVCZX","","","null","","","","","","","",""
"1074.9000000059605","","image-keyboard-response","404","1148771","0.0-333.0","3BDCF01OGYGL8I2IVG1AF4BH8TYLYR","A222GZB608T1B8","33Q5P9PUSP8QOKKNNN5S19YACNVCZX","","img/set1/S2.jpg","68","2","random","68","true","random,structured_normal,structured_incentive","1,2,2,3","",""
"null","","html-keyboard-response","405","1149122","0.0-334.0","3BDCF01OGYGL8I2IVG1AF4BH8TYLYR","A222GZB608T1B8","33Q5P9PUSP8QOKKNNN5S19YACNVCZX","","<img src=""img/set1/S2.jpg"" width=""540"" height = ""360"" style=""border:16px solid orange"">","null","","","","","","","",""
"null","","html-keyboard-response","406","1149124","0.0-335.0","3BDCF01OGYGL8I2IVG1AF4BH8TYLYR","A222GZB608T1B8","33Q5P9PUSP8QOKKNNN5S19YACNVCZX","","","null","","","","","","","",""
"1612.0999999940395","","image-keyboard-response","407","1150738","0.0-336.0","3BDCF01OGYGL8I2IVG1AF4BH8TYLYR","A222GZB608T1B8","33Q5P9PUSP8QOKKNNN5S19YACNVCZX","","img/set1/S4.jpg","74","4","random","74","true","random,structured_normal,structured_incentive","1,2,2,3","",""
"null","","html-keyboard-response","408","1151092","0.0-337.0","3BDCF01OGYGL8I2IVG1AF4BH8TYLYR","A222GZB608T1B8","33Q5P9PUSP8QOKKNNN5S19YACNVCZX","","<img src=""img/set1/S4.jpg"" width=""540"" height = ""360"" style=""border:16px solid orange"">","null","","","","","","","",""
"null","","html-keyboard-response","409","1151095","0.0-338.0","3BDCF01OGYGL8I2IVG1AF4BH8TYLYR","A222GZB608T1B8","33Q5P9PUSP8QOKKNNN5S19YACNVCZX","","","null","","","","","","","",""
"1023.7999999821186","","image-keyboard-response","410","1152120","0.0-339.0","3BDCF01OGYGL8I2IVG1AF4BH8TYLYR","A222GZB608T1B8","33Q5P9PUSP8QOKKNNN5S19YACNVCZX","","img/set1/S3.jpg","83","3","random","72","false","random,structured_normal,structured_incentive","1,2,2,3","",""
"null","","html-keyboard-response","411","1152485","0.0-340.0","3BDCF01OGYGL8I2IVG1AF4BH8TYLYR","A222GZB608T1B8","33Q5P9PUSP8QOKKNNN5S19YACNVCZX","","<img src=""img/set1/S3.jpg"" width=""540"" height = ""360"">","null","","","","","","","",""
"null","","html-keyboard-response","412","1152487","0.0-341.0","3BDCF01OGYGL8I2IVG1AF4BH8TYLYR","A222GZB608T1B8","33Q5P9PUSP8QOKKNNN5S19YACNVCZX","","","null","","","","","","","",""
"1468.699999988079","","image-keyboard-response","413","1153958","0.0-342.0","3BDCF01OGYGL8I2IVG1AF4BH8TYLYR","A222GZB608T1B8","33Q5P9PUSP8QOKKNNN5S19YACNVCZX","","img/set1/S4.jpg","68","4","random","74","false","random,structured_normal,structured_incentive","1,2,2,3","",""
"null","","html-keyboard-response","414","1154311","0.0-343.0","3BDCF01OGYGL8I2IVG1AF4BH8TYLYR","A222GZB608T1B8","33Q5P9PUSP8QOKKNNN5S19YACNVCZX","","<img src=""img/set1/S4.jpg"" width=""540"" height = ""360"">","null","","","","","","","",""
"null","","html-keyboard-response","415","1154314","0.0-344.0","3BDCF01OGYGL8I2IVG1AF4BH8TYLYR","A222GZB608T1B8","33Q5P9PUSP8QOKKNNN5S19YACNVCZX","","","null","","","","","","","",""
"1373.2000000178814","","image-keyboard-response","416","1155689","0.0-345.0","3BDCF01OGYGL8I2IVG1AF4BH8TYLYR","A222GZB608T1B8","33Q5P9PUSP8QOKKNNN5S19YACNVCZX","","img/set1/S4.jpg","68","4","random","74","false","random,structured_normal,structured_incentive","1,2,2,3","",""
"null","","html-keyboard-response","417","1156050","0.0-346.0","3BDCF01OGYGL8I2IVG1AF4BH8TYLYR","A222GZB608T1B8","33Q5P9PUSP8QOKKNNN5S19YACNVCZX","","<img src=""img/set1/S4.jpg"" width=""540"" height = ""360"">","null","","","","","","","",""
"null","","html-keyboard-response","418","1156052","0.0-347.0","3BDCF01OGYGL8I2IVG1AF4BH8TYLYR","A222GZB608T1B8","33Q5P9PUSP8QOKKNNN5S19YACNVCZX","","","null","","","","","","","",""
"1163.800000011921","","image-keyboard-response","419","1157218","0.0-348.0","3BDCF01OGYGL8I2IVG1AF4BH8TYLYR","A222GZB608T1B8","33Q5P9PUSP8QOKKNNN5S19YACNVCZX","","img/set1/S3.jpg","74","3","random","72","false","random,structured_normal,structured_incentive","1,2,2,3","",""
"null","","html-keyboard-response","420","1157575","0.0-349.0","3BDCF01OGYGL8I2IVG1AF4BH8TYLYR","A222GZB608T1B8","33Q5P9PUSP8QOKKNNN5S19YACNVCZX","","<img src=""img/set1/S3.jpg"" width=""540"" height = ""360"">","null","","","","","","","",""
"null","","html-keyboard-response","421","1157578","0.0-350.0","3BDCF01OGYGL8I2IVG1AF4BH8TYLYR","A222GZB608T1B8","33Q5P9PUSP8QOKKNNN5S19YACNVCZX","","","null","","","","","","","",""
