"rt","url","trial_type","trial_index","time_elapsed","internal_node_id","assignmentID","mturkID","hitID","view_history","stimulus","key_press","state","test_part","correct_response","correct","order_block","order_chunk","bonus","responses"
"4609.799999713898","consent.html","external-html","0","4699","0.0-0.0","3IAEQB9FMF6YL1JQ3YLYBUIWOBDWD2","A24LB89P1BPKKF","3DFYDSXB2WMWAZWJRSN67LWQ0PPJUT","","","","","","","","","","",""
"110478.60000038147","","instructions","1","115192","0.0-1.0","3IAEQB9FMF6YL1JQ3YLYBUIWOBDWD2","A24LB89P1BPKKF","3DFYDSXB2WMWAZWJRSN67LWQ0PPJUT","[{""page_index"":0,""viewing_time"":1869.7000002861023},{""page_index"":1,""viewing_time"":4116.400000095367},{""page_index"":2,""viewing_time"":8062.89999961853},{""page_index"":3,""viewing_time"":11505.60000038147},{""page_index"":4,""viewing_time"":5318.199999809265},{""page_index"":5,""viewing_time"":18604.800000190735},{""page_index"":6,""viewing_time"":5448.299999713898},{""page_index"":7,""viewing_time"":55551.5}]","","","","","","","","","",""
"1075.3000001907349","","image-keyboard-response","2","116272","0.0-2.0-0.0","3IAEQB9FMF6YL1JQ3YLYBUIWOBDWD2","A24LB89P1BPKKF","3DFYDSXB2WMWAZWJRSN67LWQ0PPJUT","","img/practice/S2.jpg","83","2","practice","68","false","","","",""
"null","","html-keyboard-response","3","116575","0.0-2.0-1.0","3IAEQB9FMF6YL1JQ3YLYBUIWOBDWD2","A24LB89P1BPKKF","3DFYDSXB2WMWAZWJRSN67LWQ0PPJUT","","<img src=""img/practice/S2.jpg"" width=""540"" height = ""360"">","null","","","","","","","",""
"null","","html-keyboard-response","4","116578","0.0-2.0-2.0","3IAEQB9FMF6YL1JQ3YLYBUIWOBDWD2","A24LB89P1BPKKF","3DFYDSXB2WMWAZWJRSN67LWQ0PPJUT","","","null","","","","","","","",""
"802.1999998092651","","image-keyboard-response","5","117383","0.0-2.0-0.1","3IAEQB9FMF6YL1JQ3YLYBUIWOBDWD2","A24LB89P1BPKKF","3DFYDSXB2WMWAZWJRSN67LWQ0PPJUT","","img/practice/S3.jpg","68","3","practice","72","false","","","",""
"null","","html-keyboard-response","6","117686","0.0-2.0-1.1","3IAEQB9FMF6YL1JQ3YLYBUIWOBDWD2","A24LB89P1BPKKF","3DFYDSXB2WMWAZWJRSN67LWQ0PPJUT","","<img src=""img/practice/S3.jpg"" width=""540"" height = ""360"">","null","","","","","","","",""
"null","","html-keyboard-response","7","117690","0.0-2.0-2.1","3IAEQB9FMF6YL1JQ3YLYBUIWOBDWD2","A24LB89P1BPKKF","3DFYDSXB2WMWAZWJRSN67LWQ0PPJUT","","","null","","","","","","","",""
"1092.9000000953674","","image-keyboard-response","8","118785","0.0-2.0-0.2","3IAEQB9FMF6YL1JQ3YLYBUIWOBDWD2","A24LB89P1BPKKF","3DFYDSXB2WMWAZWJRSN67LWQ0PPJUT","","img/practice/S1.jpg","72","1","practice","83","false","","","",""
"null","","html-keyboard-response","9","119087","0.0-2.0-1.2","3IAEQB9FMF6YL1JQ3YLYBUIWOBDWD2","A24LB89P1BPKKF","3DFYDSXB2WMWAZWJRSN67LWQ0PPJUT","","<img src=""img/practice/S1.jpg"" width=""540"" height = ""360"">","null","","","","","","","",""
"null","","html-keyboard-response","10","119090","0.0-2.0-2.2","3IAEQB9FMF6YL1JQ3YLYBUIWOBDWD2","A24LB89P1BPKKF","3DFYDSXB2WMWAZWJRSN67LWQ0PPJUT","","","null","","","","","","","",""
"850.5","","image-keyboard-response","11","119942","0.0-2.0-0.3","3IAEQB9FMF6YL1JQ3YLYBUIWOBDWD2","A24LB89P1BPKKF","3DFYDSXB2WMWAZWJRSN67LWQ0PPJUT","","img/practice/S4.jpg","74","4","practice","74","true","","","",""
"null","","html-keyboard-response","12","120245","0.0-2.0-1.3","3IAEQB9FMF6YL1JQ3YLYBUIWOBDWD2","A24LB89P1BPKKF","3DFYDSXB2WMWAZWJRSN67LWQ0PPJUT","","<img src=""img/practice/S4.jpg"" width=""540"" height = ""360"" style=""border:16px solid orange"">","null","","","","","","","",""
"null","","html-keyboard-response","13","120247","0.0-2.0-2.3","3IAEQB9FMF6YL1JQ3YLYBUIWOBDWD2","A24LB89P1BPKKF","3DFYDSXB2WMWAZWJRSN67LWQ0PPJUT","","","null","","","","","","","",""
"1081.9000000953674","","image-keyboard-response","14","121331","0.0-2.0-0.4","3IAEQB9FMF6YL1JQ3YLYBUIWOBDWD2","A24LB89P1BPKKF","3DFYDSXB2WMWAZWJRSN67LWQ0PPJUT","","img/practice/S4.jpg","74","4","practice","74","true","","","",""
"null","","html-keyboard-response","15","121633","0.0-2.0-1.4","3IAEQB9FMF6YL1JQ3YLYBUIWOBDWD2","A24LB89P1BPKKF","3DFYDSXB2WMWAZWJRSN67LWQ0PPJUT","","<img src=""img/practice/S4.jpg"" width=""540"" height = ""360"" style=""border:16px solid orange"">","null","","","","","","","",""
"null","","html-keyboard-response","16","121637","0.0-2.0-2.4","3IAEQB9FMF6YL1JQ3YLYBUIWOBDWD2","A24LB89P1BPKKF","3DFYDSXB2WMWAZWJRSN67LWQ0PPJUT","","","null","","","","","","","",""
"1003","","image-keyboard-response","17","122642","0.0-2.0-0.5","3IAEQB9FMF6YL1JQ3YLYBUIWOBDWD2","A24LB89P1BPKKF","3DFYDSXB2WMWAZWJRSN67LWQ0PPJUT","","img/practice/S3.jpg","68","3","practice","72","false","","","",""
"null","","html-keyboard-response","18","122944","0.0-2.0-1.5","3IAEQB9FMF6YL1JQ3YLYBUIWOBDWD2","A24LB89P1BPKKF","3DFYDSXB2WMWAZWJRSN67LWQ0PPJUT","","<img src=""img/practice/S3.jpg"" width=""540"" height = ""360"">","null","","","","","","","",""
"null","","html-keyboard-response","19","122946","0.0-2.0-2.5","3IAEQB9FMF6YL1JQ3YLYBUIWOBDWD2","A24LB89P1BPKKF","3DFYDSXB2WMWAZWJRSN67LWQ0PPJUT","","","null","","","","","","","",""
"735","","image-keyboard-response","20","123682","0.0-2.0-0.6","3IAEQB9FMF6YL1JQ3YLYBUIWOBDWD2","A24LB89P1BPKKF","3DFYDSXB2WMWAZWJRSN67LWQ0PPJUT","","img/practice/S1.jpg","83","1","practice","83","true","","","",""
"null","","html-keyboard-response","21","123984","0.0-2.0-1.6","3IAEQB9FMF6YL1JQ3YLYBUIWOBDWD2","A24LB89P1BPKKF","3DFYDSXB2WMWAZWJRSN67LWQ0PPJUT","","<img src=""img/practice/S1.jpg"" width=""540"" height = ""360"" style=""border:16px solid orange"">","null","","","","","","","",""
"null","","html-keyboard-response","22","123986","0.0-2.0-2.6","3IAEQB9FMF6YL1JQ3YLYBUIWOBDWD2","A24LB89P1BPKKF","3DFYDSXB2WMWAZWJRSN67LWQ0PPJUT","","","null","","","","","","","",""
"1054.9000000953674","","image-keyboard-response","23","125043","0.0-2.0-0.7","3IAEQB9FMF6YL1JQ3YLYBUIWOBDWD2","A24LB89P1BPKKF","3DFYDSXB2WMWAZWJRSN67LWQ0PPJUT","","img/practice/S2.jpg","68","2","practice","68","true","","","",""
"null","","html-keyboard-response","24","125346","0.0-2.0-1.7","3IAEQB9FMF6YL1JQ3YLYBUIWOBDWD2","A24LB89P1BPKKF","3DFYDSXB2WMWAZWJRSN67LWQ0PPJUT","","<img src=""img/practice/S2.jpg"" width=""540"" height = ""360"" style=""border:16px solid orange"">","null","","","","","","","",""
"null","","html-keyboard-response","25","125348","0.0-2.0-2.7","3IAEQB9FMF6YL1JQ3YLYBUIWOBDWD2","A24LB89P1BPKKF","3DFYDSXB2WMWAZWJRSN67LWQ0PPJUT","","","null","","","","","","","",""
"1098.5999999046326","","image-keyboard-response","26","126448","0.0-2.0-0.8","3IAEQB9FMF6YL1JQ3YLYBUIWOBDWD2","A24LB89P1BPKKF","3DFYDSXB2WMWAZWJRSN67LWQ0PPJUT","","img/practice/S1.jpg","83","1","practice","83","true","","","",""
"null","","html-keyboard-response","27","126751","0.0-2.0-1.8","3IAEQB9FMF6YL1JQ3YLYBUIWOBDWD2","A24LB89P1BPKKF","3DFYDSXB2WMWAZWJRSN67LWQ0PPJUT","","<img src=""img/practice/S1.jpg"" width=""540"" height = ""360"" style=""border:16px solid orange"">","null","","","","","","","",""
"null","","html-keyboard-response","28","126753","0.0-2.0-2.8","3IAEQB9FMF6YL1JQ3YLYBUIWOBDWD2","A24LB89P1BPKKF","3DFYDSXB2WMWAZWJRSN67LWQ0PPJUT","","","null","","","","","","","",""
"947.5","","image-keyboard-response","29","127704","0.0-2.0-0.9","3IAEQB9FMF6YL1JQ3YLYBUIWOBDWD2","A24LB89P1BPKKF","3DFYDSXB2WMWAZWJRSN67LWQ0PPJUT","","img/practice/S4.jpg","74","4","practice","74","true","","","",""
"null","","html-keyboard-response","30","128007","0.0-2.0-1.9","3IAEQB9FMF6YL1JQ3YLYBUIWOBDWD2","A24LB89P1BPKKF","3DFYDSXB2WMWAZWJRSN67LWQ0PPJUT","","<img src=""img/practice/S4.jpg"" width=""540"" height = ""360"" style=""border:16px solid orange"">","null","","","","","","","",""
"null","","html-keyboard-response","31","128010","0.0-2.0-2.9","3IAEQB9FMF6YL1JQ3YLYBUIWOBDWD2","A24LB89P1BPKKF","3DFYDSXB2WMWAZWJRSN67LWQ0PPJUT","","","null","","","","","","","",""
"676.5999999046326","","image-keyboard-response","32","128688","0.0-2.0-0.10","3IAEQB9FMF6YL1JQ3YLYBUIWOBDWD2","A24LB89P1BPKKF","3DFYDSXB2WMWAZWJRSN67LWQ0PPJUT","","img/practice/S2.jpg","68","2","practice","68","true","","","",""
"null","","html-keyboard-response","33","128990","0.0-2.0-1.10","3IAEQB9FMF6YL1JQ3YLYBUIWOBDWD2","A24LB89P1BPKKF","3DFYDSXB2WMWAZWJRSN67LWQ0PPJUT","","<img src=""img/practice/S2.jpg"" width=""540"" height = ""360"" style=""border:16px solid orange"">","null","","","","","","","",""
"null","","html-keyboard-response","34","128992","0.0-2.0-2.10","3IAEQB9FMF6YL1JQ3YLYBUIWOBDWD2","A24LB89P1BPKKF","3DFYDSXB2WMWAZWJRSN67LWQ0PPJUT","","","null","","","","","","","",""
"786.7000002861023","","image-keyboard-response","35","129781","0.0-2.0-0.11","3IAEQB9FMF6YL1JQ3YLYBUIWOBDWD2","A24LB89P1BPKKF","3DFYDSXB2WMWAZWJRSN67LWQ0PPJUT","","img/practice/S3.jpg","83","3","practice","72","false","","","",""
"null","","html-keyboard-response","36","130084","0.0-2.0-1.11","3IAEQB9FMF6YL1JQ3YLYBUIWOBDWD2","A24LB89P1BPKKF","3DFYDSXB2WMWAZWJRSN67LWQ0PPJUT","","<img src=""img/practice/S3.jpg"" width=""540"" height = ""360"">","null","","","","","","","",""
"null","","html-keyboard-response","37","130088","0.0-2.0-2.11","3IAEQB9FMF6YL1JQ3YLYBUIWOBDWD2","A24LB89P1BPKKF","3DFYDSXB2WMWAZWJRSN67LWQ0PPJUT","","","null","","","","","","","",""
"162.30000019073486","","image-keyboard-response","38","130252","0.0-2.0-0.12","3IAEQB9FMF6YL1JQ3YLYBUIWOBDWD2","A24LB89P1BPKKF","3DFYDSXB2WMWAZWJRSN67LWQ0PPJUT","","img/practice/S3.jpg","72","3","practice","72","true","","","",""
"null","","html-keyboard-response","39","130554","0.0-2.0-1.12","3IAEQB9FMF6YL1JQ3YLYBUIWOBDWD2","A24LB89P1BPKKF","3DFYDSXB2WMWAZWJRSN67LWQ0PPJUT","","<img src=""img/practice/S3.jpg"" width=""540"" height = ""360"" style=""border:16px solid orange"">","null","","","","","","","",""
"null","","html-keyboard-response","40","130556","0.0-2.0-2.12","3IAEQB9FMF6YL1JQ3YLYBUIWOBDWD2","A24LB89P1BPKKF","3DFYDSXB2WMWAZWJRSN67LWQ0PPJUT","","","null","","","","","","","",""
"950.5","","image-keyboard-response","41","131508","0.0-2.0-0.13","3IAEQB9FMF6YL1JQ3YLYBUIWOBDWD2","A24LB89P1BPKKF","3DFYDSXB2WMWAZWJRSN67LWQ0PPJUT","","img/practice/S1.jpg","83","1","practice","83","true","","","",""
"null","","html-keyboard-response","42","131811","0.0-2.0-1.13","3IAEQB9FMF6YL1JQ3YLYBUIWOBDWD2","A24LB89P1BPKKF","3DFYDSXB2WMWAZWJRSN67LWQ0PPJUT","","<img src=""img/practice/S1.jpg"" width=""540"" height = ""360"" style=""border:16px solid orange"">","null","","","","","","","",""
"null","","html-keyboard-response","43","131813","0.0-2.0-2.13","3IAEQB9FMF6YL1JQ3YLYBUIWOBDWD2","A24LB89P1BPKKF","3DFYDSXB2WMWAZWJRSN67LWQ0PPJUT","","","null","","","","","","","",""
"1322.7000002861023","","image-keyboard-response","44","133138","0.0-2.0-0.14","3IAEQB9FMF6YL1JQ3YLYBUIWOBDWD2","A24LB89P1BPKKF","3DFYDSXB2WMWAZWJRSN67LWQ0PPJUT","","img/practice/S4.jpg","74","4","practice","74","true","","","",""
"null","","html-keyboard-response","45","133440","0.0-2.0-1.14","3IAEQB9FMF6YL1JQ3YLYBUIWOBDWD2","A24LB89P1BPKKF","3DFYDSXB2WMWAZWJRSN67LWQ0PPJUT","","<img src=""img/practice/S4.jpg"" width=""540"" height = ""360"" style=""border:16px solid orange"">","null","","","","","","","",""
"null","","html-keyboard-response","46","133443","0.0-2.0-2.14","3IAEQB9FMF6YL1JQ3YLYBUIWOBDWD2","A24LB89P1BPKKF","3DFYDSXB2WMWAZWJRSN67LWQ0PPJUT","","","null","","","","","","","",""
"1186.5999999046326","","image-keyboard-response","47","134631","0.0-2.0-0.15","3IAEQB9FMF6YL1JQ3YLYBUIWOBDWD2","A24LB89P1BPKKF","3DFYDSXB2WMWAZWJRSN67LWQ0PPJUT","","img/practice/S2.jpg","68","2","practice","68","true","","","",""
"null","","html-keyboard-response","48","134933","0.0-2.0-1.15","3IAEQB9FMF6YL1JQ3YLYBUIWOBDWD2","A24LB89P1BPKKF","3DFYDSXB2WMWAZWJRSN67LWQ0PPJUT","","<img src=""img/practice/S2.jpg"" width=""540"" height = ""360"" style=""border:16px solid orange"">","null","","","","","","","",""
"null","","html-keyboard-response","49","134935","0.0-2.0-2.15","3IAEQB9FMF6YL1JQ3YLYBUIWOBDWD2","A24LB89P1BPKKF","3DFYDSXB2WMWAZWJRSN67LWQ0PPJUT","","","null","","","","","","","",""
"768.5","","image-keyboard-response","50","135706","0.0-2.0-0.16","3IAEQB9FMF6YL1JQ3YLYBUIWOBDWD2","A24LB89P1BPKKF","3DFYDSXB2WMWAZWJRSN67LWQ0PPJUT","","img/practice/S1.jpg","83","1","practice","83","true","","","",""
"null","","html-keyboard-response","51","136007","0.0-2.0-1.16","3IAEQB9FMF6YL1JQ3YLYBUIWOBDWD2","A24LB89P1BPKKF","3DFYDSXB2WMWAZWJRSN67LWQ0PPJUT","","<img src=""img/practice/S1.jpg"" width=""540"" height = ""360"" style=""border:16px solid orange"">","null","","","","","","","",""
"null","","html-keyboard-response","52","136010","0.0-2.0-2.16","3IAEQB9FMF6YL1JQ3YLYBUIWOBDWD2","A24LB89P1BPKKF","3DFYDSXB2WMWAZWJRSN67LWQ0PPJUT","","","null","","","","","","","",""
"805.7000002861023","","image-keyboard-response","53","136817","0.0-2.0-0.17","3IAEQB9FMF6YL1JQ3YLYBUIWOBDWD2","A24LB89P1BPKKF","3DFYDSXB2WMWAZWJRSN67LWQ0PPJUT","","img/practice/S4.jpg","74","4","practice","74","true","","","",""
"null","","html-keyboard-response","54","137120","0.0-2.0-1.17","3IAEQB9FMF6YL1JQ3YLYBUIWOBDWD2","A24LB89P1BPKKF","3DFYDSXB2WMWAZWJRSN67LWQ0PPJUT","","<img src=""img/practice/S4.jpg"" width=""540"" height = ""360"" style=""border:16px solid orange"">","null","","","","","","","",""
"null","","html-keyboard-response","55","137122","0.0-2.0-2.17","3IAEQB9FMF6YL1JQ3YLYBUIWOBDWD2","A24LB89P1BPKKF","3DFYDSXB2WMWAZWJRSN67LWQ0PPJUT","","","null","","","","","","","",""
"824","","image-keyboard-response","56","137948","0.0-2.0-0.18","3IAEQB9FMF6YL1JQ3YLYBUIWOBDWD2","A24LB89P1BPKKF","3DFYDSXB2WMWAZWJRSN67LWQ0PPJUT","","img/practice/S2.jpg","68","2","practice","68","true","","","",""
"null","","html-keyboard-response","57","138251","0.0-2.0-1.18","3IAEQB9FMF6YL1JQ3YLYBUIWOBDWD2","A24LB89P1BPKKF","3DFYDSXB2WMWAZWJRSN67LWQ0PPJUT","","<img src=""img/practice/S2.jpg"" width=""540"" height = ""360"" style=""border:16px solid orange"">","null","","","","","","","",""
"null","","html-keyboard-response","58","138253","0.0-2.0-2.18","3IAEQB9FMF6YL1JQ3YLYBUIWOBDWD2","A24LB89P1BPKKF","3DFYDSXB2WMWAZWJRSN67LWQ0PPJUT","","","null","","","","","","","",""
"624.1999998092651","","image-keyboard-response","59","138879","0.0-2.0-0.19","3IAEQB9FMF6YL1JQ3YLYBUIWOBDWD2","A24LB89P1BPKKF","3DFYDSXB2WMWAZWJRSN67LWQ0PPJUT","","img/practice/S3.jpg","72","3","practice","72","true","","","",""
"null","","html-keyboard-response","60","139181","0.0-2.0-1.19","3IAEQB9FMF6YL1JQ3YLYBUIWOBDWD2","A24LB89P1BPKKF","3DFYDSXB2WMWAZWJRSN67LWQ0PPJUT","","<img src=""img/practice/S3.jpg"" width=""540"" height = ""360"" style=""border:16px solid orange"">","null","","","","","","","",""
"null","","html-keyboard-response","61","139184","0.0-2.0-2.19","3IAEQB9FMF6YL1JQ3YLYBUIWOBDWD2","A24LB89P1BPKKF","3DFYDSXB2WMWAZWJRSN67LWQ0PPJUT","","","null","","","","","","","",""
"703.8000001907349","","image-keyboard-response","62","139889","0.0-2.0-0.20","3IAEQB9FMF6YL1JQ3YLYBUIWOBDWD2","A24LB89P1BPKKF","3DFYDSXB2WMWAZWJRSN67LWQ0PPJUT","","img/practice/S3.jpg","72","3","practice","72","true","","","",""
"null","","html-keyboard-response","63","140192","0.0-2.0-1.20","3IAEQB9FMF6YL1JQ3YLYBUIWOBDWD2","A24LB89P1BPKKF","3DFYDSXB2WMWAZWJRSN67LWQ0PPJUT","","<img src=""img/practice/S3.jpg"" width=""540"" height = ""360"" style=""border:16px solid orange"">","null","","","","","","","",""
"null","","html-keyboard-response","64","140194","0.0-2.0-2.20","3IAEQB9FMF6YL1JQ3YLYBUIWOBDWD2","A24LB89P1BPKKF","3DFYDSXB2WMWAZWJRSN67LWQ0PPJUT","","","null","","","","","","","",""
"768.6000003814697","","image-keyboard-response","65","140965","0.0-2.0-0.21","3IAEQB9FMF6YL1JQ3YLYBUIWOBDWD2","A24LB89P1BPKKF","3DFYDSXB2WMWAZWJRSN67LWQ0PPJUT","","img/practice/S4.jpg","74","4","practice","74","true","","","",""
"null","","html-keyboard-response","66","141267","0.0-2.0-1.21","3IAEQB9FMF6YL1JQ3YLYBUIWOBDWD2","A24LB89P1BPKKF","3DFYDSXB2WMWAZWJRSN67LWQ0PPJUT","","<img src=""img/practice/S4.jpg"" width=""540"" height = ""360"" style=""border:16px solid orange"">","null","","","","","","","",""
"null","","html-keyboard-response","67","141270","0.0-2.0-2.21","3IAEQB9FMF6YL1JQ3YLYBUIWOBDWD2","A24LB89P1BPKKF","3DFYDSXB2WMWAZWJRSN67LWQ0PPJUT","","","null","","","","","","","",""
"638.8000001907349","","image-keyboard-response","68","141911","0.0-2.0-0.22","3IAEQB9FMF6YL1JQ3YLYBUIWOBDWD2","A24LB89P1BPKKF","3DFYDSXB2WMWAZWJRSN67LWQ0PPJUT","","img/practice/S1.jpg","83","1","practice","83","true","","","",""
"null","","html-keyboard-response","69","142212","0.0-2.0-1.22","3IAEQB9FMF6YL1JQ3YLYBUIWOBDWD2","A24LB89P1BPKKF","3DFYDSXB2WMWAZWJRSN67LWQ0PPJUT","","<img src=""img/practice/S1.jpg"" width=""540"" height = ""360"" style=""border:16px solid orange"">","null","","","","","","","",""
"null","","html-keyboard-response","70","142215","0.0-2.0-2.22","3IAEQB9FMF6YL1JQ3YLYBUIWOBDWD2","A24LB89P1BPKKF","3DFYDSXB2WMWAZWJRSN67LWQ0PPJUT","","","null","","","","","","","",""
"660.7000002861023","","image-keyboard-response","71","142878","0.0-2.0-0.23","3IAEQB9FMF6YL1JQ3YLYBUIWOBDWD2","A24LB89P1BPKKF","3DFYDSXB2WMWAZWJRSN67LWQ0PPJUT","","img/practice/S2.jpg","72","2","practice","68","false","","","",""
"null","","html-keyboard-response","72","143180","0.0-2.0-1.23","3IAEQB9FMF6YL1JQ3YLYBUIWOBDWD2","A24LB89P1BPKKF","3DFYDSXB2WMWAZWJRSN67LWQ0PPJUT","","<img src=""img/practice/S2.jpg"" width=""540"" height = ""360"">","null","","","","","","","",""
"null","","html-keyboard-response","73","143183","0.0-2.0-2.23","3IAEQB9FMF6YL1JQ3YLYBUIWOBDWD2","A24LB89P1BPKKF","3DFYDSXB2WMWAZWJRSN67LWQ0PPJUT","","","null","","","","","","","",""
"11577.900000095367","","instructions","74","154763","0.0-3.0","3IAEQB9FMF6YL1JQ3YLYBUIWOBDWD2","A24LB89P1BPKKF","3DFYDSXB2WMWAZWJRSN67LWQ0PPJUT","[{""page_index"":0,""viewing_time"":11577.599999904633}]","","","","","","","","","",""
"4868.5","","instructions","75","159632","0.0-4.0","3IAEQB9FMF6YL1JQ3YLYBUIWOBDWD2","A24LB89P1BPKKF","3DFYDSXB2WMWAZWJRSN67LWQ0PPJUT","[{""page_index"":0,""viewing_time"":4867.800000190735}]","","","","","","","","","",""
"2570.9000000953674","","instructions","76","162204","0.0-5.0","3IAEQB9FMF6YL1JQ3YLYBUIWOBDWD2","A24LB89P1BPKKF","3DFYDSXB2WMWAZWJRSN67LWQ0PPJUT","[{""page_index"":0,""viewing_time"":2570.2000002861023}]","","","","","","","","","",""
"466.59999990463257","","image-keyboard-response","77","162673","0.0-6.0","3IAEQB9FMF6YL1JQ3YLYBUIWOBDWD2","A24LB89P1BPKKF","3DFYDSXB2WMWAZWJRSN67LWQ0PPJUT","","img/set1/S4.jpg","83","4","structured_normal","74","false","structured_normal,structured_incentive,random","1,2,2,3","",""
"null","","html-keyboard-response","78","163026","0.0-7.0","3IAEQB9FMF6YL1JQ3YLYBUIWOBDWD2","A24LB89P1BPKKF","3DFYDSXB2WMWAZWJRSN67LWQ0PPJUT","","<img src=""img/set1/S4.jpg"" width=""540"" height = ""360"">","null","","","","","","","",""
"null","","html-keyboard-response","79","163029","0.0-8.0","3IAEQB9FMF6YL1JQ3YLYBUIWOBDWD2","A24LB89P1BPKKF","3DFYDSXB2WMWAZWJRSN67LWQ0PPJUT","","","null","","","","","","","",""
"11.5","","image-keyboard-response","80","163042","0.0-9.0","3IAEQB9FMF6YL1JQ3YLYBUIWOBDWD2","A24LB89P1BPKKF","3DFYDSXB2WMWAZWJRSN67LWQ0PPJUT","","img/set1/S1.jpg","68","1","structured_normal","83","false","structured_normal,structured_incentive,random","1,2,2,3","",""
"null","","html-keyboard-response","81","163394","0.0-10.0","3IAEQB9FMF6YL1JQ3YLYBUIWOBDWD2","A24LB89P1BPKKF","3DFYDSXB2WMWAZWJRSN67LWQ0PPJUT","","<img src=""img/set1/S1.jpg"" width=""540"" height = ""360"">","null","","","","","","","",""
"null","","html-keyboard-response","82","163397","0.0-11.0","3IAEQB9FMF6YL1JQ3YLYBUIWOBDWD2","A24LB89P1BPKKF","3DFYDSXB2WMWAZWJRSN67LWQ0PPJUT","","","null","","","","","","","",""
"671","","image-keyboard-response","83","164071","0.0-12.0","3IAEQB9FMF6YL1JQ3YLYBUIWOBDWD2","A24LB89P1BPKKF","3DFYDSXB2WMWAZWJRSN67LWQ0PPJUT","","img/set1/S2.jpg","72","2","structured_normal","68","false","structured_normal,structured_incentive,random","1,2,2,3","",""
"null","","html-keyboard-response","84","164424","0.0-13.0","3IAEQB9FMF6YL1JQ3YLYBUIWOBDWD2","A24LB89P1BPKKF","3DFYDSXB2WMWAZWJRSN67LWQ0PPJUT","","<img src=""img/set1/S2.jpg"" width=""540"" height = ""360"">","null","","","","","","","",""
"null","","html-keyboard-response","85","164426","0.0-14.0","3IAEQB9FMF6YL1JQ3YLYBUIWOBDWD2","A24LB89P1BPKKF","3DFYDSXB2WMWAZWJRSN67LWQ0PPJUT","","","null","","","","","","","",""
"716.2000002861023","","image-keyboard-response","86","165144","0.0-15.0","3IAEQB9FMF6YL1JQ3YLYBUIWOBDWD2","A24LB89P1BPKKF","3DFYDSXB2WMWAZWJRSN67LWQ0PPJUT","","img/set1/S4.jpg","72","4","structured_normal","74","false","structured_normal,structured_incentive,random","1,2,2,3","",""
"null","","html-keyboard-response","87","165497","0.0-16.0","3IAEQB9FMF6YL1JQ3YLYBUIWOBDWD2","A24LB89P1BPKKF","3DFYDSXB2WMWAZWJRSN67LWQ0PPJUT","","<img src=""img/set1/S4.jpg"" width=""540"" height = ""360"">","null","","","","","","","",""
"null","","html-keyboard-response","88","165499","0.0-17.0","3IAEQB9FMF6YL1JQ3YLYBUIWOBDWD2","A24LB89P1BPKKF","3DFYDSXB2WMWAZWJRSN67LWQ0PPJUT","","","null","","","","","","","",""
"658.6999998092651","","image-keyboard-response","89","166159","0.0-18.0","3IAEQB9FMF6YL1JQ3YLYBUIWOBDWD2","A24LB89P1BPKKF","3DFYDSXB2WMWAZWJRSN67LWQ0PPJUT","","img/set1/S1.jpg","72","1","structured_normal","83","false","structured_normal,structured_incentive,random","1,2,2,3","",""
"null","","html-keyboard-response","90","166512","0.0-19.0","3IAEQB9FMF6YL1JQ3YLYBUIWOBDWD2","A24LB89P1BPKKF","3DFYDSXB2WMWAZWJRSN67LWQ0PPJUT","","<img src=""img/set1/S1.jpg"" width=""540"" height = ""360"">","null","","","","","","","",""
"null","","html-keyboard-response","91","166515","0.0-20.0","3IAEQB9FMF6YL1JQ3YLYBUIWOBDWD2","A24LB89P1BPKKF","3DFYDSXB2WMWAZWJRSN67LWQ0PPJUT","","","null","","","","","","","",""
"526.2000002861023","","image-keyboard-response","92","167043","0.0-21.0","3IAEQB9FMF6YL1JQ3YLYBUIWOBDWD2","A24LB89P1BPKKF","3DFYDSXB2WMWAZWJRSN67LWQ0PPJUT","","img/set1/S3.jpg","74","3","structured_normal","72","false","structured_normal,structured_incentive,random","1,2,2,3","",""
"null","","html-keyboard-response","93","167409","0.0-22.0","3IAEQB9FMF6YL1JQ3YLYBUIWOBDWD2","A24LB89P1BPKKF","3DFYDSXB2WMWAZWJRSN67LWQ0PPJUT","","<img src=""img/set1/S3.jpg"" width=""540"" height = ""360"">","null","","","","","","","",""
"null","","html-keyboard-response","94","167412","0.0-23.0","3IAEQB9FMF6YL1JQ3YLYBUIWOBDWD2","A24LB89P1BPKKF","3DFYDSXB2WMWAZWJRSN67LWQ0PPJUT","","","null","","","","","","","",""
"529.5999999046326","","image-keyboard-response","95","167944","0.0-24.0","3IAEQB9FMF6YL1JQ3YLYBUIWOBDWD2","A24LB89P1BPKKF","3DFYDSXB2WMWAZWJRSN67LWQ0PPJUT","","img/set1/S3.jpg","74","3","structured_normal","72","false","structured_normal,structured_incentive,random","1,2,2,3","",""
"null","","html-keyboard-response","96","168305","0.0-25.0","3IAEQB9FMF6YL1JQ3YLYBUIWOBDWD2","A24LB89P1BPKKF","3DFYDSXB2WMWAZWJRSN67LWQ0PPJUT","","<img src=""img/set1/S3.jpg"" width=""540"" height = ""360"">","null","","","","","","","",""
"null","","html-keyboard-response","97","168308","0.0-26.0","3IAEQB9FMF6YL1JQ3YLYBUIWOBDWD2","A24LB89P1BPKKF","3DFYDSXB2WMWAZWJRSN67LWQ0PPJUT","","","null","","","","","","","",""
"638.5","","image-keyboard-response","98","168950","0.0-27.0","3IAEQB9FMF6YL1JQ3YLYBUIWOBDWD2","A24LB89P1BPKKF","3DFYDSXB2WMWAZWJRSN67LWQ0PPJUT","","img/set1/S2.jpg","83","2","structured_normal","68","false","structured_normal,structured_incentive,random","1,2,2,3","",""
"null","","html-keyboard-response","99","169306","0.0-28.0","3IAEQB9FMF6YL1JQ3YLYBUIWOBDWD2","A24LB89P1BPKKF","3DFYDSXB2WMWAZWJRSN67LWQ0PPJUT","","<img src=""img/set1/S2.jpg"" width=""540"" height = ""360"">","null","","","","","","","",""
"null","","html-keyboard-response","100","169310","0.0-29.0","3IAEQB9FMF6YL1JQ3YLYBUIWOBDWD2","A24LB89P1BPKKF","3DFYDSXB2WMWAZWJRSN67LWQ0PPJUT","","","null","","","","","","","",""
"11.5","","image-keyboard-response","101","169325","0.0-30.0","3IAEQB9FMF6YL1JQ3YLYBUIWOBDWD2","A24LB89P1BPKKF","3DFYDSXB2WMWAZWJRSN67LWQ0PPJUT","","img/set1/S4.jpg","68","4","structured_normal","74","false","structured_normal,structured_incentive,random","1,2,2,3","",""
"null","","html-keyboard-response","102","169680","0.0-31.0","3IAEQB9FMF6YL1JQ3YLYBUIWOBDWD2","A24LB89P1BPKKF","3DFYDSXB2WMWAZWJRSN67LWQ0PPJUT","","<img src=""img/set1/S4.jpg"" width=""540"" height = ""360"">","null","","","","","","","",""
"null","","html-keyboard-response","103","169683","0.0-32.0","3IAEQB9FMF6YL1JQ3YLYBUIWOBDWD2","A24LB89P1BPKKF","3DFYDSXB2WMWAZWJRSN67LWQ0PPJUT","","","null","","","","","","","",""
"706.2000002861023","","image-keyboard-response","104","170392","0.0-33.0","3IAEQB9FMF6YL1JQ3YLYBUIWOBDWD2","A24LB89P1BPKKF","3DFYDSXB2WMWAZWJRSN67LWQ0PPJUT","","img/set1/S1.jpg","68","1","structured_normal","83","false","structured_normal,structured_incentive,random","1,2,2,3","",""
"null","","html-keyboard-response","105","170744","0.0-34.0","3IAEQB9FMF6YL1JQ3YLYBUIWOBDWD2","A24LB89P1BPKKF","3DFYDSXB2WMWAZWJRSN67LWQ0PPJUT","","<img src=""img/set1/S1.jpg"" width=""540"" height = ""360"">","null","","","","","","","",""
"null","","html-keyboard-response","106","170746","0.0-35.0","3IAEQB9FMF6YL1JQ3YLYBUIWOBDWD2","A24LB89P1BPKKF","3DFYDSXB2WMWAZWJRSN67LWQ0PPJUT","","","null","","","","","","","",""
"646.4000000953674","","image-keyboard-response","107","171394","0.0-36.0","3IAEQB9FMF6YL1JQ3YLYBUIWOBDWD2","A24LB89P1BPKKF","3DFYDSXB2WMWAZWJRSN67LWQ0PPJUT","","img/set1/S2.jpg","68","2","structured_normal","68","true","structured_normal,structured_incentive,random","1,2,2,3","",""
"null","","html-keyboard-response","108","171747","0.0-37.0","3IAEQB9FMF6YL1JQ3YLYBUIWOBDWD2","A24LB89P1BPKKF","3DFYDSXB2WMWAZWJRSN67LWQ0PPJUT","","<img src=""img/set1/S2.jpg"" width=""540"" height = ""360"" style=""border:16px solid orange"">","null","","","","","","","",""
"null","","html-keyboard-response","109","171750","0.0-38.0","3IAEQB9FMF6YL1JQ3YLYBUIWOBDWD2","A24LB89P1BPKKF","3DFYDSXB2WMWAZWJRSN67LWQ0PPJUT","","","null","","","","","","","",""
"757.1999998092651","","image-keyboard-response","110","172510","0.0-39.0","3IAEQB9FMF6YL1JQ3YLYBUIWOBDWD2","A24LB89P1BPKKF","3DFYDSXB2WMWAZWJRSN67LWQ0PPJUT","","img/set1/S3.jpg","83","3","structured_normal","72","false","structured_normal,structured_incentive,random","1,2,2,3","",""
"null","","html-keyboard-response","111","172863","0.0-40.0","3IAEQB9FMF6YL1JQ3YLYBUIWOBDWD2","A24LB89P1BPKKF","3DFYDSXB2WMWAZWJRSN67LWQ0PPJUT","","<img src=""img/set1/S3.jpg"" width=""540"" height = ""360"">","null","","","","","","","",""
"null","","html-keyboard-response","112","172865","0.0-41.0","3IAEQB9FMF6YL1JQ3YLYBUIWOBDWD2","A24LB89P1BPKKF","3DFYDSXB2WMWAZWJRSN67LWQ0PPJUT","","","null","","","","","","","",""
"811","","image-keyboard-response","113","173678","0.0-42.0","3IAEQB9FMF6YL1JQ3YLYBUIWOBDWD2","A24LB89P1BPKKF","3DFYDSXB2WMWAZWJRSN67LWQ0PPJUT","","img/set1/S1.jpg","72","1","structured_normal","83","false","structured_normal,structured_incentive,random","1,2,2,3","",""
"null","","html-keyboard-response","114","174030","0.0-43.0","3IAEQB9FMF6YL1JQ3YLYBUIWOBDWD2","A24LB89P1BPKKF","3DFYDSXB2WMWAZWJRSN67LWQ0PPJUT","","<img src=""img/set1/S1.jpg"" width=""540"" height = ""360"">","null","","","","","","","",""
"null","","html-keyboard-response","115","174033","0.0-44.0","3IAEQB9FMF6YL1JQ3YLYBUIWOBDWD2","A24LB89P1BPKKF","3DFYDSXB2WMWAZWJRSN67LWQ0PPJUT","","","null","","","","","","","",""
"608.5999999046326","","image-keyboard-response","116","174643","0.0-45.0","3IAEQB9FMF6YL1JQ3YLYBUIWOBDWD2","A24LB89P1BPKKF","3DFYDSXB2WMWAZWJRSN67LWQ0PPJUT","","img/set1/S2.jpg","68","2","structured_normal","68","true","structured_normal,structured_incentive,random","1,2,2,3","",""
"null","","html-keyboard-response","117","174997","0.0-46.0","3IAEQB9FMF6YL1JQ3YLYBUIWOBDWD2","A24LB89P1BPKKF","3DFYDSXB2WMWAZWJRSN67LWQ0PPJUT","","<img src=""img/set1/S2.jpg"" width=""540"" height = ""360"" style=""border:16px solid orange"">","null","","","","","","","",""
"null","","html-keyboard-response","118","174999","0.0-47.0","3IAEQB9FMF6YL1JQ3YLYBUIWOBDWD2","A24LB89P1BPKKF","3DFYDSXB2WMWAZWJRSN67LWQ0PPJUT","","","null","","","","","","","",""
"847.5999999046326","","image-keyboard-response","119","175849","0.0-48.0","3IAEQB9FMF6YL1JQ3YLYBUIWOBDWD2","A24LB89P1BPKKF","3DFYDSXB2WMWAZWJRSN67LWQ0PPJUT","","img/set1/S4.jpg","72","4","structured_normal","74","false","structured_normal,structured_incentive,random","1,2,2,3","",""
"null","","html-keyboard-response","120","176202","0.0-49.0","3IAEQB9FMF6YL1JQ3YLYBUIWOBDWD2","A24LB89P1BPKKF","3DFYDSXB2WMWAZWJRSN67LWQ0PPJUT","","<img src=""img/set1/S4.jpg"" width=""540"" height = ""360"">","null","","","","","","","",""
"null","","html-keyboard-response","121","176204","0.0-50.0","3IAEQB9FMF6YL1JQ3YLYBUIWOBDWD2","A24LB89P1BPKKF","3DFYDSXB2WMWAZWJRSN67LWQ0PPJUT","","","null","","","","","","","",""
"593.8999996185303","","image-keyboard-response","122","176800","0.0-51.0","3IAEQB9FMF6YL1JQ3YLYBUIWOBDWD2","A24LB89P1BPKKF","3DFYDSXB2WMWAZWJRSN67LWQ0PPJUT","","img/set1/S4.jpg","72","4","structured_normal","74","false","structured_normal,structured_incentive,random","1,2,2,3","",""
"null","","html-keyboard-response","123","177152","0.0-52.0","3IAEQB9FMF6YL1JQ3YLYBUIWOBDWD2","A24LB89P1BPKKF","3DFYDSXB2WMWAZWJRSN67LWQ0PPJUT","","<img src=""img/set1/S4.jpg"" width=""540"" height = ""360"">","null","","","","","","","",""
"null","","html-keyboard-response","124","177156","0.0-53.0","3IAEQB9FMF6YL1JQ3YLYBUIWOBDWD2","A24LB89P1BPKKF","3DFYDSXB2WMWAZWJRSN67LWQ0PPJUT","","","null","","","","","","","",""
"518.5999999046326","","image-keyboard-response","125","177676","0.0-54.0","3IAEQB9FMF6YL1JQ3YLYBUIWOBDWD2","A24LB89P1BPKKF","3DFYDSXB2WMWAZWJRSN67LWQ0PPJUT","","img/set1/S4.jpg","74","4","structured_normal","74","true","structured_normal,structured_incentive,random","1,2,2,3","",""
"null","","html-keyboard-response","126","178030","0.0-55.0","3IAEQB9FMF6YL1JQ3YLYBUIWOBDWD2","A24LB89P1BPKKF","3DFYDSXB2WMWAZWJRSN67LWQ0PPJUT","","<img src=""img/set1/S4.jpg"" width=""540"" height = ""360"" style=""border:16px solid orange"">","null","","","","","","","",""
"null","","html-keyboard-response","127","178032","0.0-56.0","3IAEQB9FMF6YL1JQ3YLYBUIWOBDWD2","A24LB89P1BPKKF","3DFYDSXB2WMWAZWJRSN67LWQ0PPJUT","","","null","","","","","","","",""
"947.8000001907349","","image-keyboard-response","128","178981","0.0-57.0","3IAEQB9FMF6YL1JQ3YLYBUIWOBDWD2","A24LB89P1BPKKF","3DFYDSXB2WMWAZWJRSN67LWQ0PPJUT","","img/set1/S1.jpg","83","1","structured_normal","83","true","structured_normal,structured_incentive,random","1,2,2,3","",""
"null","","html-keyboard-response","129","179334","0.0-58.0","3IAEQB9FMF6YL1JQ3YLYBUIWOBDWD2","A24LB89P1BPKKF","3DFYDSXB2WMWAZWJRSN67LWQ0PPJUT","","<img src=""img/set1/S1.jpg"" width=""540"" height = ""360"" style=""border:16px solid orange"">","null","","","","","","","",""
"null","","html-keyboard-response","130","179336","0.0-59.0","3IAEQB9FMF6YL1JQ3YLYBUIWOBDWD2","A24LB89P1BPKKF","3DFYDSXB2WMWAZWJRSN67LWQ0PPJUT","","","null","","","","","","","",""
"796.8000001907349","","image-keyboard-response","131","180134","0.0-60.0","3IAEQB9FMF6YL1JQ3YLYBUIWOBDWD2","A24LB89P1BPKKF","3DFYDSXB2WMWAZWJRSN67LWQ0PPJUT","","img/set1/S3.jpg","72","3","structured_normal","72","true","structured_normal,structured_incentive,random","1,2,2,3","",""
"null","","html-keyboard-response","132","180486","0.0-61.0","3IAEQB9FMF6YL1JQ3YLYBUIWOBDWD2","A24LB89P1BPKKF","3DFYDSXB2WMWAZWJRSN67LWQ0PPJUT","","<img src=""img/set1/S3.jpg"" width=""540"" height = ""360"" style=""border:16px solid orange"">","null","","","","","","","",""
"null","","html-keyboard-response","133","180488","0.0-62.0","3IAEQB9FMF6YL1JQ3YLYBUIWOBDWD2","A24LB89P1BPKKF","3DFYDSXB2WMWAZWJRSN67LWQ0PPJUT","","","null","","","","","","","",""
"777.6999998092651","","image-keyboard-response","134","181267","0.0-63.0","3IAEQB9FMF6YL1JQ3YLYBUIWOBDWD2","A24LB89P1BPKKF","3DFYDSXB2WMWAZWJRSN67LWQ0PPJUT","","img/set1/S4.jpg","83","4","structured_normal","74","false","structured_normal,structured_incentive,random","1,2,2,3","",""
"null","","html-keyboard-response","135","181620","0.0-64.0","3IAEQB9FMF6YL1JQ3YLYBUIWOBDWD2","A24LB89P1BPKKF","3DFYDSXB2WMWAZWJRSN67LWQ0PPJUT","","<img src=""img/set1/S4.jpg"" width=""540"" height = ""360"">","null","","","","","","","",""
"null","","html-keyboard-response","136","181625","0.0-65.0","3IAEQB9FMF6YL1JQ3YLYBUIWOBDWD2","A24LB89P1BPKKF","3DFYDSXB2WMWAZWJRSN67LWQ0PPJUT","","","null","","","","","","","",""
"0.3000001907348633","","image-keyboard-response","137","181627","0.0-66.0","3IAEQB9FMF6YL1JQ3YLYBUIWOBDWD2","A24LB89P1BPKKF","3DFYDSXB2WMWAZWJRSN67LWQ0PPJUT","","img/set1/S3.jpg","74","3","structured_normal","72","false","structured_normal,structured_incentive,random","1,2,2,3","",""
"null","","html-keyboard-response","138","181980","0.0-67.0","3IAEQB9FMF6YL1JQ3YLYBUIWOBDWD2","A24LB89P1BPKKF","3DFYDSXB2WMWAZWJRSN67LWQ0PPJUT","","<img src=""img/set1/S3.jpg"" width=""540"" height = ""360"">","null","","","","","","","",""
"null","","html-keyboard-response","139","181983","0.0-68.0","3IAEQB9FMF6YL1JQ3YLYBUIWOBDWD2","A24LB89P1BPKKF","3DFYDSXB2WMWAZWJRSN67LWQ0PPJUT","","","null","","","","","","","",""
"1097.8000001907349","","image-keyboard-response","140","183083","0.0-69.0","3IAEQB9FMF6YL1JQ3YLYBUIWOBDWD2","A24LB89P1BPKKF","3DFYDSXB2WMWAZWJRSN67LWQ0PPJUT","","img/set1/S1.jpg","68","1","structured_normal","83","false","structured_normal,structured_incentive,random","1,2,2,3","",""
"null","","html-keyboard-response","141","183436","0.0-70.0","3IAEQB9FMF6YL1JQ3YLYBUIWOBDWD2","A24LB89P1BPKKF","3DFYDSXB2WMWAZWJRSN67LWQ0PPJUT","","<img src=""img/set1/S1.jpg"" width=""540"" height = ""360"">","null","","","","","","","",""
"null","","html-keyboard-response","142","183438","0.0-71.0","3IAEQB9FMF6YL1JQ3YLYBUIWOBDWD2","A24LB89P1BPKKF","3DFYDSXB2WMWAZWJRSN67LWQ0PPJUT","","","null","","","","","","","",""
"689","","image-keyboard-response","143","184129","0.0-72.0","3IAEQB9FMF6YL1JQ3YLYBUIWOBDWD2","A24LB89P1BPKKF","3DFYDSXB2WMWAZWJRSN67LWQ0PPJUT","","img/set1/S2.jpg","72","2","structured_normal","68","false","structured_normal,structured_incentive,random","1,2,2,3","",""
"null","","html-keyboard-response","144","184482","0.0-73.0","3IAEQB9FMF6YL1JQ3YLYBUIWOBDWD2","A24LB89P1BPKKF","3DFYDSXB2WMWAZWJRSN67LWQ0PPJUT","","<img src=""img/set1/S2.jpg"" width=""540"" height = ""360"">","null","","","","","","","",""
"null","","html-keyboard-response","145","184485","0.0-74.0","3IAEQB9FMF6YL1JQ3YLYBUIWOBDWD2","A24LB89P1BPKKF","3DFYDSXB2WMWAZWJRSN67LWQ0PPJUT","","","null","","","","","","","",""
"1306.5999999046326","","image-keyboard-response","146","185792","0.0-75.0","3IAEQB9FMF6YL1JQ3YLYBUIWOBDWD2","A24LB89P1BPKKF","3DFYDSXB2WMWAZWJRSN67LWQ0PPJUT","","img/set1/S1.jpg","72","1","structured_normal","83","false","structured_normal,structured_incentive,random","1,2,2,3","",""
"null","","html-keyboard-response","147","186145","0.0-76.0","3IAEQB9FMF6YL1JQ3YLYBUIWOBDWD2","A24LB89P1BPKKF","3DFYDSXB2WMWAZWJRSN67LWQ0PPJUT","","<img src=""img/set1/S1.jpg"" width=""540"" height = ""360"">","null","","","","","","","",""
"null","","html-keyboard-response","148","186148","0.0-77.0","3IAEQB9FMF6YL1JQ3YLYBUIWOBDWD2","A24LB89P1BPKKF","3DFYDSXB2WMWAZWJRSN67LWQ0PPJUT","","","null","","","","","","","",""
"992.3000001907349","","image-keyboard-response","149","187142","0.0-78.0","3IAEQB9FMF6YL1JQ3YLYBUIWOBDWD2","A24LB89P1BPKKF","3DFYDSXB2WMWAZWJRSN67LWQ0PPJUT","","img/set1/S3.jpg","83","3","structured_normal","72","false","structured_normal,structured_incentive,random","1,2,2,3","",""
"null","","html-keyboard-response","150","187497","0.0-79.0","3IAEQB9FMF6YL1JQ3YLYBUIWOBDWD2","A24LB89P1BPKKF","3DFYDSXB2WMWAZWJRSN67LWQ0PPJUT","","<img src=""img/set1/S3.jpg"" width=""540"" height = ""360"">","null","","","","","","","",""
"null","","html-keyboard-response","151","187501","0.0-80.0","3IAEQB9FMF6YL1JQ3YLYBUIWOBDWD2","A24LB89P1BPKKF","3DFYDSXB2WMWAZWJRSN67LWQ0PPJUT","","","null","","","","","","","",""
"803.9000000953674","","image-keyboard-response","152","188306","0.0-81.0","3IAEQB9FMF6YL1JQ3YLYBUIWOBDWD2","A24LB89P1BPKKF","3DFYDSXB2WMWAZWJRSN67LWQ0PPJUT","","img/set1/S1.jpg","68","1","structured_normal","83","false","structured_normal,structured_incentive,random","1,2,2,3","",""
"null","","html-keyboard-response","153","188659","0.0-82.0","3IAEQB9FMF6YL1JQ3YLYBUIWOBDWD2","A24LB89P1BPKKF","3DFYDSXB2WMWAZWJRSN67LWQ0PPJUT","","<img src=""img/set1/S1.jpg"" width=""540"" height = ""360"">","null","","","","","","","",""
"null","","html-keyboard-response","154","188662","0.0-83.0","3IAEQB9FMF6YL1JQ3YLYBUIWOBDWD2","A24LB89P1BPKKF","3DFYDSXB2WMWAZWJRSN67LWQ0PPJUT","","","null","","","","","","","",""
"839.7999997138977","","image-keyboard-response","155","189503","0.0-84.0","3IAEQB9FMF6YL1JQ3YLYBUIWOBDWD2","A24LB89P1BPKKF","3DFYDSXB2WMWAZWJRSN67LWQ0PPJUT","","img/set1/S2.jpg","72","2","structured_normal","68","false","structured_normal,structured_incentive,random","1,2,2,3","",""
"null","","html-keyboard-response","156","189857","0.0-85.0","3IAEQB9FMF6YL1JQ3YLYBUIWOBDWD2","A24LB89P1BPKKF","3DFYDSXB2WMWAZWJRSN67LWQ0PPJUT","","<img src=""img/set1/S2.jpg"" width=""540"" height = ""360"">","null","","","","","","","",""
"null","","html-keyboard-response","157","189859","0.0-86.0","3IAEQB9FMF6YL1JQ3YLYBUIWOBDWD2","A24LB89P1BPKKF","3DFYDSXB2WMWAZWJRSN67LWQ0PPJUT","","","null","","","","","","","",""
"1122.7999997138977","","image-keyboard-response","158","190985","0.0-87.0","3IAEQB9FMF6YL1JQ3YLYBUIWOBDWD2","A24LB89P1BPKKF","3DFYDSXB2WMWAZWJRSN67LWQ0PPJUT","","img/set1/S3.jpg","74","3","structured_normal","72","false","structured_normal,structured_incentive,random","1,2,2,3","",""
"null","","html-keyboard-response","159","191338","0.0-88.0","3IAEQB9FMF6YL1JQ3YLYBUIWOBDWD2","A24LB89P1BPKKF","3DFYDSXB2WMWAZWJRSN67LWQ0PPJUT","","<img src=""img/set1/S3.jpg"" width=""540"" height = ""360"">","null","","","","","","","",""
"null","","html-keyboard-response","160","191340","0.0-89.0","3IAEQB9FMF6YL1JQ3YLYBUIWOBDWD2","A24LB89P1BPKKF","3DFYDSXB2WMWAZWJRSN67LWQ0PPJUT","","","null","","","","","","","",""
"682.0999999046326","","image-keyboard-response","161","192024","0.0-90.0","3IAEQB9FMF6YL1JQ3YLYBUIWOBDWD2","A24LB89P1BPKKF","3DFYDSXB2WMWAZWJRSN67LWQ0PPJUT","","img/set1/S2.jpg","72","2","structured_normal","68","false","structured_normal,structured_incentive,random","1,2,2,3","",""
"null","","html-keyboard-response","162","192377","0.0-91.0","3IAEQB9FMF6YL1JQ3YLYBUIWOBDWD2","A24LB89P1BPKKF","3DFYDSXB2WMWAZWJRSN67LWQ0PPJUT","","<img src=""img/set1/S2.jpg"" width=""540"" height = ""360"">","null","","","","","","","",""
"null","","html-keyboard-response","163","192380","0.0-92.0","3IAEQB9FMF6YL1JQ3YLYBUIWOBDWD2","A24LB89P1BPKKF","3DFYDSXB2WMWAZWJRSN67LWQ0PPJUT","","","null","","","","","","","",""
"916.2999997138977","","image-keyboard-response","164","193299","0.0-93.0","3IAEQB9FMF6YL1JQ3YLYBUIWOBDWD2","A24LB89P1BPKKF","3DFYDSXB2WMWAZWJRSN67LWQ0PPJUT","","img/set1/S1.jpg","68","1","structured_normal","83","false","structured_normal,structured_incentive,random","1,2,2,3","",""
"null","","html-keyboard-response","165","193653","0.0-94.0","3IAEQB9FMF6YL1JQ3YLYBUIWOBDWD2","A24LB89P1BPKKF","3DFYDSXB2WMWAZWJRSN67LWQ0PPJUT","","<img src=""img/set1/S1.jpg"" width=""540"" height = ""360"">","null","","","","","","","",""
"null","","html-keyboard-response","166","193657","0.0-95.0","3IAEQB9FMF6YL1JQ3YLYBUIWOBDWD2","A24LB89P1BPKKF","3DFYDSXB2WMWAZWJRSN67LWQ0PPJUT","","","null","","","","","","","",""
"598.7000002861023","","image-keyboard-response","167","194258","0.0-96.0","3IAEQB9FMF6YL1JQ3YLYBUIWOBDWD2","A24LB89P1BPKKF","3DFYDSXB2WMWAZWJRSN67LWQ0PPJUT","","img/set1/S2.jpg","72","2","structured_normal","68","false","structured_normal,structured_incentive,random","1,2,2,3","",""
"null","","html-keyboard-response","168","194612","0.0-97.0","3IAEQB9FMF6YL1JQ3YLYBUIWOBDWD2","A24LB89P1BPKKF","3DFYDSXB2WMWAZWJRSN67LWQ0PPJUT","","<img src=""img/set1/S2.jpg"" width=""540"" height = ""360"">","null","","","","","","","",""
"null","","html-keyboard-response","169","194616","0.0-98.0","3IAEQB9FMF6YL1JQ3YLYBUIWOBDWD2","A24LB89P1BPKKF","3DFYDSXB2WMWAZWJRSN67LWQ0PPJUT","","","null","","","","","","","",""
"1007.0999999046326","","image-keyboard-response","170","195625","0.0-99.0","3IAEQB9FMF6YL1JQ3YLYBUIWOBDWD2","A24LB89P1BPKKF","3DFYDSXB2WMWAZWJRSN67LWQ0PPJUT","","img/set1/S4.jpg","83","4","structured_normal","74","false","structured_normal,structured_incentive,random","1,2,2,3","",""
"null","","html-keyboard-response","171","195980","0.0-100.0","3IAEQB9FMF6YL1JQ3YLYBUIWOBDWD2","A24LB89P1BPKKF","3DFYDSXB2WMWAZWJRSN67LWQ0PPJUT","","<img src=""img/set1/S4.jpg"" width=""540"" height = ""360"">","null","","","","","","","",""
"null","","html-keyboard-response","172","195983","0.0-101.0","3IAEQB9FMF6YL1JQ3YLYBUIWOBDWD2","A24LB89P1BPKKF","3DFYDSXB2WMWAZWJRSN67LWQ0PPJUT","","","null","","","","","","","",""
"984.1000003814697","","image-keyboard-response","173","196969","0.0-102.0","3IAEQB9FMF6YL1JQ3YLYBUIWOBDWD2","A24LB89P1BPKKF","3DFYDSXB2WMWAZWJRSN67LWQ0PPJUT","","img/set1/S1.jpg","68","1","structured_normal","83","false","structured_normal,structured_incentive,random","1,2,2,3","",""
"null","","html-keyboard-response","174","197322","0.0-103.0","3IAEQB9FMF6YL1JQ3YLYBUIWOBDWD2","A24LB89P1BPKKF","3DFYDSXB2WMWAZWJRSN67LWQ0PPJUT","","<img src=""img/set1/S1.jpg"" width=""540"" height = ""360"">","null","","","","","","","",""
"null","","html-keyboard-response","175","197324","0.0-104.0","3IAEQB9FMF6YL1JQ3YLYBUIWOBDWD2","A24LB89P1BPKKF","3DFYDSXB2WMWAZWJRSN67LWQ0PPJUT","","","null","","","","","","","",""
"845.3000001907349","","image-keyboard-response","176","198171","0.0-105.0","3IAEQB9FMF6YL1JQ3YLYBUIWOBDWD2","A24LB89P1BPKKF","3DFYDSXB2WMWAZWJRSN67LWQ0PPJUT","","img/set1/S3.jpg","74","3","structured_normal","72","false","structured_normal,structured_incentive,random","1,2,2,3","",""
"null","","html-keyboard-response","177","198525","0.0-106.0","3IAEQB9FMF6YL1JQ3YLYBUIWOBDWD2","A24LB89P1BPKKF","3DFYDSXB2WMWAZWJRSN67LWQ0PPJUT","","<img src=""img/set1/S3.jpg"" width=""540"" height = ""360"">","null","","","","","","","",""
"null","","html-keyboard-response","178","198527","0.0-107.0","3IAEQB9FMF6YL1JQ3YLYBUIWOBDWD2","A24LB89P1BPKKF","3DFYDSXB2WMWAZWJRSN67LWQ0PPJUT","","","null","","","","","","","",""
"1051.1999998092651","","image-keyboard-response","179","199580","0.0-108.0","3IAEQB9FMF6YL1JQ3YLYBUIWOBDWD2","A24LB89P1BPKKF","3DFYDSXB2WMWAZWJRSN67LWQ0PPJUT","","img/set1/S2.jpg","83","2","structured_normal","68","false","structured_normal,structured_incentive,random","1,2,2,3","",""
"null","","html-keyboard-response","180","199932","0.0-109.0","3IAEQB9FMF6YL1JQ3YLYBUIWOBDWD2","A24LB89P1BPKKF","3DFYDSXB2WMWAZWJRSN67LWQ0PPJUT","","<img src=""img/set1/S2.jpg"" width=""540"" height = ""360"">","null","","","","","","","",""
"null","","html-keyboard-response","181","199934","0.0-110.0","3IAEQB9FMF6YL1JQ3YLYBUIWOBDWD2","A24LB89P1BPKKF","3DFYDSXB2WMWAZWJRSN67LWQ0PPJUT","","","null","","","","","","","",""
"977.4000000953674","","image-keyboard-response","182","200913","0.0-111.0","3IAEQB9FMF6YL1JQ3YLYBUIWOBDWD2","A24LB89P1BPKKF","3DFYDSXB2WMWAZWJRSN67LWQ0PPJUT","","img/set1/S1.jpg","83","1","structured_normal","83","true","structured_normal,structured_incentive,random","1,2,2,3","",""
"null","","html-keyboard-response","183","201266","0.0-112.0","3IAEQB9FMF6YL1JQ3YLYBUIWOBDWD2","A24LB89P1BPKKF","3DFYDSXB2WMWAZWJRSN67LWQ0PPJUT","","<img src=""img/set1/S1.jpg"" width=""540"" height = ""360"" style=""border:16px solid orange"">","null","","","","","","","",""
"null","","html-keyboard-response","184","201269","0.0-113.0","3IAEQB9FMF6YL1JQ3YLYBUIWOBDWD2","A24LB89P1BPKKF","3DFYDSXB2WMWAZWJRSN67LWQ0PPJUT","","","null","","","","","","","",""
"1206.2999997138977","","image-keyboard-response","185","202477","0.0-114.0","3IAEQB9FMF6YL1JQ3YLYBUIWOBDWD2","A24LB89P1BPKKF","3DFYDSXB2WMWAZWJRSN67LWQ0PPJUT","","img/set1/S2.jpg","68","2","structured_normal","68","true","structured_normal,structured_incentive,random","1,2,2,3","",""
"null","","html-keyboard-response","186","202829","0.0-115.0","3IAEQB9FMF6YL1JQ3YLYBUIWOBDWD2","A24LB89P1BPKKF","3DFYDSXB2WMWAZWJRSN67LWQ0PPJUT","","<img src=""img/set1/S2.jpg"" width=""540"" height = ""360"" style=""border:16px solid orange"">","null","","","","","","","",""
"null","","html-keyboard-response","187","202833","0.0-116.0","3IAEQB9FMF6YL1JQ3YLYBUIWOBDWD2","A24LB89P1BPKKF","3DFYDSXB2WMWAZWJRSN67LWQ0PPJUT","","","null","","","","","","","",""
"979.9000000953674","","image-keyboard-response","188","203815","0.0-117.0","3IAEQB9FMF6YL1JQ3YLYBUIWOBDWD2","A24LB89P1BPKKF","3DFYDSXB2WMWAZWJRSN67LWQ0PPJUT","","img/set1/S4.jpg","72","4","structured_normal","74","false","structured_normal,structured_incentive,random","1,2,2,3","",""
"null","","html-keyboard-response","189","204168","0.0-118.0","3IAEQB9FMF6YL1JQ3YLYBUIWOBDWD2","A24LB89P1BPKKF","3DFYDSXB2WMWAZWJRSN67LWQ0PPJUT","","<img src=""img/set1/S4.jpg"" width=""540"" height = ""360"">","null","","","","","","","",""
"null","","html-keyboard-response","190","204171","0.0-119.0","3IAEQB9FMF6YL1JQ3YLYBUIWOBDWD2","A24LB89P1BPKKF","3DFYDSXB2WMWAZWJRSN67LWQ0PPJUT","","","null","","","","","","","",""
"482.7000002861023","","image-keyboard-response","191","204656","0.0-120.0","3IAEQB9FMF6YL1JQ3YLYBUIWOBDWD2","A24LB89P1BPKKF","3DFYDSXB2WMWAZWJRSN67LWQ0PPJUT","","img/set1/S4.jpg","74","4","structured_normal","74","true","structured_normal,structured_incentive,random","1,2,2,3","",""
"null","","html-keyboard-response","192","205010","0.0-121.0","3IAEQB9FMF6YL1JQ3YLYBUIWOBDWD2","A24LB89P1BPKKF","3DFYDSXB2WMWAZWJRSN67LWQ0PPJUT","","<img src=""img/set1/S4.jpg"" width=""540"" height = ""360"" style=""border:16px solid orange"">","null","","","","","","","",""
"null","","html-keyboard-response","193","205013","0.0-122.0","3IAEQB9FMF6YL1JQ3YLYBUIWOBDWD2","A24LB89P1BPKKF","3DFYDSXB2WMWAZWJRSN67LWQ0PPJUT","","","null","","","","","","","",""
"1648.2000002861023","","image-keyboard-response","194","206663","0.0-123.0","3IAEQB9FMF6YL1JQ3YLYBUIWOBDWD2","A24LB89P1BPKKF","3DFYDSXB2WMWAZWJRSN67LWQ0PPJUT","","img/set1/S3.jpg","72","3","structured_normal","72","true","structured_normal,structured_incentive,random","1,2,2,3","",""
"null","","html-keyboard-response","195","207015","0.0-124.0","3IAEQB9FMF6YL1JQ3YLYBUIWOBDWD2","A24LB89P1BPKKF","3DFYDSXB2WMWAZWJRSN67LWQ0PPJUT","","<img src=""img/set1/S3.jpg"" width=""540"" height = ""360"" style=""border:16px solid orange"">","null","","","","","","","",""
"null","","html-keyboard-response","196","207018","0.0-125.0","3IAEQB9FMF6YL1JQ3YLYBUIWOBDWD2","A24LB89P1BPKKF","3DFYDSXB2WMWAZWJRSN67LWQ0PPJUT","","","null","","","","","","","",""
"563","","image-keyboard-response","197","207583","0.0-126.0","3IAEQB9FMF6YL1JQ3YLYBUIWOBDWD2","A24LB89P1BPKKF","3DFYDSXB2WMWAZWJRSN67LWQ0PPJUT","","img/set1/S3.jpg","72","3","structured_normal","72","true","structured_normal,structured_incentive,random","1,2,2,3","",""
"null","","html-keyboard-response","198","207935","0.0-127.0","3IAEQB9FMF6YL1JQ3YLYBUIWOBDWD2","A24LB89P1BPKKF","3DFYDSXB2WMWAZWJRSN67LWQ0PPJUT","","<img src=""img/set1/S3.jpg"" width=""540"" height = ""360"" style=""border:16px solid orange"">","null","","","","","","","",""
"null","","html-keyboard-response","199","207938","0.0-128.0","3IAEQB9FMF6YL1JQ3YLYBUIWOBDWD2","A24LB89P1BPKKF","3DFYDSXB2WMWAZWJRSN67LWQ0PPJUT","","","null","","","","","","","",""
"917.1999998092651","","image-keyboard-response","200","208857","0.0-129.0","3IAEQB9FMF6YL1JQ3YLYBUIWOBDWD2","A24LB89P1BPKKF","3DFYDSXB2WMWAZWJRSN67LWQ0PPJUT","","img/set1/S4.jpg","74","4","structured_normal","74","true","structured_normal,structured_incentive,random","1,2,2,3","",""
"null","","html-keyboard-response","201","209210","0.0-130.0","3IAEQB9FMF6YL1JQ3YLYBUIWOBDWD2","A24LB89P1BPKKF","3DFYDSXB2WMWAZWJRSN67LWQ0PPJUT","","<img src=""img/set1/S4.jpg"" width=""540"" height = ""360"" style=""border:16px solid orange"">","null","","","","","","","",""
"null","","html-keyboard-response","202","209212","0.0-131.0","3IAEQB9FMF6YL1JQ3YLYBUIWOBDWD2","A24LB89P1BPKKF","3DFYDSXB2WMWAZWJRSN67LWQ0PPJUT","","","null","","","","","","","",""
"640.6999998092651","","image-keyboard-response","203","209855","0.0-132.0","3IAEQB9FMF6YL1JQ3YLYBUIWOBDWD2","A24LB89P1BPKKF","3DFYDSXB2WMWAZWJRSN67LWQ0PPJUT","","img/set1/S4.jpg","74","4","structured_normal","74","true","structured_normal,structured_incentive,random","1,2,2,3","",""
"null","","html-keyboard-response","204","210208","0.0-133.0","3IAEQB9FMF6YL1JQ3YLYBUIWOBDWD2","A24LB89P1BPKKF","3DFYDSXB2WMWAZWJRSN67LWQ0PPJUT","","<img src=""img/set1/S4.jpg"" width=""540"" height = ""360"" style=""border:16px solid orange"">","null","","","","","","","",""
"null","","html-keyboard-response","205","210210","0.0-134.0","3IAEQB9FMF6YL1JQ3YLYBUIWOBDWD2","A24LB89P1BPKKF","3DFYDSXB2WMWAZWJRSN67LWQ0PPJUT","","","null","","","","","","","",""
"656","","image-keyboard-response","206","210868","0.0-135.0","3IAEQB9FMF6YL1JQ3YLYBUIWOBDWD2","A24LB89P1BPKKF","3DFYDSXB2WMWAZWJRSN67LWQ0PPJUT","","img/set1/S3.jpg","72","3","structured_normal","72","true","structured_normal,structured_incentive,random","1,2,2,3","",""
"null","","html-keyboard-response","207","211222","0.0-136.0","3IAEQB9FMF6YL1JQ3YLYBUIWOBDWD2","A24LB89P1BPKKF","3DFYDSXB2WMWAZWJRSN67LWQ0PPJUT","","<img src=""img/set1/S3.jpg"" width=""540"" height = ""360"" style=""border:16px solid orange"">","null","","","","","","","",""
"null","","html-keyboard-response","208","211225","0.0-137.0","3IAEQB9FMF6YL1JQ3YLYBUIWOBDWD2","A24LB89P1BPKKF","3DFYDSXB2WMWAZWJRSN67LWQ0PPJUT","","","null","","","","","","","",""
"457.5","","image-keyboard-response","209","211684","0.0-138.0","3IAEQB9FMF6YL1JQ3YLYBUIWOBDWD2","A24LB89P1BPKKF","3DFYDSXB2WMWAZWJRSN67LWQ0PPJUT","","img/set1/S4.jpg","74","4","structured_normal","74","true","structured_normal,structured_incentive,random","1,2,2,3","",""
"null","","html-keyboard-response","210","212037","0.0-139.0","3IAEQB9FMF6YL1JQ3YLYBUIWOBDWD2","A24LB89P1BPKKF","3DFYDSXB2WMWAZWJRSN67LWQ0PPJUT","","<img src=""img/set1/S4.jpg"" width=""540"" height = ""360"" style=""border:16px solid orange"">","null","","","","","","","",""
"null","","html-keyboard-response","211","212040","0.0-140.0","3IAEQB9FMF6YL1JQ3YLYBUIWOBDWD2","A24LB89P1BPKKF","3DFYDSXB2WMWAZWJRSN67LWQ0PPJUT","","","null","","","","","","","",""
"810.3000001907349","","image-keyboard-response","212","212852","0.0-141.0","3IAEQB9FMF6YL1JQ3YLYBUIWOBDWD2","A24LB89P1BPKKF","3DFYDSXB2WMWAZWJRSN67LWQ0PPJUT","","img/set1/S1.jpg","83","1","structured_normal","83","true","structured_normal,structured_incentive,random","1,2,2,3","",""
"null","","html-keyboard-response","213","213205","0.0-142.0","3IAEQB9FMF6YL1JQ3YLYBUIWOBDWD2","A24LB89P1BPKKF","3DFYDSXB2WMWAZWJRSN67LWQ0PPJUT","","<img src=""img/set1/S1.jpg"" width=""540"" height = ""360"" style=""border:16px solid orange"">","null","","","","","","","",""
"null","","html-keyboard-response","214","213208","0.0-143.0","3IAEQB9FMF6YL1JQ3YLYBUIWOBDWD2","A24LB89P1BPKKF","3DFYDSXB2WMWAZWJRSN67LWQ0PPJUT","","","null","","","","","","","",""
"561.9000000953674","","image-keyboard-response","215","213772","0.0-144.0","3IAEQB9FMF6YL1JQ3YLYBUIWOBDWD2","A24LB89P1BPKKF","3DFYDSXB2WMWAZWJRSN67LWQ0PPJUT","","img/set1/S2.jpg","68","2","structured_normal","68","true","structured_normal,structured_incentive,random","1,2,2,3","",""
"null","","html-keyboard-response","216","214124","0.0-145.0","3IAEQB9FMF6YL1JQ3YLYBUIWOBDWD2","A24LB89P1BPKKF","3DFYDSXB2WMWAZWJRSN67LWQ0PPJUT","","<img src=""img/set1/S2.jpg"" width=""540"" height = ""360"" style=""border:16px solid orange"">","null","","","","","","","",""
"null","","html-keyboard-response","217","214127","0.0-146.0","3IAEQB9FMF6YL1JQ3YLYBUIWOBDWD2","A24LB89P1BPKKF","3DFYDSXB2WMWAZWJRSN67LWQ0PPJUT","","","null","","","","","","","",""
"614.6999998092651","","image-keyboard-response","218","214743","0.0-147.0","3IAEQB9FMF6YL1JQ3YLYBUIWOBDWD2","A24LB89P1BPKKF","3DFYDSXB2WMWAZWJRSN67LWQ0PPJUT","","img/set1/S2.jpg","68","2","structured_normal","68","true","structured_normal,structured_incentive,random","1,2,2,3","",""
"null","","html-keyboard-response","219","215097","0.0-148.0","3IAEQB9FMF6YL1JQ3YLYBUIWOBDWD2","A24LB89P1BPKKF","3DFYDSXB2WMWAZWJRSN67LWQ0PPJUT","","<img src=""img/set1/S2.jpg"" width=""540"" height = ""360"" style=""border:16px solid orange"">","null","","","","","","","",""
"null","","html-keyboard-response","220","215100","0.0-149.0","3IAEQB9FMF6YL1JQ3YLYBUIWOBDWD2","A24LB89P1BPKKF","3DFYDSXB2WMWAZWJRSN67LWQ0PPJUT","","","null","","","","","","","",""
"657.1000003814697","","image-keyboard-response","221","215760","0.0-150.0","3IAEQB9FMF6YL1JQ3YLYBUIWOBDWD2","A24LB89P1BPKKF","3DFYDSXB2WMWAZWJRSN67LWQ0PPJUT","","img/set1/S1.jpg","83","1","structured_normal","83","true","structured_normal,structured_incentive,random","1,2,2,3","",""
"null","","html-keyboard-response","222","216113","0.0-151.0","3IAEQB9FMF6YL1JQ3YLYBUIWOBDWD2","A24LB89P1BPKKF","3DFYDSXB2WMWAZWJRSN67LWQ0PPJUT","","<img src=""img/set1/S1.jpg"" width=""540"" height = ""360"" style=""border:16px solid orange"">","null","","","","","","","",""
"null","","html-keyboard-response","223","216116","0.0-152.0","3IAEQB9FMF6YL1JQ3YLYBUIWOBDWD2","A24LB89P1BPKKF","3DFYDSXB2WMWAZWJRSN67LWQ0PPJUT","","","null","","","","","","","",""
"521.8999996185303","","image-keyboard-response","224","216640","0.0-153.0","3IAEQB9FMF6YL1JQ3YLYBUIWOBDWD2","A24LB89P1BPKKF","3DFYDSXB2WMWAZWJRSN67LWQ0PPJUT","","img/set1/S2.jpg","68","2","structured_normal","68","true","structured_normal,structured_incentive,random","1,2,2,3","",""
"null","","html-keyboard-response","225","216993","0.0-154.0","3IAEQB9FMF6YL1JQ3YLYBUIWOBDWD2","A24LB89P1BPKKF","3DFYDSXB2WMWAZWJRSN67LWQ0PPJUT","","<img src=""img/set1/S2.jpg"" width=""540"" height = ""360"" style=""border:16px solid orange"">","null","","","","","","","",""
"null","","html-keyboard-response","226","216996","0.0-155.0","3IAEQB9FMF6YL1JQ3YLYBUIWOBDWD2","A24LB89P1BPKKF","3DFYDSXB2WMWAZWJRSN67LWQ0PPJUT","","","null","","","","","","","",""
"890.5","","image-keyboard-response","227","217888","0.0-156.0","3IAEQB9FMF6YL1JQ3YLYBUIWOBDWD2","A24LB89P1BPKKF","3DFYDSXB2WMWAZWJRSN67LWQ0PPJUT","","img/set1/S4.jpg","74","4","structured_normal","74","true","structured_normal,structured_incentive,random","1,2,2,3","",""
"null","","html-keyboard-response","228","218241","0.0-157.0","3IAEQB9FMF6YL1JQ3YLYBUIWOBDWD2","A24LB89P1BPKKF","3DFYDSXB2WMWAZWJRSN67LWQ0PPJUT","","<img src=""img/set1/S4.jpg"" width=""540"" height = ""360"" style=""border:16px solid orange"">","null","","","","","","","",""
"null","","html-keyboard-response","229","218244","0.0-158.0","3IAEQB9FMF6YL1JQ3YLYBUIWOBDWD2","A24LB89P1BPKKF","3DFYDSXB2WMWAZWJRSN67LWQ0PPJUT","","","null","","","","","","","",""
"394","","image-keyboard-response","230","218641","0.0-159.0","3IAEQB9FMF6YL1JQ3YLYBUIWOBDWD2","A24LB89P1BPKKF","3DFYDSXB2WMWAZWJRSN67LWQ0PPJUT","","img/set1/S4.jpg","74","4","structured_normal","74","true","structured_normal,structured_incentive,random","1,2,2,3","",""
"null","","html-keyboard-response","231","218994","0.0-160.0","3IAEQB9FMF6YL1JQ3YLYBUIWOBDWD2","A24LB89P1BPKKF","3DFYDSXB2WMWAZWJRSN67LWQ0PPJUT","","<img src=""img/set1/S4.jpg"" width=""540"" height = ""360"" style=""border:16px solid orange"">","null","","","","","","","",""
"null","","html-keyboard-response","232","218997","0.0-161.0","3IAEQB9FMF6YL1JQ3YLYBUIWOBDWD2","A24LB89P1BPKKF","3DFYDSXB2WMWAZWJRSN67LWQ0PPJUT","","","null","","","","","","","",""
"633.8999996185303","","image-keyboard-response","233","219633","0.0-162.0","3IAEQB9FMF6YL1JQ3YLYBUIWOBDWD2","A24LB89P1BPKKF","3DFYDSXB2WMWAZWJRSN67LWQ0PPJUT","","img/set1/S3.jpg","72","3","structured_normal","72","true","structured_normal,structured_incentive,random","1,2,2,3","",""
"null","","html-keyboard-response","234","219986","0.0-163.0","3IAEQB9FMF6YL1JQ3YLYBUIWOBDWD2","A24LB89P1BPKKF","3DFYDSXB2WMWAZWJRSN67LWQ0PPJUT","","<img src=""img/set1/S3.jpg"" width=""540"" height = ""360"" style=""border:16px solid orange"">","null","","","","","","","",""
"null","","html-keyboard-response","235","219989","0.0-164.0","3IAEQB9FMF6YL1JQ3YLYBUIWOBDWD2","A24LB89P1BPKKF","3DFYDSXB2WMWAZWJRSN67LWQ0PPJUT","","","null","","","","","","","",""
"568.9000000953674","","image-keyboard-response","236","220560","0.0-165.0","3IAEQB9FMF6YL1JQ3YLYBUIWOBDWD2","A24LB89P1BPKKF","3DFYDSXB2WMWAZWJRSN67LWQ0PPJUT","","img/set1/S4.jpg","74","4","structured_normal","74","true","structured_normal,structured_incentive,random","1,2,2,3","",""
"null","","html-keyboard-response","237","220913","0.0-166.0","3IAEQB9FMF6YL1JQ3YLYBUIWOBDWD2","A24LB89P1BPKKF","3DFYDSXB2WMWAZWJRSN67LWQ0PPJUT","","<img src=""img/set1/S4.jpg"" width=""540"" height = ""360"" style=""border:16px solid orange"">","null","","","","","","","",""
"null","","html-keyboard-response","238","220916","0.0-167.0","3IAEQB9FMF6YL1JQ3YLYBUIWOBDWD2","A24LB89P1BPKKF","3DFYDSXB2WMWAZWJRSN67LWQ0PPJUT","","","null","","","","","","","",""
"438.6000003814697","","image-keyboard-response","239","221356","0.0-168.0","3IAEQB9FMF6YL1JQ3YLYBUIWOBDWD2","A24LB89P1BPKKF","3DFYDSXB2WMWAZWJRSN67LWQ0PPJUT","","img/set1/S4.jpg","74","4","structured_normal","74","true","structured_normal,structured_incentive,random","1,2,2,3","",""
"null","","html-keyboard-response","240","221713","0.0-169.0","3IAEQB9FMF6YL1JQ3YLYBUIWOBDWD2","A24LB89P1BPKKF","3DFYDSXB2WMWAZWJRSN67LWQ0PPJUT","","<img src=""img/set1/S4.jpg"" width=""540"" height = ""360"" style=""border:16px solid orange"">","null","","","","","","","",""
"null","","html-keyboard-response","241","221716","0.0-170.0","3IAEQB9FMF6YL1JQ3YLYBUIWOBDWD2","A24LB89P1BPKKF","3DFYDSXB2WMWAZWJRSN67LWQ0PPJUT","","","null","","","","","","","",""
"749.6999998092651","","image-keyboard-response","242","222469","0.0-171.0","3IAEQB9FMF6YL1JQ3YLYBUIWOBDWD2","A24LB89P1BPKKF","3DFYDSXB2WMWAZWJRSN67LWQ0PPJUT","","img/set1/S2.jpg","83","2","structured_normal","68","false","structured_normal,structured_incentive,random","1,2,2,3","",""
"null","","html-keyboard-response","243","222822","0.0-172.0","3IAEQB9FMF6YL1JQ3YLYBUIWOBDWD2","A24LB89P1BPKKF","3DFYDSXB2WMWAZWJRSN67LWQ0PPJUT","","<img src=""img/set1/S2.jpg"" width=""540"" height = ""360"">","null","","","","","","","",""
"null","","html-keyboard-response","244","222824","0.0-173.0","3IAEQB9FMF6YL1JQ3YLYBUIWOBDWD2","A24LB89P1BPKKF","3DFYDSXB2WMWAZWJRSN67LWQ0PPJUT","","","null","","","","","","","",""
"821.5999999046326","","image-keyboard-response","245","223648","0.0-174.0","3IAEQB9FMF6YL1JQ3YLYBUIWOBDWD2","A24LB89P1BPKKF","3DFYDSXB2WMWAZWJRSN67LWQ0PPJUT","","img/set1/S1.jpg","68","1","structured_normal","83","false","structured_normal,structured_incentive,random","1,2,2,3","",""
"null","","html-keyboard-response","246","224001","0.0-175.0","3IAEQB9FMF6YL1JQ3YLYBUIWOBDWD2","A24LB89P1BPKKF","3DFYDSXB2WMWAZWJRSN67LWQ0PPJUT","","<img src=""img/set1/S1.jpg"" width=""540"" height = ""360"">","null","","","","","","","",""
"null","","html-keyboard-response","247","224008","0.0-176.0","3IAEQB9FMF6YL1JQ3YLYBUIWOBDWD2","A24LB89P1BPKKF","3DFYDSXB2WMWAZWJRSN67LWQ0PPJUT","","","null","","","","","","","",""
"701.3000001907349","","image-keyboard-response","248","224711","0.0-177.0","3IAEQB9FMF6YL1JQ3YLYBUIWOBDWD2","A24LB89P1BPKKF","3DFYDSXB2WMWAZWJRSN67LWQ0PPJUT","","img/set1/S2.jpg","83","2","structured_normal","68","false","structured_normal,structured_incentive,random","1,2,2,3","",""
"null","","html-keyboard-response","249","225064","0.0-178.0","3IAEQB9FMF6YL1JQ3YLYBUIWOBDWD2","A24LB89P1BPKKF","3DFYDSXB2WMWAZWJRSN67LWQ0PPJUT","","<img src=""img/set1/S2.jpg"" width=""540"" height = ""360"">","null","","","","","","","",""
"null","","html-keyboard-response","250","225067","0.0-179.0","3IAEQB9FMF6YL1JQ3YLYBUIWOBDWD2","A24LB89P1BPKKF","3DFYDSXB2WMWAZWJRSN67LWQ0PPJUT","","","null","","","","","","","",""
"1084.5","","image-keyboard-response","251","226154","0.0-180.0","3IAEQB9FMF6YL1JQ3YLYBUIWOBDWD2","A24LB89P1BPKKF","3DFYDSXB2WMWAZWJRSN67LWQ0PPJUT","","img/set1/S4.jpg","74","4","structured_normal","74","true","structured_normal,structured_incentive,random","1,2,2,3","",""
"null","","html-keyboard-response","252","226507","0.0-181.0","3IAEQB9FMF6YL1JQ3YLYBUIWOBDWD2","A24LB89P1BPKKF","3DFYDSXB2WMWAZWJRSN67LWQ0PPJUT","","<img src=""img/set1/S4.jpg"" width=""540"" height = ""360"" style=""border:16px solid orange"">","null","","","","","","","",""
"null","","html-keyboard-response","253","226510","0.0-182.0","3IAEQB9FMF6YL1JQ3YLYBUIWOBDWD2","A24LB89P1BPKKF","3DFYDSXB2WMWAZWJRSN67LWQ0PPJUT","","","null","","","","","","","",""
"924.7999997138977","","image-keyboard-response","254","227436","0.0-183.0","3IAEQB9FMF6YL1JQ3YLYBUIWOBDWD2","A24LB89P1BPKKF","3DFYDSXB2WMWAZWJRSN67LWQ0PPJUT","","img/set1/S1.jpg","83","1","structured_normal","83","true","structured_normal,structured_incentive,random","1,2,2,3","",""
"null","","html-keyboard-response","255","227789","0.0-184.0","3IAEQB9FMF6YL1JQ3YLYBUIWOBDWD2","A24LB89P1BPKKF","3DFYDSXB2WMWAZWJRSN67LWQ0PPJUT","","<img src=""img/set1/S1.jpg"" width=""540"" height = ""360"" style=""border:16px solid orange"">","null","","","","","","","",""
"null","","html-keyboard-response","256","227791","0.0-185.0","3IAEQB9FMF6YL1JQ3YLYBUIWOBDWD2","A24LB89P1BPKKF","3DFYDSXB2WMWAZWJRSN67LWQ0PPJUT","","","null","","","","","","","",""
"674.3000001907349","","image-keyboard-response","257","228467","0.0-186.0","3IAEQB9FMF6YL1JQ3YLYBUIWOBDWD2","A24LB89P1BPKKF","3DFYDSXB2WMWAZWJRSN67LWQ0PPJUT","","img/set1/S2.jpg","72","2","structured_normal","68","false","structured_normal,structured_incentive,random","1,2,2,3","",""
"null","","html-keyboard-response","258","228819","0.0-187.0","3IAEQB9FMF6YL1JQ3YLYBUIWOBDWD2","A24LB89P1BPKKF","3DFYDSXB2WMWAZWJRSN67LWQ0PPJUT","","<img src=""img/set1/S2.jpg"" width=""540"" height = ""360"">","null","","","","","","","",""
"null","","html-keyboard-response","259","228822","0.0-188.0","3IAEQB9FMF6YL1JQ3YLYBUIWOBDWD2","A24LB89P1BPKKF","3DFYDSXB2WMWAZWJRSN67LWQ0PPJUT","","","null","","","","","","","",""
"184.2999997138977","","image-keyboard-response","260","229009","0.0-189.0","3IAEQB9FMF6YL1JQ3YLYBUIWOBDWD2","A24LB89P1BPKKF","3DFYDSXB2WMWAZWJRSN67LWQ0PPJUT","","img/set1/S1.jpg","68","1","structured_normal","83","false","structured_normal,structured_incentive,random","1,2,2,3","",""
"null","","html-keyboard-response","261","229363","0.0-190.0","3IAEQB9FMF6YL1JQ3YLYBUIWOBDWD2","A24LB89P1BPKKF","3DFYDSXB2WMWAZWJRSN67LWQ0PPJUT","","<img src=""img/set1/S1.jpg"" width=""540"" height = ""360"">","null","","","","","","","",""
"null","","html-keyboard-response","262","229366","0.0-191.0","3IAEQB9FMF6YL1JQ3YLYBUIWOBDWD2","A24LB89P1BPKKF","3DFYDSXB2WMWAZWJRSN67LWQ0PPJUT","","","null","","","","","","","",""
"162.7000002861023","","image-keyboard-response","263","229531","0.0-192.0","3IAEQB9FMF6YL1JQ3YLYBUIWOBDWD2","A24LB89P1BPKKF","3DFYDSXB2WMWAZWJRSN67LWQ0PPJUT","","img/set1/S2.jpg","83","2","structured_normal","68","false","structured_normal,structured_incentive,random","1,2,2,3","",""
"null","","html-keyboard-response","264","229883","0.0-193.0","3IAEQB9FMF6YL1JQ3YLYBUIWOBDWD2","A24LB89P1BPKKF","3DFYDSXB2WMWAZWJRSN67LWQ0PPJUT","","<img src=""img/set1/S2.jpg"" width=""540"" height = ""360"">","null","","","","","","","",""
"null","","html-keyboard-response","265","229886","0.0-194.0","3IAEQB9FMF6YL1JQ3YLYBUIWOBDWD2","A24LB89P1BPKKF","3DFYDSXB2WMWAZWJRSN67LWQ0PPJUT","","","null","","","","","","","",""
"819.5999999046326","","image-keyboard-response","266","230708","0.0-195.0","3IAEQB9FMF6YL1JQ3YLYBUIWOBDWD2","A24LB89P1BPKKF","3DFYDSXB2WMWAZWJRSN67LWQ0PPJUT","","img/set1/S1.jpg","83","1","structured_normal","83","true","structured_normal,structured_incentive,random","1,2,2,3","",""
"null","","html-keyboard-response","267","231060","0.0-196.0","3IAEQB9FMF6YL1JQ3YLYBUIWOBDWD2","A24LB89P1BPKKF","3DFYDSXB2WMWAZWJRSN67LWQ0PPJUT","","<img src=""img/set1/S1.jpg"" width=""540"" height = ""360"" style=""border:16px solid orange"">","null","","","","","","","",""
"null","","html-keyboard-response","268","231063","0.0-197.0","3IAEQB9FMF6YL1JQ3YLYBUIWOBDWD2","A24LB89P1BPKKF","3DFYDSXB2WMWAZWJRSN67LWQ0PPJUT","","","null","","","","","","","",""
"1079.6999998092651","","image-keyboard-response","269","232145","0.0-198.0","3IAEQB9FMF6YL1JQ3YLYBUIWOBDWD2","A24LB89P1BPKKF","3DFYDSXB2WMWAZWJRSN67LWQ0PPJUT","","img/set1/S3.jpg","68","3","structured_normal","72","false","structured_normal,structured_incentive,random","1,2,2,3","",""
"null","","html-keyboard-response","270","232506","0.0-199.0","3IAEQB9FMF6YL1JQ3YLYBUIWOBDWD2","A24LB89P1BPKKF","3DFYDSXB2WMWAZWJRSN67LWQ0PPJUT","","<img src=""img/set1/S3.jpg"" width=""540"" height = ""360"">","null","","","","","","","",""
"null","","html-keyboard-response","271","232508","0.0-200.0","3IAEQB9FMF6YL1JQ3YLYBUIWOBDWD2","A24LB89P1BPKKF","3DFYDSXB2WMWAZWJRSN67LWQ0PPJUT","","","null","","","","","","","",""
"683.7000002861023","","image-keyboard-response","272","233194","0.0-201.0","3IAEQB9FMF6YL1JQ3YLYBUIWOBDWD2","A24LB89P1BPKKF","3DFYDSXB2WMWAZWJRSN67LWQ0PPJUT","","img/set1/S4.jpg","74","4","structured_normal","74","true","structured_normal,structured_incentive,random","1,2,2,3","",""
"null","","html-keyboard-response","273","233547","0.0-202.0","3IAEQB9FMF6YL1JQ3YLYBUIWOBDWD2","A24LB89P1BPKKF","3DFYDSXB2WMWAZWJRSN67LWQ0PPJUT","","<img src=""img/set1/S4.jpg"" width=""540"" height = ""360"" style=""border:16px solid orange"">","null","","","","","","","",""
"null","","html-keyboard-response","274","233549","0.0-203.0","3IAEQB9FMF6YL1JQ3YLYBUIWOBDWD2","A24LB89P1BPKKF","3DFYDSXB2WMWAZWJRSN67LWQ0PPJUT","","","null","","","","","","","",""
"785.5","","image-keyboard-response","275","234337","0.0-204.0","3IAEQB9FMF6YL1JQ3YLYBUIWOBDWD2","A24LB89P1BPKKF","3DFYDSXB2WMWAZWJRSN67LWQ0PPJUT","","img/set1/S1.jpg","68","1","structured_normal","83","false","structured_normal,structured_incentive,random","1,2,2,3","",""
"null","","html-keyboard-response","276","234691","0.0-205.0","3IAEQB9FMF6YL1JQ3YLYBUIWOBDWD2","A24LB89P1BPKKF","3DFYDSXB2WMWAZWJRSN67LWQ0PPJUT","","<img src=""img/set1/S1.jpg"" width=""540"" height = ""360"">","null","","","","","","","",""
"null","","html-keyboard-response","277","234694","0.0-206.0","3IAEQB9FMF6YL1JQ3YLYBUIWOBDWD2","A24LB89P1BPKKF","3DFYDSXB2WMWAZWJRSN67LWQ0PPJUT","","","null","","","","","","","",""
"700.7999997138977","","image-keyboard-response","278","235397","0.0-207.0","3IAEQB9FMF6YL1JQ3YLYBUIWOBDWD2","A24LB89P1BPKKF","3DFYDSXB2WMWAZWJRSN67LWQ0PPJUT","","img/set1/S2.jpg","83","2","structured_normal","68","false","structured_normal,structured_incentive,random","1,2,2,3","",""
"null","","html-keyboard-response","279","235749","0.0-208.0","3IAEQB9FMF6YL1JQ3YLYBUIWOBDWD2","A24LB89P1BPKKF","3DFYDSXB2WMWAZWJRSN67LWQ0PPJUT","","<img src=""img/set1/S2.jpg"" width=""540"" height = ""360"">","null","","","","","","","",""
"null","","html-keyboard-response","280","235752","0.0-209.0","3IAEQB9FMF6YL1JQ3YLYBUIWOBDWD2","A24LB89P1BPKKF","3DFYDSXB2WMWAZWJRSN67LWQ0PPJUT","","","null","","","","","","","",""
"1096.5999999046326","","image-keyboard-response","281","236851","0.0-210.0","3IAEQB9FMF6YL1JQ3YLYBUIWOBDWD2","A24LB89P1BPKKF","3DFYDSXB2WMWAZWJRSN67LWQ0PPJUT","","img/set1/S4.jpg","72","4","structured_normal","74","false","structured_normal,structured_incentive,random","1,2,2,3","",""
"null","","html-keyboard-response","282","237204","0.0-211.0","3IAEQB9FMF6YL1JQ3YLYBUIWOBDWD2","A24LB89P1BPKKF","3DFYDSXB2WMWAZWJRSN67LWQ0PPJUT","","<img src=""img/set1/S4.jpg"" width=""540"" height = ""360"">","null","","","","","","","",""
"null","","html-keyboard-response","283","237206","0.0-212.0","3IAEQB9FMF6YL1JQ3YLYBUIWOBDWD2","A24LB89P1BPKKF","3DFYDSXB2WMWAZWJRSN67LWQ0PPJUT","","","null","","","","","","","",""
"739.7000002861023","","image-keyboard-response","284","237948","0.0-213.0","3IAEQB9FMF6YL1JQ3YLYBUIWOBDWD2","A24LB89P1BPKKF","3DFYDSXB2WMWAZWJRSN67LWQ0PPJUT","","img/set1/S3.jpg","72","3","structured_normal","72","true","structured_normal,structured_incentive,random","1,2,2,3","",""
"null","","html-keyboard-response","285","238300","0.0-214.0","3IAEQB9FMF6YL1JQ3YLYBUIWOBDWD2","A24LB89P1BPKKF","3DFYDSXB2WMWAZWJRSN67LWQ0PPJUT","","<img src=""img/set1/S3.jpg"" width=""540"" height = ""360"" style=""border:16px solid orange"">","null","","","","","","","",""
"null","","html-keyboard-response","286","238302","0.0-215.0","3IAEQB9FMF6YL1JQ3YLYBUIWOBDWD2","A24LB89P1BPKKF","3DFYDSXB2WMWAZWJRSN67LWQ0PPJUT","","","null","","","","","","","",""
"538.0999999046326","","image-keyboard-response","287","238842","0.0-216.0","3IAEQB9FMF6YL1JQ3YLYBUIWOBDWD2","A24LB89P1BPKKF","3DFYDSXB2WMWAZWJRSN67LWQ0PPJUT","","img/set1/S3.jpg","72","3","structured_normal","72","true","structured_normal,structured_incentive,random","1,2,2,3","",""
"null","","html-keyboard-response","288","239194","0.0-217.0","3IAEQB9FMF6YL1JQ3YLYBUIWOBDWD2","A24LB89P1BPKKF","3DFYDSXB2WMWAZWJRSN67LWQ0PPJUT","","<img src=""img/set1/S3.jpg"" width=""540"" height = ""360"" style=""border:16px solid orange"">","null","","","","","","","",""
"null","","html-keyboard-response","289","239197","0.0-218.0","3IAEQB9FMF6YL1JQ3YLYBUIWOBDWD2","A24LB89P1BPKKF","3DFYDSXB2WMWAZWJRSN67LWQ0PPJUT","","","null","","","","","","","",""
"433","","image-keyboard-response","290","239631","0.0-219.0","3IAEQB9FMF6YL1JQ3YLYBUIWOBDWD2","A24LB89P1BPKKF","3DFYDSXB2WMWAZWJRSN67LWQ0PPJUT","","img/set1/S4.jpg","74","4","structured_normal","74","true","structured_normal,structured_incentive,random","1,2,2,3","",""
"null","","html-keyboard-response","291","239984","0.0-220.0","3IAEQB9FMF6YL1JQ3YLYBUIWOBDWD2","A24LB89P1BPKKF","3DFYDSXB2WMWAZWJRSN67LWQ0PPJUT","","<img src=""img/set1/S4.jpg"" width=""540"" height = ""360"" style=""border:16px solid orange"">","null","","","","","","","",""
"null","","html-keyboard-response","292","239987","0.0-221.0","3IAEQB9FMF6YL1JQ3YLYBUIWOBDWD2","A24LB89P1BPKKF","3DFYDSXB2WMWAZWJRSN67LWQ0PPJUT","","","null","","","","","","","",""
"822.0999999046326","","image-keyboard-response","293","240811","0.0-222.0","3IAEQB9FMF6YL1JQ3YLYBUIWOBDWD2","A24LB89P1BPKKF","3DFYDSXB2WMWAZWJRSN67LWQ0PPJUT","","img/set1/S1.jpg","68","1","structured_normal","83","false","structured_normal,structured_incentive,random","1,2,2,3","",""
"null","","html-keyboard-response","294","241163","0.0-223.0","3IAEQB9FMF6YL1JQ3YLYBUIWOBDWD2","A24LB89P1BPKKF","3DFYDSXB2WMWAZWJRSN67LWQ0PPJUT","","<img src=""img/set1/S1.jpg"" width=""540"" height = ""360"">","null","","","","","","","",""
"null","","html-keyboard-response","295","241165","0.0-224.0","3IAEQB9FMF6YL1JQ3YLYBUIWOBDWD2","A24LB89P1BPKKF","3DFYDSXB2WMWAZWJRSN67LWQ0PPJUT","","","null","","","","","","","",""
"696","","image-keyboard-response","296","241863","0.0-225.0","3IAEQB9FMF6YL1JQ3YLYBUIWOBDWD2","A24LB89P1BPKKF","3DFYDSXB2WMWAZWJRSN67LWQ0PPJUT","","img/set1/S3.jpg","74","3","structured_normal","72","false","structured_normal,structured_incentive,random","1,2,2,3","",""
"null","","html-keyboard-response","297","242215","0.0-226.0","3IAEQB9FMF6YL1JQ3YLYBUIWOBDWD2","A24LB89P1BPKKF","3DFYDSXB2WMWAZWJRSN67LWQ0PPJUT","","<img src=""img/set1/S3.jpg"" width=""540"" height = ""360"">","null","","","","","","","",""
"null","","html-keyboard-response","298","242218","0.0-227.0","3IAEQB9FMF6YL1JQ3YLYBUIWOBDWD2","A24LB89P1BPKKF","3DFYDSXB2WMWAZWJRSN67LWQ0PPJUT","","","null","","","","","","","",""
"752.5","","image-keyboard-response","299","242973","0.0-228.0","3IAEQB9FMF6YL1JQ3YLYBUIWOBDWD2","A24LB89P1BPKKF","3DFYDSXB2WMWAZWJRSN67LWQ0PPJUT","","img/set1/S3.jpg","72","3","structured_normal","72","true","structured_normal,structured_incentive,random","1,2,2,3","",""
"null","","html-keyboard-response","300","243325","0.0-229.0","3IAEQB9FMF6YL1JQ3YLYBUIWOBDWD2","A24LB89P1BPKKF","3DFYDSXB2WMWAZWJRSN67LWQ0PPJUT","","<img src=""img/set1/S3.jpg"" width=""540"" height = ""360"" style=""border:16px solid orange"">","null","","","","","","","",""
"null","","html-keyboard-response","301","243327","0.0-230.0","3IAEQB9FMF6YL1JQ3YLYBUIWOBDWD2","A24LB89P1BPKKF","3DFYDSXB2WMWAZWJRSN67LWQ0PPJUT","","","null","","","","","","","",""
"941.8000001907349","","image-keyboard-response","302","244270","0.0-231.0","3IAEQB9FMF6YL1JQ3YLYBUIWOBDWD2","A24LB89P1BPKKF","3DFYDSXB2WMWAZWJRSN67LWQ0PPJUT","","img/set1/S1.jpg","68","1","structured_normal","83","false","structured_normal,structured_incentive,random","1,2,2,3","",""
"null","","html-keyboard-response","303","244624","0.0-232.0","3IAEQB9FMF6YL1JQ3YLYBUIWOBDWD2","A24LB89P1BPKKF","3DFYDSXB2WMWAZWJRSN67LWQ0PPJUT","","<img src=""img/set1/S1.jpg"" width=""540"" height = ""360"">","null","","","","","","","",""
"null","","html-keyboard-response","304","244627","0.0-233.0","3IAEQB9FMF6YL1JQ3YLYBUIWOBDWD2","A24LB89P1BPKKF","3DFYDSXB2WMWAZWJRSN67LWQ0PPJUT","","","null","","","","","","","",""
"1010.9000000953674","","image-keyboard-response","305","245640","0.0-234.0","3IAEQB9FMF6YL1JQ3YLYBUIWOBDWD2","A24LB89P1BPKKF","3DFYDSXB2WMWAZWJRSN67LWQ0PPJUT","","img/set1/S2.jpg","83","2","structured_normal","68","false","structured_normal,structured_incentive,random","1,2,2,3","",""
"null","","html-keyboard-response","306","245995","0.0-235.0","3IAEQB9FMF6YL1JQ3YLYBUIWOBDWD2","A24LB89P1BPKKF","3DFYDSXB2WMWAZWJRSN67LWQ0PPJUT","","<img src=""img/set1/S2.jpg"" width=""540"" height = ""360"">","null","","","","","","","",""
"null","","html-keyboard-response","307","245997","0.0-236.0","3IAEQB9FMF6YL1JQ3YLYBUIWOBDWD2","A24LB89P1BPKKF","3DFYDSXB2WMWAZWJRSN67LWQ0PPJUT","","","null","","","","","","","",""
"1028.1999998092651","","image-keyboard-response","308","247028","0.0-237.0","3IAEQB9FMF6YL1JQ3YLYBUIWOBDWD2","A24LB89P1BPKKF","3DFYDSXB2WMWAZWJRSN67LWQ0PPJUT","","img/set1/S1.jpg","83","1","structured_normal","83","true","structured_normal,structured_incentive,random","1,2,2,3","",""
"null","","html-keyboard-response","309","247380","0.0-238.0","3IAEQB9FMF6YL1JQ3YLYBUIWOBDWD2","A24LB89P1BPKKF","3DFYDSXB2WMWAZWJRSN67LWQ0PPJUT","","<img src=""img/set1/S1.jpg"" width=""540"" height = ""360"" style=""border:16px solid orange"">","null","","","","","","","",""
"null","","html-keyboard-response","310","247383","0.0-239.0","3IAEQB9FMF6YL1JQ3YLYBUIWOBDWD2","A24LB89P1BPKKF","3DFYDSXB2WMWAZWJRSN67LWQ0PPJUT","","","null","","","","","","","",""
"476.40000009536743","","image-keyboard-response","311","247862","0.0-240.0","3IAEQB9FMF6YL1JQ3YLYBUIWOBDWD2","A24LB89P1BPKKF","3DFYDSXB2WMWAZWJRSN67LWQ0PPJUT","","img/set1/S2.jpg","68","2","structured_normal","68","true","structured_normal,structured_incentive,random","1,2,2,3","",""
"null","","html-keyboard-response","312","248216","0.0-241.0","3IAEQB9FMF6YL1JQ3YLYBUIWOBDWD2","A24LB89P1BPKKF","3DFYDSXB2WMWAZWJRSN67LWQ0PPJUT","","<img src=""img/set1/S2.jpg"" width=""540"" height = ""360"" style=""border:16px solid orange"">","null","","","","","","","",""
"null","","html-keyboard-response","313","248219","0.0-242.0","3IAEQB9FMF6YL1JQ3YLYBUIWOBDWD2","A24LB89P1BPKKF","3DFYDSXB2WMWAZWJRSN67LWQ0PPJUT","","","null","","","","","","","",""
"792.7000002861023","","image-keyboard-response","314","249013","0.0-243.0","3IAEQB9FMF6YL1JQ3YLYBUIWOBDWD2","A24LB89P1BPKKF","3DFYDSXB2WMWAZWJRSN67LWQ0PPJUT","","img/set1/S2.jpg","68","2","structured_normal","68","true","structured_normal,structured_incentive,random","1,2,2,3","",""
"null","","html-keyboard-response","315","249366","0.0-244.0","3IAEQB9FMF6YL1JQ3YLYBUIWOBDWD2","A24LB89P1BPKKF","3DFYDSXB2WMWAZWJRSN67LWQ0PPJUT","","<img src=""img/set1/S2.jpg"" width=""540"" height = ""360"" style=""border:16px solid orange"">","null","","","","","","","",""
"null","","html-keyboard-response","316","249368","0.0-245.0","3IAEQB9FMF6YL1JQ3YLYBUIWOBDWD2","A24LB89P1BPKKF","3DFYDSXB2WMWAZWJRSN67LWQ0PPJUT","","","null","","","","","","","",""
"837.8000001907349","","image-keyboard-response","317","250208","0.0-246.0","3IAEQB9FMF6YL1JQ3YLYBUIWOBDWD2","A24LB89P1BPKKF","3DFYDSXB2WMWAZWJRSN67LWQ0PPJUT","","img/set1/S3.jpg","74","3","structured_normal","72","false","structured_normal,structured_incentive,random","1,2,2,3","",""
"null","","html-keyboard-response","318","250563","0.0-247.0","3IAEQB9FMF6YL1JQ3YLYBUIWOBDWD2","A24LB89P1BPKKF","3DFYDSXB2WMWAZWJRSN67LWQ0PPJUT","","<img src=""img/set1/S3.jpg"" width=""540"" height = ""360"">","null","","","","","","","",""
"null","","html-keyboard-response","319","250566","0.0-248.0","3IAEQB9FMF6YL1JQ3YLYBUIWOBDWD2","A24LB89P1BPKKF","3DFYDSXB2WMWAZWJRSN67LWQ0PPJUT","","","null","","","","","","","",""
"904.4000000953674","","image-keyboard-response","320","251473","0.0-249.0","3IAEQB9FMF6YL1JQ3YLYBUIWOBDWD2","A24LB89P1BPKKF","3DFYDSXB2WMWAZWJRSN67LWQ0PPJUT","","img/set1/S1.jpg","68","1","structured_normal","83","false","structured_normal,structured_incentive,random","1,2,2,3","",""
"null","","html-keyboard-response","321","251827","0.0-250.0","3IAEQB9FMF6YL1JQ3YLYBUIWOBDWD2","A24LB89P1BPKKF","3DFYDSXB2WMWAZWJRSN67LWQ0PPJUT","","<img src=""img/set1/S1.jpg"" width=""540"" height = ""360"">","null","","","","","","","",""
"null","","html-keyboard-response","322","251830","0.0-251.0","3IAEQB9FMF6YL1JQ3YLYBUIWOBDWD2","A24LB89P1BPKKF","3DFYDSXB2WMWAZWJRSN67LWQ0PPJUT","","","null","","","","","","","",""
"1123.5999999046326","","image-keyboard-response","323","252955","0.0-252.0","3IAEQB9FMF6YL1JQ3YLYBUIWOBDWD2","A24LB89P1BPKKF","3DFYDSXB2WMWAZWJRSN67LWQ0PPJUT","","img/set1/S3.jpg","72","3","structured_normal","72","true","structured_normal,structured_incentive,random","1,2,2,3","",""
"null","","html-keyboard-response","324","253308","0.0-253.0","3IAEQB9FMF6YL1JQ3YLYBUIWOBDWD2","A24LB89P1BPKKF","3DFYDSXB2WMWAZWJRSN67LWQ0PPJUT","","<img src=""img/set1/S3.jpg"" width=""540"" height = ""360"" style=""border:16px solid orange"">","null","","","","","","","",""
"null","","html-keyboard-response","325","253310","0.0-254.0","3IAEQB9FMF6YL1JQ3YLYBUIWOBDWD2","A24LB89P1BPKKF","3DFYDSXB2WMWAZWJRSN67LWQ0PPJUT","","","null","","","","","","","",""
"826.3999996185303","","image-keyboard-response","326","254138","0.0-255.0","3IAEQB9FMF6YL1JQ3YLYBUIWOBDWD2","A24LB89P1BPKKF","3DFYDSXB2WMWAZWJRSN67LWQ0PPJUT","","img/set1/S1.jpg","68","1","structured_normal","83","false","structured_normal,structured_incentive,random","1,2,2,3","",""
"null","","html-keyboard-response","327","254502","0.0-256.0","3IAEQB9FMF6YL1JQ3YLYBUIWOBDWD2","A24LB89P1BPKKF","3DFYDSXB2WMWAZWJRSN67LWQ0PPJUT","","<img src=""img/set1/S1.jpg"" width=""540"" height = ""360"">","null","","","","","","","",""
"null","","html-keyboard-response","328","254504","0.0-257.0","3IAEQB9FMF6YL1JQ3YLYBUIWOBDWD2","A24LB89P1BPKKF","3DFYDSXB2WMWAZWJRSN67LWQ0PPJUT","","","null","","","","","","","",""
"1180.9000000953674","","image-keyboard-response","329","255686","0.0-258.0","3IAEQB9FMF6YL1JQ3YLYBUIWOBDWD2","A24LB89P1BPKKF","3DFYDSXB2WMWAZWJRSN67LWQ0PPJUT","","img/set1/S2.jpg","68","2","structured_normal","68","true","structured_normal,structured_incentive,random","1,2,2,3","",""
"null","","html-keyboard-response","330","256039","0.0-259.0","3IAEQB9FMF6YL1JQ3YLYBUIWOBDWD2","A24LB89P1BPKKF","3DFYDSXB2WMWAZWJRSN67LWQ0PPJUT","","<img src=""img/set1/S2.jpg"" width=""540"" height = ""360"" style=""border:16px solid orange"">","null","","","","","","","",""
"null","","html-keyboard-response","331","256041","0.0-260.0","3IAEQB9FMF6YL1JQ3YLYBUIWOBDWD2","A24LB89P1BPKKF","3DFYDSXB2WMWAZWJRSN67LWQ0PPJUT","","","null","","","","","","","",""
"629.5999999046326","","image-keyboard-response","332","256673","0.0-261.0","3IAEQB9FMF6YL1JQ3YLYBUIWOBDWD2","A24LB89P1BPKKF","3DFYDSXB2WMWAZWJRSN67LWQ0PPJUT","","img/set1/S1.jpg","83","1","structured_normal","83","true","structured_normal,structured_incentive,random","1,2,2,3","",""
"null","","html-keyboard-response","333","257026","0.0-262.0","3IAEQB9FMF6YL1JQ3YLYBUIWOBDWD2","A24LB89P1BPKKF","3DFYDSXB2WMWAZWJRSN67LWQ0PPJUT","","<img src=""img/set1/S1.jpg"" width=""540"" height = ""360"" style=""border:16px solid orange"">","null","","","","","","","",""
"null","","html-keyboard-response","334","257028","0.0-263.0","3IAEQB9FMF6YL1JQ3YLYBUIWOBDWD2","A24LB89P1BPKKF","3DFYDSXB2WMWAZWJRSN67LWQ0PPJUT","","","null","","","","","","","",""
"534.9000000953674","","image-keyboard-response","335","257565","0.0-264.0","3IAEQB9FMF6YL1JQ3YLYBUIWOBDWD2","A24LB89P1BPKKF","3DFYDSXB2WMWAZWJRSN67LWQ0PPJUT","","img/set1/S2.jpg","68","2","structured_normal","68","true","structured_normal,structured_incentive,random","1,2,2,3","",""
"null","","html-keyboard-response","336","257919","0.0-265.0","3IAEQB9FMF6YL1JQ3YLYBUIWOBDWD2","A24LB89P1BPKKF","3DFYDSXB2WMWAZWJRSN67LWQ0PPJUT","","<img src=""img/set1/S2.jpg"" width=""540"" height = ""360"" style=""border:16px solid orange"">","null","","","","","","","",""
"null","","html-keyboard-response","337","257922","0.0-266.0","3IAEQB9FMF6YL1JQ3YLYBUIWOBDWD2","A24LB89P1BPKKF","3DFYDSXB2WMWAZWJRSN67LWQ0PPJUT","","","null","","","","","","","",""
"863.5","","image-keyboard-response","338","258787","0.0-267.0","3IAEQB9FMF6YL1JQ3YLYBUIWOBDWD2","A24LB89P1BPKKF","3DFYDSXB2WMWAZWJRSN67LWQ0PPJUT","","img/set1/S4.jpg","74","4","structured_normal","74","true","structured_normal,structured_incentive,random","1,2,2,3","",""
"null","","html-keyboard-response","339","259140","0.0-268.0","3IAEQB9FMF6YL1JQ3YLYBUIWOBDWD2","A24LB89P1BPKKF","3DFYDSXB2WMWAZWJRSN67LWQ0PPJUT","","<img src=""img/set1/S4.jpg"" width=""540"" height = ""360"" style=""border:16px solid orange"">","null","","","","","","","",""
"null","","html-keyboard-response","340","259143","0.0-269.0","3IAEQB9FMF6YL1JQ3YLYBUIWOBDWD2","A24LB89P1BPKKF","3DFYDSXB2WMWAZWJRSN67LWQ0PPJUT","","","null","","","","","","","",""
"844.0999999046326","","image-keyboard-response","341","259989","0.0-270.0","3IAEQB9FMF6YL1JQ3YLYBUIWOBDWD2","A24LB89P1BPKKF","3DFYDSXB2WMWAZWJRSN67LWQ0PPJUT","","img/set1/S1.jpg","68","1","structured_normal","83","false","structured_normal,structured_incentive,random","1,2,2,3","",""
"null","","html-keyboard-response","342","260342","0.0-271.0","3IAEQB9FMF6YL1JQ3YLYBUIWOBDWD2","A24LB89P1BPKKF","3DFYDSXB2WMWAZWJRSN67LWQ0PPJUT","","<img src=""img/set1/S1.jpg"" width=""540"" height = ""360"">","null","","","","","","","",""
"null","","html-keyboard-response","343","260344","0.0-272.0","3IAEQB9FMF6YL1JQ3YLYBUIWOBDWD2","A24LB89P1BPKKF","3DFYDSXB2WMWAZWJRSN67LWQ0PPJUT","","","null","","","","","","","",""
"1035.5999999046326","","image-keyboard-response","344","261382","0.0-273.0","3IAEQB9FMF6YL1JQ3YLYBUIWOBDWD2","A24LB89P1BPKKF","3DFYDSXB2WMWAZWJRSN67LWQ0PPJUT","","img/set1/S3.jpg","72","3","structured_normal","72","true","structured_normal,structured_incentive,random","1,2,2,3","",""
"null","","html-keyboard-response","345","261734","0.0-274.0","3IAEQB9FMF6YL1JQ3YLYBUIWOBDWD2","A24LB89P1BPKKF","3DFYDSXB2WMWAZWJRSN67LWQ0PPJUT","","<img src=""img/set1/S3.jpg"" width=""540"" height = ""360"" style=""border:16px solid orange"">","null","","","","","","","",""
"null","","html-keyboard-response","346","261737","0.0-275.0","3IAEQB9FMF6YL1JQ3YLYBUIWOBDWD2","A24LB89P1BPKKF","3DFYDSXB2WMWAZWJRSN67LWQ0PPJUT","","","null","","","","","","","",""
"521.3000001907349","","image-keyboard-response","347","262260","0.0-276.0","3IAEQB9FMF6YL1JQ3YLYBUIWOBDWD2","A24LB89P1BPKKF","3DFYDSXB2WMWAZWJRSN67LWQ0PPJUT","","img/set1/S4.jpg","74","4","structured_normal","74","true","structured_normal,structured_incentive,random","1,2,2,3","",""
"null","","html-keyboard-response","348","262614","0.0-277.0","3IAEQB9FMF6YL1JQ3YLYBUIWOBDWD2","A24LB89P1BPKKF","3DFYDSXB2WMWAZWJRSN67LWQ0PPJUT","","<img src=""img/set1/S4.jpg"" width=""540"" height = ""360"" style=""border:16px solid orange"">","null","","","","","","","",""
"null","","html-keyboard-response","349","262617","0.0-278.0","3IAEQB9FMF6YL1JQ3YLYBUIWOBDWD2","A24LB89P1BPKKF","3DFYDSXB2WMWAZWJRSN67LWQ0PPJUT","","","null","","","","","","","",""
"956.3000001907349","","image-keyboard-response","350","263576","0.0-279.0","3IAEQB9FMF6YL1JQ3YLYBUIWOBDWD2","A24LB89P1BPKKF","3DFYDSXB2WMWAZWJRSN67LWQ0PPJUT","","img/set1/S2.jpg","68","2","structured_normal","68","true","structured_normal,structured_incentive,random","1,2,2,3","",""
"null","","html-keyboard-response","351","263929","0.0-280.0","3IAEQB9FMF6YL1JQ3YLYBUIWOBDWD2","A24LB89P1BPKKF","3DFYDSXB2WMWAZWJRSN67LWQ0PPJUT","","<img src=""img/set1/S2.jpg"" width=""540"" height = ""360"" style=""border:16px solid orange"">","null","","","","","","","",""
"null","","html-keyboard-response","352","263932","0.0-281.0","3IAEQB9FMF6YL1JQ3YLYBUIWOBDWD2","A24LB89P1BPKKF","3DFYDSXB2WMWAZWJRSN67LWQ0PPJUT","","","null","","","","","","","",""
"1096.2999997138977","","image-keyboard-response","353","265031","0.0-282.0","3IAEQB9FMF6YL1JQ3YLYBUIWOBDWD2","A24LB89P1BPKKF","3DFYDSXB2WMWAZWJRSN67LWQ0PPJUT","","img/set1/S4.jpg","74","4","structured_normal","74","true","structured_normal,structured_incentive,random","1,2,2,3","",""
"null","","html-keyboard-response","354","265386","0.0-283.0","3IAEQB9FMF6YL1JQ3YLYBUIWOBDWD2","A24LB89P1BPKKF","3DFYDSXB2WMWAZWJRSN67LWQ0PPJUT","","<img src=""img/set1/S4.jpg"" width=""540"" height = ""360"" style=""border:16px solid orange"">","null","","","","","","","",""
"null","","html-keyboard-response","355","265391","0.0-284.0","3IAEQB9FMF6YL1JQ3YLYBUIWOBDWD2","A24LB89P1BPKKF","3DFYDSXB2WMWAZWJRSN67LWQ0PPJUT","","","null","","","","","","","",""
"583.5","","image-keyboard-response","356","265976","0.0-285.0","3IAEQB9FMF6YL1JQ3YLYBUIWOBDWD2","A24LB89P1BPKKF","3DFYDSXB2WMWAZWJRSN67LWQ0PPJUT","","img/set1/S3.jpg","72","3","structured_normal","72","true","structured_normal,structured_incentive,random","1,2,2,3","",""
"null","","html-keyboard-response","357","266329","0.0-286.0","3IAEQB9FMF6YL1JQ3YLYBUIWOBDWD2","A24LB89P1BPKKF","3DFYDSXB2WMWAZWJRSN67LWQ0PPJUT","","<img src=""img/set1/S3.jpg"" width=""540"" height = ""360"" style=""border:16px solid orange"">","null","","","","","","","",""
"null","","html-keyboard-response","358","266333","0.0-287.0","3IAEQB9FMF6YL1JQ3YLYBUIWOBDWD2","A24LB89P1BPKKF","3DFYDSXB2WMWAZWJRSN67LWQ0PPJUT","","","null","","","","","","","",""
"646.7000002861023","","image-keyboard-response","359","266982","0.0-288.0","3IAEQB9FMF6YL1JQ3YLYBUIWOBDWD2","A24LB89P1BPKKF","3DFYDSXB2WMWAZWJRSN67LWQ0PPJUT","","img/set1/S4.jpg","74","4","structured_normal","74","true","structured_normal,structured_incentive,random","1,2,2,3","",""
"null","","html-keyboard-response","360","267333","0.0-289.0","3IAEQB9FMF6YL1JQ3YLYBUIWOBDWD2","A24LB89P1BPKKF","3DFYDSXB2WMWAZWJRSN67LWQ0PPJUT","","<img src=""img/set1/S4.jpg"" width=""540"" height = ""360"" style=""border:16px solid orange"">","null","","","","","","","",""
"null","","html-keyboard-response","361","267336","0.0-290.0","3IAEQB9FMF6YL1JQ3YLYBUIWOBDWD2","A24LB89P1BPKKF","3DFYDSXB2WMWAZWJRSN67LWQ0PPJUT","","","null","","","","","","","",""
"468.59999990463257","","image-keyboard-response","362","267806","0.0-291.0","3IAEQB9FMF6YL1JQ3YLYBUIWOBDWD2","A24LB89P1BPKKF","3DFYDSXB2WMWAZWJRSN67LWQ0PPJUT","","img/set1/S4.jpg","74","4","structured_normal","74","true","structured_normal,structured_incentive,random","1,2,2,3","",""
"null","","html-keyboard-response","363","268160","0.0-292.0","3IAEQB9FMF6YL1JQ3YLYBUIWOBDWD2","A24LB89P1BPKKF","3DFYDSXB2WMWAZWJRSN67LWQ0PPJUT","","<img src=""img/set1/S4.jpg"" width=""540"" height = ""360"" style=""border:16px solid orange"">","null","","","","","","","",""
"null","","html-keyboard-response","364","268164","0.0-293.0","3IAEQB9FMF6YL1JQ3YLYBUIWOBDWD2","A24LB89P1BPKKF","3DFYDSXB2WMWAZWJRSN67LWQ0PPJUT","","","null","","","","","","","",""
"606","","image-keyboard-response","365","268773","0.0-294.0","3IAEQB9FMF6YL1JQ3YLYBUIWOBDWD2","A24LB89P1BPKKF","3DFYDSXB2WMWAZWJRSN67LWQ0PPJUT","","img/set1/S3.jpg","72","3","structured_normal","72","true","structured_normal,structured_incentive,random","1,2,2,3","",""
"null","","html-keyboard-response","366","269125","0.0-295.0","3IAEQB9FMF6YL1JQ3YLYBUIWOBDWD2","A24LB89P1BPKKF","3DFYDSXB2WMWAZWJRSN67LWQ0PPJUT","","<img src=""img/set1/S3.jpg"" width=""540"" height = ""360"" style=""border:16px solid orange"">","null","","","","","","","",""
"null","","html-keyboard-response","367","269128","0.0-296.0","3IAEQB9FMF6YL1JQ3YLYBUIWOBDWD2","A24LB89P1BPKKF","3DFYDSXB2WMWAZWJRSN67LWQ0PPJUT","","","null","","","","","","","",""
"473.1000003814697","","image-keyboard-response","368","269604","0.0-297.0","3IAEQB9FMF6YL1JQ3YLYBUIWOBDWD2","A24LB89P1BPKKF","3DFYDSXB2WMWAZWJRSN67LWQ0PPJUT","","img/set1/S4.jpg","74","4","structured_normal","74","true","structured_normal,structured_incentive,random","1,2,2,3","",""
"null","","html-keyboard-response","369","269972","0.0-298.0","3IAEQB9FMF6YL1JQ3YLYBUIWOBDWD2","A24LB89P1BPKKF","3DFYDSXB2WMWAZWJRSN67LWQ0PPJUT","","<img src=""img/set1/S4.jpg"" width=""540"" height = ""360"" style=""border:16px solid orange"">","null","","","","","","","",""
"null","","html-keyboard-response","370","269974","0.0-299.0","3IAEQB9FMF6YL1JQ3YLYBUIWOBDWD2","A24LB89P1BPKKF","3DFYDSXB2WMWAZWJRSN67LWQ0PPJUT","","","null","","","","","","","",""
"363.5","","image-keyboard-response","371","270340","0.0-300.0","3IAEQB9FMF6YL1JQ3YLYBUIWOBDWD2","A24LB89P1BPKKF","3DFYDSXB2WMWAZWJRSN67LWQ0PPJUT","","img/set1/S4.jpg","74","4","structured_normal","74","true","structured_normal,structured_incentive,random","1,2,2,3","",""
"null","","html-keyboard-response","372","270692","0.0-301.0","3IAEQB9FMF6YL1JQ3YLYBUIWOBDWD2","A24LB89P1BPKKF","3DFYDSXB2WMWAZWJRSN67LWQ0PPJUT","","<img src=""img/set1/S4.jpg"" width=""540"" height = ""360"" style=""border:16px solid orange"">","null","","","","","","","",""
"null","","html-keyboard-response","373","270695","0.0-302.0","3IAEQB9FMF6YL1JQ3YLYBUIWOBDWD2","A24LB89P1BPKKF","3DFYDSXB2WMWAZWJRSN67LWQ0PPJUT","","","null","","","","","","","",""
"785","","image-keyboard-response","374","271481","0.0-303.0","3IAEQB9FMF6YL1JQ3YLYBUIWOBDWD2","A24LB89P1BPKKF","3DFYDSXB2WMWAZWJRSN67LWQ0PPJUT","","img/set1/S1.jpg","68","1","structured_normal","83","false","structured_normal,structured_incentive,random","1,2,2,3","",""
"null","","html-keyboard-response","375","271834","0.0-304.0","3IAEQB9FMF6YL1JQ3YLYBUIWOBDWD2","A24LB89P1BPKKF","3DFYDSXB2WMWAZWJRSN67LWQ0PPJUT","","<img src=""img/set1/S1.jpg"" width=""540"" height = ""360"">","null","","","","","","","",""
"null","","html-keyboard-response","376","271837","0.0-305.0","3IAEQB9FMF6YL1JQ3YLYBUIWOBDWD2","A24LB89P1BPKKF","3DFYDSXB2WMWAZWJRSN67LWQ0PPJUT","","","null","","","","","","","",""
"910.4000000953674","","image-keyboard-response","377","272749","0.0-306.0","3IAEQB9FMF6YL1JQ3YLYBUIWOBDWD2","A24LB89P1BPKKF","3DFYDSXB2WMWAZWJRSN67LWQ0PPJUT","","img/set1/S2.jpg","68","2","structured_normal","68","true","structured_normal,structured_incentive,random","1,2,2,3","",""
"null","","html-keyboard-response","378","273101","0.0-307.0","3IAEQB9FMF6YL1JQ3YLYBUIWOBDWD2","A24LB89P1BPKKF","3DFYDSXB2WMWAZWJRSN67LWQ0PPJUT","","<img src=""img/set1/S2.jpg"" width=""540"" height = ""360"" style=""border:16px solid orange"">","null","","","","","","","",""
"null","","html-keyboard-response","379","273103","0.0-308.0","3IAEQB9FMF6YL1JQ3YLYBUIWOBDWD2","A24LB89P1BPKKF","3DFYDSXB2WMWAZWJRSN67LWQ0PPJUT","","","null","","","","","","","",""
"555.9000000953674","","image-keyboard-response","380","273661","0.0-309.0","3IAEQB9FMF6YL1JQ3YLYBUIWOBDWD2","A24LB89P1BPKKF","3DFYDSXB2WMWAZWJRSN67LWQ0PPJUT","","img/set1/S1.jpg","83","1","structured_normal","83","true","structured_normal,structured_incentive,random","1,2,2,3","",""
"null","","html-keyboard-response","381","274013","0.0-310.0","3IAEQB9FMF6YL1JQ3YLYBUIWOBDWD2","A24LB89P1BPKKF","3DFYDSXB2WMWAZWJRSN67LWQ0PPJUT","","<img src=""img/set1/S1.jpg"" width=""540"" height = ""360"" style=""border:16px solid orange"">","null","","","","","","","",""
"null","","html-keyboard-response","382","274015","0.0-311.0","3IAEQB9FMF6YL1JQ3YLYBUIWOBDWD2","A24LB89P1BPKKF","3DFYDSXB2WMWAZWJRSN67LWQ0PPJUT","","","null","","","","","","","",""
"578.5","","image-keyboard-response","383","274595","0.0-312.0","3IAEQB9FMF6YL1JQ3YLYBUIWOBDWD2","A24LB89P1BPKKF","3DFYDSXB2WMWAZWJRSN67LWQ0PPJUT","","img/set1/S2.jpg","68","2","structured_normal","68","true","structured_normal,structured_incentive,random","1,2,2,3","",""
"null","","html-keyboard-response","384","274948","0.0-313.0","3IAEQB9FMF6YL1JQ3YLYBUIWOBDWD2","A24LB89P1BPKKF","3DFYDSXB2WMWAZWJRSN67LWQ0PPJUT","","<img src=""img/set1/S2.jpg"" width=""540"" height = ""360"" style=""border:16px solid orange"">","null","","","","","","","",""
"null","","html-keyboard-response","385","274950","0.0-314.0","3IAEQB9FMF6YL1JQ3YLYBUIWOBDWD2","A24LB89P1BPKKF","3DFYDSXB2WMWAZWJRSN67LWQ0PPJUT","","","null","","","","","","","",""
"729.0999999046326","","image-keyboard-response","386","275682","0.0-315.0","3IAEQB9FMF6YL1JQ3YLYBUIWOBDWD2","A24LB89P1BPKKF","3DFYDSXB2WMWAZWJRSN67LWQ0PPJUT","","img/set1/S3.jpg","74","3","structured_normal","72","false","structured_normal,structured_incentive,random","1,2,2,3","",""
"null","","html-keyboard-response","387","276036","0.0-316.0","3IAEQB9FMF6YL1JQ3YLYBUIWOBDWD2","A24LB89P1BPKKF","3DFYDSXB2WMWAZWJRSN67LWQ0PPJUT","","<img src=""img/set1/S3.jpg"" width=""540"" height = ""360"">","null","","","","","","","",""
"null","","html-keyboard-response","388","276042","0.0-317.0","3IAEQB9FMF6YL1JQ3YLYBUIWOBDWD2","A24LB89P1BPKKF","3DFYDSXB2WMWAZWJRSN67LWQ0PPJUT","","","null","","","","","","","",""
"475.09999990463257","","image-keyboard-response","389","276519","0.0-318.0","3IAEQB9FMF6YL1JQ3YLYBUIWOBDWD2","A24LB89P1BPKKF","3DFYDSXB2WMWAZWJRSN67LWQ0PPJUT","","img/set1/S4.jpg","74","4","structured_normal","74","true","structured_normal,structured_incentive,random","1,2,2,3","",""
"null","","html-keyboard-response","390","276874","0.0-319.0","3IAEQB9FMF6YL1JQ3YLYBUIWOBDWD2","A24LB89P1BPKKF","3DFYDSXB2WMWAZWJRSN67LWQ0PPJUT","","<img src=""img/set1/S4.jpg"" width=""540"" height = ""360"" style=""border:16px solid orange"">","null","","","","","","","",""
"null","","html-keyboard-response","391","276877","0.0-320.0","3IAEQB9FMF6YL1JQ3YLYBUIWOBDWD2","A24LB89P1BPKKF","3DFYDSXB2WMWAZWJRSN67LWQ0PPJUT","","","null","","","","","","","",""
"785.5","","image-keyboard-response","392","277664","0.0-321.0","3IAEQB9FMF6YL1JQ3YLYBUIWOBDWD2","A24LB89P1BPKKF","3DFYDSXB2WMWAZWJRSN67LWQ0PPJUT","","img/set1/S1.jpg","68","1","structured_normal","83","false","structured_normal,structured_incentive,random","1,2,2,3","",""
"null","","html-keyboard-response","393","278017","0.0-322.0","3IAEQB9FMF6YL1JQ3YLYBUIWOBDWD2","A24LB89P1BPKKF","3DFYDSXB2WMWAZWJRSN67LWQ0PPJUT","","<img src=""img/set1/S1.jpg"" width=""540"" height = ""360"">","null","","","","","","","",""
"null","","html-keyboard-response","394","278020","0.0-323.0","3IAEQB9FMF6YL1JQ3YLYBUIWOBDWD2","A24LB89P1BPKKF","3DFYDSXB2WMWAZWJRSN67LWQ0PPJUT","","","null","","","","","","","",""
"808.3000001907349","","image-keyboard-response","395","278830","0.0-324.0","3IAEQB9FMF6YL1JQ3YLYBUIWOBDWD2","A24LB89P1BPKKF","3DFYDSXB2WMWAZWJRSN67LWQ0PPJUT","","img/set1/S2.jpg","68","2","structured_normal","68","true","structured_normal,structured_incentive,random","1,2,2,3","",""
"null","","html-keyboard-response","396","279182","0.0-325.0","3IAEQB9FMF6YL1JQ3YLYBUIWOBDWD2","A24LB89P1BPKKF","3DFYDSXB2WMWAZWJRSN67LWQ0PPJUT","","<img src=""img/set1/S2.jpg"" width=""540"" height = ""360"" style=""border:16px solid orange"">","null","","","","","","","",""
"null","","html-keyboard-response","397","279186","0.0-326.0","3IAEQB9FMF6YL1JQ3YLYBUIWOBDWD2","A24LB89P1BPKKF","3DFYDSXB2WMWAZWJRSN67LWQ0PPJUT","","","null","","","","","","","",""
"1009","","image-keyboard-response","398","280197","0.0-327.0","3IAEQB9FMF6YL1JQ3YLYBUIWOBDWD2","A24LB89P1BPKKF","3DFYDSXB2WMWAZWJRSN67LWQ0PPJUT","","img/set1/S3.jpg","72","3","structured_normal","72","true","structured_normal,structured_incentive,random","1,2,2,3","",""
"null","","html-keyboard-response","399","280550","0.0-328.0","3IAEQB9FMF6YL1JQ3YLYBUIWOBDWD2","A24LB89P1BPKKF","3DFYDSXB2WMWAZWJRSN67LWQ0PPJUT","","<img src=""img/set1/S3.jpg"" width=""540"" height = ""360"" style=""border:16px solid orange"">","null","","","","","","","",""
"null","","html-keyboard-response","400","280553","0.0-329.0","3IAEQB9FMF6YL1JQ3YLYBUIWOBDWD2","A24LB89P1BPKKF","3DFYDSXB2WMWAZWJRSN67LWQ0PPJUT","","","null","","","","","","","",""
"418.90000009536743","","image-keyboard-response","401","280975","0.0-330.0","3IAEQB9FMF6YL1JQ3YLYBUIWOBDWD2","A24LB89P1BPKKF","3DFYDSXB2WMWAZWJRSN67LWQ0PPJUT","","img/set1/S3.jpg","72","3","structured_normal","72","true","structured_normal,structured_incentive,random","1,2,2,3","",""
"null","","html-keyboard-response","402","281328","0.0-331.0","3IAEQB9FMF6YL1JQ3YLYBUIWOBDWD2","A24LB89P1BPKKF","3DFYDSXB2WMWAZWJRSN67LWQ0PPJUT","","<img src=""img/set1/S3.jpg"" width=""540"" height = ""360"" style=""border:16px solid orange"">","null","","","","","","","",""
"null","","html-keyboard-response","403","281331","0.0-332.0","3IAEQB9FMF6YL1JQ3YLYBUIWOBDWD2","A24LB89P1BPKKF","3DFYDSXB2WMWAZWJRSN67LWQ0PPJUT","","","null","","","","","","","",""
"498.40000009536743","","image-keyboard-response","404","281831","0.0-333.0","3IAEQB9FMF6YL1JQ3YLYBUIWOBDWD2","A24LB89P1BPKKF","3DFYDSXB2WMWAZWJRSN67LWQ0PPJUT","","img/set1/S4.jpg","74","4","structured_normal","74","true","structured_normal,structured_incentive,random","1,2,2,3","",""
"null","","html-keyboard-response","405","282184","0.0-334.0","3IAEQB9FMF6YL1JQ3YLYBUIWOBDWD2","A24LB89P1BPKKF","3DFYDSXB2WMWAZWJRSN67LWQ0PPJUT","","<img src=""img/set1/S4.jpg"" width=""540"" height = ""360"" style=""border:16px solid orange"">","null","","","","","","","",""
"null","","html-keyboard-response","406","282187","0.0-335.0","3IAEQB9FMF6YL1JQ3YLYBUIWOBDWD2","A24LB89P1BPKKF","3DFYDSXB2WMWAZWJRSN67LWQ0PPJUT","","","null","","","","","","","",""
"647.5999999046326","","image-keyboard-response","407","282837","0.0-336.0","3IAEQB9FMF6YL1JQ3YLYBUIWOBDWD2","A24LB89P1BPKKF","3DFYDSXB2WMWAZWJRSN67LWQ0PPJUT","","img/set1/S3.jpg","72","3","structured_normal","72","true","structured_normal,structured_incentive,random","1,2,2,3","",""
"null","","html-keyboard-response","408","283189","0.0-337.0","3IAEQB9FMF6YL1JQ3YLYBUIWOBDWD2","A24LB89P1BPKKF","3DFYDSXB2WMWAZWJRSN67LWQ0PPJUT","","<img src=""img/set1/S3.jpg"" width=""540"" height = ""360"" style=""border:16px solid orange"">","null","","","","","","","",""
"null","","html-keyboard-response","409","283192","0.0-338.0","3IAEQB9FMF6YL1JQ3YLYBUIWOBDWD2","A24LB89P1BPKKF","3DFYDSXB2WMWAZWJRSN67LWQ0PPJUT","","","null","","","","","","","",""
"989.0999999046326","","image-keyboard-response","410","284183","0.0-339.0","3IAEQB9FMF6YL1JQ3YLYBUIWOBDWD2","A24LB89P1BPKKF","3DFYDSXB2WMWAZWJRSN67LWQ0PPJUT","","img/set1/S1.jpg","83","1","structured_normal","83","true","structured_normal,structured_incentive,random","1,2,2,3","",""
"null","","html-keyboard-response","411","284536","0.0-340.0","3IAEQB9FMF6YL1JQ3YLYBUIWOBDWD2","A24LB89P1BPKKF","3DFYDSXB2WMWAZWJRSN67LWQ0PPJUT","","<img src=""img/set1/S1.jpg"" width=""540"" height = ""360"" style=""border:16px solid orange"">","null","","","","","","","",""
"null","","html-keyboard-response","412","284539","0.0-341.0","3IAEQB9FMF6YL1JQ3YLYBUIWOBDWD2","A24LB89P1BPKKF","3DFYDSXB2WMWAZWJRSN67LWQ0PPJUT","","","null","","","","","","","",""
"632.5","","image-keyboard-response","413","285174","0.0-342.0","3IAEQB9FMF6YL1JQ3YLYBUIWOBDWD2","A24LB89P1BPKKF","3DFYDSXB2WMWAZWJRSN67LWQ0PPJUT","","img/set1/S2.jpg","68","2","structured_normal","68","true","structured_normal,structured_incentive,random","1,2,2,3","",""
