"rt","url","trial_type","trial_index","time_elapsed","internal_node_id","assignmentID","mturkID","hitID","view_history","stimulus","key_press","state","test_part","correct_response","correct","order_block","order_chunk","bonus","responses"
"8012","consent.html","external-html","0","8115","0.0-0.0","3DBQWDE4Y7KDUUVJWRCSHZHDIIC5ND","A2DVV59R1CQU6T","3XUSYT70ITN3RRKBJPNBFGD6FGOD06","","","","","","","","","","",""
"30216","","instructions","1","38335","0.0-1.0","3DBQWDE4Y7KDUUVJWRCSHZHDIIC5ND","A2DVV59R1CQU6T","3XUSYT70ITN3RRKBJPNBFGD6FGOD06","[{""page_index"":0,""viewing_time"":3699},{""page_index"":1,""viewing_time"":4531},{""page_index"":2,""viewing_time"":3629},{""page_index"":3,""viewing_time"":5373},{""page_index"":4,""viewing_time"":4773},{""page_index"":5,""viewing_time"":4296},{""page_index"":6,""viewing_time"":1911},{""page_index"":7,""viewing_time"":2003}]","","","","","","","","","",""
"1875","","image-keyboard-response","2","40213","0.0-2.0-0.0","3DBQWDE4Y7KDUUVJWRCSHZHDIIC5ND","A2DVV59R1CQU6T","3XUSYT70ITN3RRKBJPNBFGD6FGOD06","","img/practice/S1.jpg","83","1","practice","83","true","","","",""
"null","","html-keyboard-response","3","40538","0.0-2.0-1.0","3DBQWDE4Y7KDUUVJWRCSHZHDIIC5ND","A2DVV59R1CQU6T","3XUSYT70ITN3RRKBJPNBFGD6FGOD06","","<img src=""img/practice/S1.jpg"" width=""540"" height = ""360"" style=""border:16px solid orange"">","null","","","","","","","",""
"null","","html-keyboard-response","4","40540","0.0-2.0-2.0","3DBQWDE4Y7KDUUVJWRCSHZHDIIC5ND","A2DVV59R1CQU6T","3XUSYT70ITN3RRKBJPNBFGD6FGOD06","","","null","","","","","","","",""
"1310","","image-keyboard-response","5","41852","0.0-2.0-0.1","3DBQWDE4Y7KDUUVJWRCSHZHDIIC5ND","A2DVV59R1CQU6T","3XUSYT70ITN3RRKBJPNBFGD6FGOD06","","img/practice/S2.jpg","74","2","practice","68","false","","","",""
"null","","html-keyboard-response","6","42167","0.0-2.0-1.1","3DBQWDE4Y7KDUUVJWRCSHZHDIIC5ND","A2DVV59R1CQU6T","3XUSYT70ITN3RRKBJPNBFGD6FGOD06","","<img src=""img/practice/S2.jpg"" width=""540"" height = ""360"">","null","","","","","","","",""
"null","","html-keyboard-response","7","42173","0.0-2.0-2.1","3DBQWDE4Y7KDUUVJWRCSHZHDIIC5ND","A2DVV59R1CQU6T","3XUSYT70ITN3RRKBJPNBFGD6FGOD06","","","null","","","","","","","",""
"890","","image-keyboard-response","8","43065","0.0-2.0-0.2","3DBQWDE4Y7KDUUVJWRCSHZHDIIC5ND","A2DVV59R1CQU6T","3XUSYT70ITN3RRKBJPNBFGD6FGOD06","","img/practice/S4.jpg","68","4","practice","74","false","","","",""
"null","","html-keyboard-response","9","43377","0.0-2.0-1.2","3DBQWDE4Y7KDUUVJWRCSHZHDIIC5ND","A2DVV59R1CQU6T","3XUSYT70ITN3RRKBJPNBFGD6FGOD06","","<img src=""img/practice/S4.jpg"" width=""540"" height = ""360"">","null","","","","","","","",""
"null","","html-keyboard-response","10","43379","0.0-2.0-2.2","3DBQWDE4Y7KDUUVJWRCSHZHDIIC5ND","A2DVV59R1CQU6T","3XUSYT70ITN3RRKBJPNBFGD6FGOD06","","","null","","","","","","","",""
"729","","image-keyboard-response","11","44112","0.0-2.0-0.3","3DBQWDE4Y7KDUUVJWRCSHZHDIIC5ND","A2DVV59R1CQU6T","3XUSYT70ITN3RRKBJPNBFGD6FGOD06","","img/practice/S3.jpg","83","3","practice","72","false","","","",""
"null","","html-keyboard-response","12","44417","0.0-2.0-1.3","3DBQWDE4Y7KDUUVJWRCSHZHDIIC5ND","A2DVV59R1CQU6T","3XUSYT70ITN3RRKBJPNBFGD6FGOD06","","<img src=""img/practice/S3.jpg"" width=""540"" height = ""360"">","null","","","","","","","",""
"null","","html-keyboard-response","13","44419","0.0-2.0-2.3","3DBQWDE4Y7KDUUVJWRCSHZHDIIC5ND","A2DVV59R1CQU6T","3XUSYT70ITN3RRKBJPNBFGD6FGOD06","","","null","","","","","","","",""
"611","","image-keyboard-response","14","45031","0.0-2.0-0.4","3DBQWDE4Y7KDUUVJWRCSHZHDIIC5ND","A2DVV59R1CQU6T","3XUSYT70ITN3RRKBJPNBFGD6FGOD06","","img/practice/S2.jpg","68","2","practice","68","true","","","",""
"null","","html-keyboard-response","15","45350","0.0-2.0-1.4","3DBQWDE4Y7KDUUVJWRCSHZHDIIC5ND","A2DVV59R1CQU6T","3XUSYT70ITN3RRKBJPNBFGD6FGOD06","","<img src=""img/practice/S2.jpg"" width=""540"" height = ""360"" style=""border:16px solid orange"">","null","","","","","","","",""
"null","","html-keyboard-response","16","45351","0.0-2.0-2.4","3DBQWDE4Y7KDUUVJWRCSHZHDIIC5ND","A2DVV59R1CQU6T","3XUSYT70ITN3RRKBJPNBFGD6FGOD06","","","null","","","","","","","",""
"494","","image-keyboard-response","17","45847","0.0-2.0-0.5","3DBQWDE4Y7KDUUVJWRCSHZHDIIC5ND","A2DVV59R1CQU6T","3XUSYT70ITN3RRKBJPNBFGD6FGOD06","","img/practice/S3.jpg","83","3","practice","72","false","","","",""
"null","","html-keyboard-response","18","46152","0.0-2.0-1.5","3DBQWDE4Y7KDUUVJWRCSHZHDIIC5ND","A2DVV59R1CQU6T","3XUSYT70ITN3RRKBJPNBFGD6FGOD06","","<img src=""img/practice/S3.jpg"" width=""540"" height = ""360"">","null","","","","","","","",""
"null","","html-keyboard-response","19","46154","0.0-2.0-2.5","3DBQWDE4Y7KDUUVJWRCSHZHDIIC5ND","A2DVV59R1CQU6T","3XUSYT70ITN3RRKBJPNBFGD6FGOD06","","","null","","","","","","","",""
"531","","image-keyboard-response","20","46686","0.0-2.0-0.6","3DBQWDE4Y7KDUUVJWRCSHZHDIIC5ND","A2DVV59R1CQU6T","3XUSYT70ITN3RRKBJPNBFGD6FGOD06","","img/practice/S4.jpg","68","4","practice","74","false","","","",""
"null","","html-keyboard-response","21","46991","0.0-2.0-1.6","3DBQWDE4Y7KDUUVJWRCSHZHDIIC5ND","A2DVV59R1CQU6T","3XUSYT70ITN3RRKBJPNBFGD6FGOD06","","<img src=""img/practice/S4.jpg"" width=""540"" height = ""360"">","null","","","","","","","",""
"null","","html-keyboard-response","22","46993","0.0-2.0-2.6","3DBQWDE4Y7KDUUVJWRCSHZHDIIC5ND","A2DVV59R1CQU6T","3XUSYT70ITN3RRKBJPNBFGD6FGOD06","","","null","","","","","","","",""
"426","","image-keyboard-response","23","47420","0.0-2.0-0.7","3DBQWDE4Y7KDUUVJWRCSHZHDIIC5ND","A2DVV59R1CQU6T","3XUSYT70ITN3RRKBJPNBFGD6FGOD06","","img/practice/S1.jpg","68","1","practice","83","false","","","",""
"null","","html-keyboard-response","24","47737","0.0-2.0-1.7","3DBQWDE4Y7KDUUVJWRCSHZHDIIC5ND","A2DVV59R1CQU6T","3XUSYT70ITN3RRKBJPNBFGD6FGOD06","","<img src=""img/practice/S1.jpg"" width=""540"" height = ""360"">","null","","","","","","","",""
"null","","html-keyboard-response","25","47739","0.0-2.0-2.7","3DBQWDE4Y7KDUUVJWRCSHZHDIIC5ND","A2DVV59R1CQU6T","3XUSYT70ITN3RRKBJPNBFGD6FGOD06","","","null","","","","","","","",""
"457","","image-keyboard-response","26","48199","0.0-2.0-0.8","3DBQWDE4Y7KDUUVJWRCSHZHDIIC5ND","A2DVV59R1CQU6T","3XUSYT70ITN3RRKBJPNBFGD6FGOD06","","img/practice/S4.jpg","68","4","practice","74","false","","","",""
"null","","html-keyboard-response","27","48515","0.0-2.0-1.8","3DBQWDE4Y7KDUUVJWRCSHZHDIIC5ND","A2DVV59R1CQU6T","3XUSYT70ITN3RRKBJPNBFGD6FGOD06","","<img src=""img/practice/S4.jpg"" width=""540"" height = ""360"">","null","","","","","","","",""
"null","","html-keyboard-response","28","48516","0.0-2.0-2.8","3DBQWDE4Y7KDUUVJWRCSHZHDIIC5ND","A2DVV59R1CQU6T","3XUSYT70ITN3RRKBJPNBFGD6FGOD06","","","null","","","","","","","",""
"315","","image-keyboard-response","29","48831","0.0-2.0-0.9","3DBQWDE4Y7KDUUVJWRCSHZHDIIC5ND","A2DVV59R1CQU6T","3XUSYT70ITN3RRKBJPNBFGD6FGOD06","","img/practice/S3.jpg","83","3","practice","72","false","","","",""
"null","","html-keyboard-response","30","49146","0.0-2.0-1.9","3DBQWDE4Y7KDUUVJWRCSHZHDIIC5ND","A2DVV59R1CQU6T","3XUSYT70ITN3RRKBJPNBFGD6FGOD06","","<img src=""img/practice/S3.jpg"" width=""540"" height = ""360"">","null","","","","","","","",""
"null","","html-keyboard-response","31","49150","0.0-2.0-2.9","3DBQWDE4Y7KDUUVJWRCSHZHDIIC5ND","A2DVV59R1CQU6T","3XUSYT70ITN3RRKBJPNBFGD6FGOD06","","","null","","","","","","","",""
"91","","image-keyboard-response","32","49242","0.0-2.0-0.10","3DBQWDE4Y7KDUUVJWRCSHZHDIIC5ND","A2DVV59R1CQU6T","3XUSYT70ITN3RRKBJPNBFGD6FGOD06","","img/practice/S1.jpg","68","1","practice","83","false","","","",""
"null","","html-keyboard-response","33","49551","0.0-2.0-1.10","3DBQWDE4Y7KDUUVJWRCSHZHDIIC5ND","A2DVV59R1CQU6T","3XUSYT70ITN3RRKBJPNBFGD6FGOD06","","<img src=""img/practice/S1.jpg"" width=""540"" height = ""360"">","null","","","","","","","",""
"null","","html-keyboard-response","34","49553","0.0-2.0-2.10","3DBQWDE4Y7KDUUVJWRCSHZHDIIC5ND","A2DVV59R1CQU6T","3XUSYT70ITN3RRKBJPNBFGD6FGOD06","","","null","","","","","","","",""
"17","","image-keyboard-response","35","49571","0.0-2.0-0.11","3DBQWDE4Y7KDUUVJWRCSHZHDIIC5ND","A2DVV59R1CQU6T","3XUSYT70ITN3RRKBJPNBFGD6FGOD06","","img/practice/S2.jpg","72","2","practice","68","false","","","",""
"null","","html-keyboard-response","36","49880","0.0-2.0-1.11","3DBQWDE4Y7KDUUVJWRCSHZHDIIC5ND","A2DVV59R1CQU6T","3XUSYT70ITN3RRKBJPNBFGD6FGOD06","","<img src=""img/practice/S2.jpg"" width=""540"" height = ""360"">","null","","","","","","","",""
"null","","html-keyboard-response","37","49882","0.0-2.0-2.11","3DBQWDE4Y7KDUUVJWRCSHZHDIIC5ND","A2DVV59R1CQU6T","3XUSYT70ITN3RRKBJPNBFGD6FGOD06","","","null","","","","","","","",""
"59","","image-keyboard-response","38","49941","0.0-2.0-0.12","3DBQWDE4Y7KDUUVJWRCSHZHDIIC5ND","A2DVV59R1CQU6T","3XUSYT70ITN3RRKBJPNBFGD6FGOD06","","img/practice/S1.jpg","68","1","practice","83","false","","","",""
"null","","html-keyboard-response","39","50251","0.0-2.0-1.12","3DBQWDE4Y7KDUUVJWRCSHZHDIIC5ND","A2DVV59R1CQU6T","3XUSYT70ITN3RRKBJPNBFGD6FGOD06","","<img src=""img/practice/S1.jpg"" width=""540"" height = ""360"">","null","","","","","","","",""
"null","","html-keyboard-response","40","50253","0.0-2.0-2.12","3DBQWDE4Y7KDUUVJWRCSHZHDIIC5ND","A2DVV59R1CQU6T","3XUSYT70ITN3RRKBJPNBFGD6FGOD06","","","null","","","","","","","",""
"14","","image-keyboard-response","41","50267","0.0-2.0-0.13","3DBQWDE4Y7KDUUVJWRCSHZHDIIC5ND","A2DVV59R1CQU6T","3XUSYT70ITN3RRKBJPNBFGD6FGOD06","","img/practice/S4.jpg","72","4","practice","74","false","","","",""
"null","","html-keyboard-response","42","50577","0.0-2.0-1.13","3DBQWDE4Y7KDUUVJWRCSHZHDIIC5ND","A2DVV59R1CQU6T","3XUSYT70ITN3RRKBJPNBFGD6FGOD06","","<img src=""img/practice/S4.jpg"" width=""540"" height = ""360"">","null","","","","","","","",""
"null","","html-keyboard-response","43","50579","0.0-2.0-2.13","3DBQWDE4Y7KDUUVJWRCSHZHDIIC5ND","A2DVV59R1CQU6T","3XUSYT70ITN3RRKBJPNBFGD6FGOD06","","","null","","","","","","","",""
"12","","image-keyboard-response","44","50592","0.0-2.0-0.14","3DBQWDE4Y7KDUUVJWRCSHZHDIIC5ND","A2DVV59R1CQU6T","3XUSYT70ITN3RRKBJPNBFGD6FGOD06","","img/practice/S3.jpg","68","3","practice","72","false","","","",""
"null","","html-keyboard-response","45","50904","0.0-2.0-1.14","3DBQWDE4Y7KDUUVJWRCSHZHDIIC5ND","A2DVV59R1CQU6T","3XUSYT70ITN3RRKBJPNBFGD6FGOD06","","<img src=""img/practice/S3.jpg"" width=""540"" height = ""360"">","null","","","","","","","",""
"null","","html-keyboard-response","46","50905","0.0-2.0-2.14","3DBQWDE4Y7KDUUVJWRCSHZHDIIC5ND","A2DVV59R1CQU6T","3XUSYT70ITN3RRKBJPNBFGD6FGOD06","","","null","","","","","","","",""
"56","","image-keyboard-response","47","50963","0.0-2.0-0.15","3DBQWDE4Y7KDUUVJWRCSHZHDIIC5ND","A2DVV59R1CQU6T","3XUSYT70ITN3RRKBJPNBFGD6FGOD06","","img/practice/S2.jpg","72","2","practice","68","false","","","",""
"null","","html-keyboard-response","48","51278","0.0-2.0-1.15","3DBQWDE4Y7KDUUVJWRCSHZHDIIC5ND","A2DVV59R1CQU6T","3XUSYT70ITN3RRKBJPNBFGD6FGOD06","","<img src=""img/practice/S2.jpg"" width=""540"" height = ""360"">","null","","","","","","","",""
"null","","html-keyboard-response","49","51279","0.0-2.0-2.15","3DBQWDE4Y7KDUUVJWRCSHZHDIIC5ND","A2DVV59R1CQU6T","3XUSYT70ITN3RRKBJPNBFGD6FGOD06","","","null","","","","","","","",""
"33","","image-keyboard-response","50","51313","0.0-2.0-0.16","3DBQWDE4Y7KDUUVJWRCSHZHDIIC5ND","A2DVV59R1CQU6T","3XUSYT70ITN3RRKBJPNBFGD6FGOD06","","img/practice/S3.jpg","68","3","practice","72","false","","","",""
"null","","html-keyboard-response","51","51616","0.0-2.0-1.16","3DBQWDE4Y7KDUUVJWRCSHZHDIIC5ND","A2DVV59R1CQU6T","3XUSYT70ITN3RRKBJPNBFGD6FGOD06","","<img src=""img/practice/S3.jpg"" width=""540"" height = ""360"">","null","","","","","","","",""
"null","","html-keyboard-response","52","51617","0.0-2.0-2.16","3DBQWDE4Y7KDUUVJWRCSHZHDIIC5ND","A2DVV59R1CQU6T","3XUSYT70ITN3RRKBJPNBFGD6FGOD06","","","null","","","","","","","",""
"22","","image-keyboard-response","53","51640","0.0-2.0-0.17","3DBQWDE4Y7KDUUVJWRCSHZHDIIC5ND","A2DVV59R1CQU6T","3XUSYT70ITN3RRKBJPNBFGD6FGOD06","","img/practice/S1.jpg","72","1","practice","83","false","","","",""
"null","","html-keyboard-response","54","51947","0.0-2.0-1.17","3DBQWDE4Y7KDUUVJWRCSHZHDIIC5ND","A2DVV59R1CQU6T","3XUSYT70ITN3RRKBJPNBFGD6FGOD06","","<img src=""img/practice/S1.jpg"" width=""540"" height = ""360"">","null","","","","","","","",""
"null","","html-keyboard-response","55","51949","0.0-2.0-2.17","3DBQWDE4Y7KDUUVJWRCSHZHDIIC5ND","A2DVV59R1CQU6T","3XUSYT70ITN3RRKBJPNBFGD6FGOD06","","","null","","","","","","","",""
"42","","image-keyboard-response","56","51992","0.0-2.0-0.18","3DBQWDE4Y7KDUUVJWRCSHZHDIIC5ND","A2DVV59R1CQU6T","3XUSYT70ITN3RRKBJPNBFGD6FGOD06","","img/practice/S2.jpg","68","2","practice","68","true","","","",""
"null","","html-keyboard-response","57","52299","0.0-2.0-1.18","3DBQWDE4Y7KDUUVJWRCSHZHDIIC5ND","A2DVV59R1CQU6T","3XUSYT70ITN3RRKBJPNBFGD6FGOD06","","<img src=""img/practice/S2.jpg"" width=""540"" height = ""360"" style=""border:16px solid orange"">","null","","","","","","","",""
"null","","html-keyboard-response","58","52302","0.0-2.0-2.18","3DBQWDE4Y7KDUUVJWRCSHZHDIIC5ND","A2DVV59R1CQU6T","3XUSYT70ITN3RRKBJPNBFGD6FGOD06","","","null","","","","","","","",""
"24","","image-keyboard-response","59","52328","0.0-2.0-0.19","3DBQWDE4Y7KDUUVJWRCSHZHDIIC5ND","A2DVV59R1CQU6T","3XUSYT70ITN3RRKBJPNBFGD6FGOD06","","img/practice/S4.jpg","72","4","practice","74","false","","","",""
"null","","html-keyboard-response","60","52641","0.0-2.0-1.19","3DBQWDE4Y7KDUUVJWRCSHZHDIIC5ND","A2DVV59R1CQU6T","3XUSYT70ITN3RRKBJPNBFGD6FGOD06","","<img src=""img/practice/S4.jpg"" width=""540"" height = ""360"">","null","","","","","","","",""
"null","","html-keyboard-response","61","52642","0.0-2.0-2.19","3DBQWDE4Y7KDUUVJWRCSHZHDIIC5ND","A2DVV59R1CQU6T","3XUSYT70ITN3RRKBJPNBFGD6FGOD06","","","null","","","","","","","",""
"60","","image-keyboard-response","62","52704","0.0-2.0-0.20","3DBQWDE4Y7KDUUVJWRCSHZHDIIC5ND","A2DVV59R1CQU6T","3XUSYT70ITN3RRKBJPNBFGD6FGOD06","","img/practice/S1.jpg","74","1","practice","83","false","","","",""
"null","","html-keyboard-response","63","53011","0.0-2.0-1.20","3DBQWDE4Y7KDUUVJWRCSHZHDIIC5ND","A2DVV59R1CQU6T","3XUSYT70ITN3RRKBJPNBFGD6FGOD06","","<img src=""img/practice/S1.jpg"" width=""540"" height = ""360"">","null","","","","","","","",""
"null","","html-keyboard-response","64","53013","0.0-2.0-2.20","3DBQWDE4Y7KDUUVJWRCSHZHDIIC5ND","A2DVV59R1CQU6T","3XUSYT70ITN3RRKBJPNBFGD6FGOD06","","","null","","","","","","","",""
"5","","image-keyboard-response","65","53019","0.0-2.0-0.21","3DBQWDE4Y7KDUUVJWRCSHZHDIIC5ND","A2DVV59R1CQU6T","3XUSYT70ITN3RRKBJPNBFGD6FGOD06","","img/practice/S3.jpg","83","3","practice","72","false","","","",""
"null","","html-keyboard-response","66","53334","0.0-2.0-1.21","3DBQWDE4Y7KDUUVJWRCSHZHDIIC5ND","A2DVV59R1CQU6T","3XUSYT70ITN3RRKBJPNBFGD6FGOD06","","<img src=""img/practice/S3.jpg"" width=""540"" height = ""360"">","null","","","","","","","",""
"null","","html-keyboard-response","67","53338","0.0-2.0-2.21","3DBQWDE4Y7KDUUVJWRCSHZHDIIC5ND","A2DVV59R1CQU6T","3XUSYT70ITN3RRKBJPNBFGD6FGOD06","","","null","","","","","","","",""
"62","","image-keyboard-response","68","53400","0.0-2.0-0.22","3DBQWDE4Y7KDUUVJWRCSHZHDIIC5ND","A2DVV59R1CQU6T","3XUSYT70ITN3RRKBJPNBFGD6FGOD06","","img/practice/S4.jpg","74","4","practice","74","true","","","",""
"null","","html-keyboard-response","69","53717","0.0-2.0-1.22","3DBQWDE4Y7KDUUVJWRCSHZHDIIC5ND","A2DVV59R1CQU6T","3XUSYT70ITN3RRKBJPNBFGD6FGOD06","","<img src=""img/practice/S4.jpg"" width=""540"" height = ""360"" style=""border:16px solid orange"">","null","","","","","","","",""
"null","","html-keyboard-response","70","53719","0.0-2.0-2.22","3DBQWDE4Y7KDUUVJWRCSHZHDIIC5ND","A2DVV59R1CQU6T","3XUSYT70ITN3RRKBJPNBFGD6FGOD06","","","null","","","","","","","",""
"37","","image-keyboard-response","71","53758","0.0-2.0-0.23","3DBQWDE4Y7KDUUVJWRCSHZHDIIC5ND","A2DVV59R1CQU6T","3XUSYT70ITN3RRKBJPNBFGD6FGOD06","","img/practice/S2.jpg","68","2","practice","68","true","","","",""
"null","","html-keyboard-response","72","54074","0.0-2.0-1.23","3DBQWDE4Y7KDUUVJWRCSHZHDIIC5ND","A2DVV59R1CQU6T","3XUSYT70ITN3RRKBJPNBFGD6FGOD06","","<img src=""img/practice/S2.jpg"" width=""540"" height = ""360"" style=""border:16px solid orange"">","null","","","","","","","",""
"null","","html-keyboard-response","73","54075","0.0-2.0-2.23","3DBQWDE4Y7KDUUVJWRCSHZHDIIC5ND","A2DVV59R1CQU6T","3XUSYT70ITN3RRKBJPNBFGD6FGOD06","","","null","","","","","","","",""
"2874","","instructions","74","56950","0.0-3.0","3DBQWDE4Y7KDUUVJWRCSHZHDIIC5ND","A2DVV59R1CQU6T","3XUSYT70ITN3RRKBJPNBFGD6FGOD06","[{""page_index"":0,""viewing_time"":2874}]","","","","","","","","","",""
"5819","","instructions","75","62770","0.0-4.0","3DBQWDE4Y7KDUUVJWRCSHZHDIIC5ND","A2DVV59R1CQU6T","3XUSYT70ITN3RRKBJPNBFGD6FGOD06","[{""page_index"":0,""viewing_time"":5819}]","","","","","","","","","",""
"3504","","instructions","76","66275","0.0-5.0","3DBQWDE4Y7KDUUVJWRCSHZHDIIC5ND","A2DVV59R1CQU6T","3XUSYT70ITN3RRKBJPNBFGD6FGOD06","[{""page_index"":0,""viewing_time"":3503}]","","","","","","","","","",""
"736","","image-keyboard-response","77","67014","0.0-6.0","3DBQWDE4Y7KDUUVJWRCSHZHDIIC5ND","A2DVV59R1CQU6T","3XUSYT70ITN3RRKBJPNBFGD6FGOD06","","img/set1/S2.jpg","83","2","structured_normal","68","false","structured_normal,random,structured_incentive","2,3,1,2","",""
"null","","html-keyboard-response","78","67373","0.0-7.0","3DBQWDE4Y7KDUUVJWRCSHZHDIIC5ND","A2DVV59R1CQU6T","3XUSYT70ITN3RRKBJPNBFGD6FGOD06","","<img src=""img/set1/S2.jpg"" width=""540"" height = ""360"">","null","","","","","","","",""
"null","","html-keyboard-response","79","67375","0.0-8.0","3DBQWDE4Y7KDUUVJWRCSHZHDIIC5ND","A2DVV59R1CQU6T","3XUSYT70ITN3RRKBJPNBFGD6FGOD06","","","null","","","","","","","",""
"912","","image-keyboard-response","80","68288","0.0-9.0","3DBQWDE4Y7KDUUVJWRCSHZHDIIC5ND","A2DVV59R1CQU6T","3XUSYT70ITN3RRKBJPNBFGD6FGOD06","","img/set1/S4.jpg","68","4","structured_normal","74","false","structured_normal,random,structured_incentive","2,3,1,2","",""
"null","","html-keyboard-response","81","68649","0.0-10.0","3DBQWDE4Y7KDUUVJWRCSHZHDIIC5ND","A2DVV59R1CQU6T","3XUSYT70ITN3RRKBJPNBFGD6FGOD06","","<img src=""img/set1/S4.jpg"" width=""540"" height = ""360"">","null","","","","","","","",""
"null","","html-keyboard-response","82","68651","0.0-11.0","3DBQWDE4Y7KDUUVJWRCSHZHDIIC5ND","A2DVV59R1CQU6T","3XUSYT70ITN3RRKBJPNBFGD6FGOD06","","","null","","","","","","","",""
"1503","","image-keyboard-response","83","70156","0.0-12.0","3DBQWDE4Y7KDUUVJWRCSHZHDIIC5ND","A2DVV59R1CQU6T","3XUSYT70ITN3RRKBJPNBFGD6FGOD06","","img/set1/S1.jpg","83","1","structured_normal","83","true","structured_normal,random,structured_incentive","2,3,1,2","",""
"null","","html-keyboard-response","84","70514","0.0-13.0","3DBQWDE4Y7KDUUVJWRCSHZHDIIC5ND","A2DVV59R1CQU6T","3XUSYT70ITN3RRKBJPNBFGD6FGOD06","","<img src=""img/set1/S1.jpg"" width=""540"" height = ""360"" style=""border:16px solid orange"">","null","","","","","","","",""
"null","","html-keyboard-response","85","70515","0.0-14.0","3DBQWDE4Y7KDUUVJWRCSHZHDIIC5ND","A2DVV59R1CQU6T","3XUSYT70ITN3RRKBJPNBFGD6FGOD06","","","null","","","","","","","",""
"1074","","image-keyboard-response","86","71592","0.0-15.0","3DBQWDE4Y7KDUUVJWRCSHZHDIIC5ND","A2DVV59R1CQU6T","3XUSYT70ITN3RRKBJPNBFGD6FGOD06","","img/set1/S4.jpg","72","4","structured_normal","74","false","structured_normal,random,structured_incentive","2,3,1,2","",""
"null","","html-keyboard-response","87","71945","0.0-16.0","3DBQWDE4Y7KDUUVJWRCSHZHDIIC5ND","A2DVV59R1CQU6T","3XUSYT70ITN3RRKBJPNBFGD6FGOD06","","<img src=""img/set1/S4.jpg"" width=""540"" height = ""360"">","null","","","","","","","",""
"null","","html-keyboard-response","88","71947","0.0-17.0","3DBQWDE4Y7KDUUVJWRCSHZHDIIC5ND","A2DVV59R1CQU6T","3XUSYT70ITN3RRKBJPNBFGD6FGOD06","","","null","","","","","","","",""
"1093","","image-keyboard-response","89","73042","0.0-18.0","3DBQWDE4Y7KDUUVJWRCSHZHDIIC5ND","A2DVV59R1CQU6T","3XUSYT70ITN3RRKBJPNBFGD6FGOD06","","img/set1/S2.jpg","68","2","structured_normal","68","true","structured_normal,random,structured_incentive","2,3,1,2","",""
"null","","html-keyboard-response","90","73407","0.0-19.0","3DBQWDE4Y7KDUUVJWRCSHZHDIIC5ND","A2DVV59R1CQU6T","3XUSYT70ITN3RRKBJPNBFGD6FGOD06","","<img src=""img/set1/S2.jpg"" width=""540"" height = ""360"" style=""border:16px solid orange"">","null","","","","","","","",""
"null","","html-keyboard-response","91","73409","0.0-20.0","3DBQWDE4Y7KDUUVJWRCSHZHDIIC5ND","A2DVV59R1CQU6T","3XUSYT70ITN3RRKBJPNBFGD6FGOD06","","","null","","","","","","","",""
"1148","","image-keyboard-response","92","74558","0.0-21.0","3DBQWDE4Y7KDUUVJWRCSHZHDIIC5ND","A2DVV59R1CQU6T","3XUSYT70ITN3RRKBJPNBFGD6FGOD06","","img/set1/S3.jpg","72","3","structured_normal","72","true","structured_normal,random,structured_incentive","2,3,1,2","",""
"null","","html-keyboard-response","93","74924","0.0-22.0","3DBQWDE4Y7KDUUVJWRCSHZHDIIC5ND","A2DVV59R1CQU6T","3XUSYT70ITN3RRKBJPNBFGD6FGOD06","","<img src=""img/set1/S3.jpg"" width=""540"" height = ""360"" style=""border:16px solid orange"">","null","","","","","","","",""
"null","","html-keyboard-response","94","74925","0.0-23.0","3DBQWDE4Y7KDUUVJWRCSHZHDIIC5ND","A2DVV59R1CQU6T","3XUSYT70ITN3RRKBJPNBFGD6FGOD06","","","null","","","","","","","",""
"878","","image-keyboard-response","95","75804","0.0-24.0","3DBQWDE4Y7KDUUVJWRCSHZHDIIC5ND","A2DVV59R1CQU6T","3XUSYT70ITN3RRKBJPNBFGD6FGOD06","","img/set1/S2.jpg","68","2","structured_normal","68","true","structured_normal,random,structured_incentive","2,3,1,2","",""
"null","","html-keyboard-response","96","76163","0.0-25.0","3DBQWDE4Y7KDUUVJWRCSHZHDIIC5ND","A2DVV59R1CQU6T","3XUSYT70ITN3RRKBJPNBFGD6FGOD06","","<img src=""img/set1/S2.jpg"" width=""540"" height = ""360"" style=""border:16px solid orange"">","null","","","","","","","",""
"null","","html-keyboard-response","97","76164","0.0-26.0","3DBQWDE4Y7KDUUVJWRCSHZHDIIC5ND","A2DVV59R1CQU6T","3XUSYT70ITN3RRKBJPNBFGD6FGOD06","","","null","","","","","","","",""
"599","","image-keyboard-response","98","76765","0.0-27.0","3DBQWDE4Y7KDUUVJWRCSHZHDIIC5ND","A2DVV59R1CQU6T","3XUSYT70ITN3RRKBJPNBFGD6FGOD06","","img/set1/S3.jpg","72","3","structured_normal","72","true","structured_normal,random,structured_incentive","2,3,1,2","",""
"null","","html-keyboard-response","99","77131","0.0-28.0","3DBQWDE4Y7KDUUVJWRCSHZHDIIC5ND","A2DVV59R1CQU6T","3XUSYT70ITN3RRKBJPNBFGD6FGOD06","","<img src=""img/set1/S3.jpg"" width=""540"" height = ""360"" style=""border:16px solid orange"">","null","","","","","","","",""
"null","","html-keyboard-response","100","77133","0.0-29.0","3DBQWDE4Y7KDUUVJWRCSHZHDIIC5ND","A2DVV59R1CQU6T","3XUSYT70ITN3RRKBJPNBFGD6FGOD06","","","null","","","","","","","",""
"608","","image-keyboard-response","101","77742","0.0-30.0","3DBQWDE4Y7KDUUVJWRCSHZHDIIC5ND","A2DVV59R1CQU6T","3XUSYT70ITN3RRKBJPNBFGD6FGOD06","","img/set1/S4.jpg","68","4","structured_normal","74","false","structured_normal,random,structured_incentive","2,3,1,2","",""
"null","","html-keyboard-response","102","78108","0.0-31.0","3DBQWDE4Y7KDUUVJWRCSHZHDIIC5ND","A2DVV59R1CQU6T","3XUSYT70ITN3RRKBJPNBFGD6FGOD06","","<img src=""img/set1/S4.jpg"" width=""540"" height = ""360"">","null","","","","","","","",""
"null","","html-keyboard-response","103","78109","0.0-32.0","3DBQWDE4Y7KDUUVJWRCSHZHDIIC5ND","A2DVV59R1CQU6T","3XUSYT70ITN3RRKBJPNBFGD6FGOD06","","","null","","","","","","","",""
"77","","image-keyboard-response","104","78187","0.0-33.0","3DBQWDE4Y7KDUUVJWRCSHZHDIIC5ND","A2DVV59R1CQU6T","3XUSYT70ITN3RRKBJPNBFGD6FGOD06","","img/set1/S4.jpg","74","4","structured_normal","74","true","structured_normal,random,structured_incentive","2,3,1,2","",""
"null","","html-keyboard-response","105","78544","0.0-34.0","3DBQWDE4Y7KDUUVJWRCSHZHDIIC5ND","A2DVV59R1CQU6T","3XUSYT70ITN3RRKBJPNBFGD6FGOD06","","<img src=""img/set1/S4.jpg"" width=""540"" height = ""360"" style=""border:16px solid orange"">","null","","","","","","","",""
"null","","html-keyboard-response","106","78546","0.0-35.0","3DBQWDE4Y7KDUUVJWRCSHZHDIIC5ND","A2DVV59R1CQU6T","3XUSYT70ITN3RRKBJPNBFGD6FGOD06","","","null","","","","","","","",""
"931","","image-keyboard-response","107","79477","0.0-36.0","3DBQWDE4Y7KDUUVJWRCSHZHDIIC5ND","A2DVV59R1CQU6T","3XUSYT70ITN3RRKBJPNBFGD6FGOD06","","img/set1/S2.jpg","68","2","structured_normal","68","true","structured_normal,random,structured_incentive","2,3,1,2","",""
"null","","html-keyboard-response","108","79831","0.0-37.0","3DBQWDE4Y7KDUUVJWRCSHZHDIIC5ND","A2DVV59R1CQU6T","3XUSYT70ITN3RRKBJPNBFGD6FGOD06","","<img src=""img/set1/S2.jpg"" width=""540"" height = ""360"" style=""border:16px solid orange"">","null","","","","","","","",""
"null","","html-keyboard-response","109","79832","0.0-38.0","3DBQWDE4Y7KDUUVJWRCSHZHDIIC5ND","A2DVV59R1CQU6T","3XUSYT70ITN3RRKBJPNBFGD6FGOD06","","","null","","","","","","","",""
"1063","","image-keyboard-response","110","80898","0.0-39.0","3DBQWDE4Y7KDUUVJWRCSHZHDIIC5ND","A2DVV59R1CQU6T","3XUSYT70ITN3RRKBJPNBFGD6FGOD06","","img/set1/S3.jpg","74","3","structured_normal","72","false","structured_normal,random,structured_incentive","2,3,1,2","",""
"null","","html-keyboard-response","111","81258","0.0-40.0","3DBQWDE4Y7KDUUVJWRCSHZHDIIC5ND","A2DVV59R1CQU6T","3XUSYT70ITN3RRKBJPNBFGD6FGOD06","","<img src=""img/set1/S3.jpg"" width=""540"" height = ""360"">","null","","","","","","","",""
"null","","html-keyboard-response","112","81260","0.0-41.0","3DBQWDE4Y7KDUUVJWRCSHZHDIIC5ND","A2DVV59R1CQU6T","3XUSYT70ITN3RRKBJPNBFGD6FGOD06","","","null","","","","","","","",""
"1118","","image-keyboard-response","113","82378","0.0-42.0","3DBQWDE4Y7KDUUVJWRCSHZHDIIC5ND","A2DVV59R1CQU6T","3XUSYT70ITN3RRKBJPNBFGD6FGOD06","","img/set1/S1.jpg","72","1","structured_normal","83","false","structured_normal,random,structured_incentive","2,3,1,2","",""
"null","","html-keyboard-response","114","82734","0.0-43.0","3DBQWDE4Y7KDUUVJWRCSHZHDIIC5ND","A2DVV59R1CQU6T","3XUSYT70ITN3RRKBJPNBFGD6FGOD06","","<img src=""img/set1/S1.jpg"" width=""540"" height = ""360"">","null","","","","","","","",""
"null","","html-keyboard-response","115","82736","0.0-44.0","3DBQWDE4Y7KDUUVJWRCSHZHDIIC5ND","A2DVV59R1CQU6T","3XUSYT70ITN3RRKBJPNBFGD6FGOD06","","","null","","","","","","","",""
"1295","","image-keyboard-response","116","84032","0.0-45.0","3DBQWDE4Y7KDUUVJWRCSHZHDIIC5ND","A2DVV59R1CQU6T","3XUSYT70ITN3RRKBJPNBFGD6FGOD06","","img/set1/S4.jpg","74","4","structured_normal","74","true","structured_normal,random,structured_incentive","2,3,1,2","",""
"null","","html-keyboard-response","117","84399","0.0-46.0","3DBQWDE4Y7KDUUVJWRCSHZHDIIC5ND","A2DVV59R1CQU6T","3XUSYT70ITN3RRKBJPNBFGD6FGOD06","","<img src=""img/set1/S4.jpg"" width=""540"" height = ""360"" style=""border:16px solid orange"">","null","","","","","","","",""
"null","","html-keyboard-response","118","84402","0.0-47.0","3DBQWDE4Y7KDUUVJWRCSHZHDIIC5ND","A2DVV59R1CQU6T","3XUSYT70ITN3RRKBJPNBFGD6FGOD06","","","null","","","","","","","",""
"534","","image-keyboard-response","119","84940","0.0-48.0","3DBQWDE4Y7KDUUVJWRCSHZHDIIC5ND","A2DVV59R1CQU6T","3XUSYT70ITN3RRKBJPNBFGD6FGOD06","","img/set1/S4.jpg","74","4","structured_normal","74","true","structured_normal,random,structured_incentive","2,3,1,2","",""
"null","","html-keyboard-response","120","85300","0.0-49.0","3DBQWDE4Y7KDUUVJWRCSHZHDIIC5ND","A2DVV59R1CQU6T","3XUSYT70ITN3RRKBJPNBFGD6FGOD06","","<img src=""img/set1/S4.jpg"" width=""540"" height = ""360"" style=""border:16px solid orange"">","null","","","","","","","",""
"null","","html-keyboard-response","121","85301","0.0-50.0","3DBQWDE4Y7KDUUVJWRCSHZHDIIC5ND","A2DVV59R1CQU6T","3XUSYT70ITN3RRKBJPNBFGD6FGOD06","","","null","","","","","","","",""
"878","","image-keyboard-response","122","86181","0.0-51.0","3DBQWDE4Y7KDUUVJWRCSHZHDIIC5ND","A2DVV59R1CQU6T","3XUSYT70ITN3RRKBJPNBFGD6FGOD06","","img/set1/S2.jpg","68","2","structured_normal","68","true","structured_normal,random,structured_incentive","2,3,1,2","",""
"null","","html-keyboard-response","123","86541","0.0-52.0","3DBQWDE4Y7KDUUVJWRCSHZHDIIC5ND","A2DVV59R1CQU6T","3XUSYT70ITN3RRKBJPNBFGD6FGOD06","","<img src=""img/set1/S2.jpg"" width=""540"" height = ""360"" style=""border:16px solid orange"">","null","","","","","","","",""
"null","","html-keyboard-response","124","86542","0.0-53.0","3DBQWDE4Y7KDUUVJWRCSHZHDIIC5ND","A2DVV59R1CQU6T","3XUSYT70ITN3RRKBJPNBFGD6FGOD06","","","null","","","","","","","",""
"1204","","image-keyboard-response","125","87747","0.0-54.0","3DBQWDE4Y7KDUUVJWRCSHZHDIIC5ND","A2DVV59R1CQU6T","3XUSYT70ITN3RRKBJPNBFGD6FGOD06","","img/set1/S3.jpg","72","3","structured_normal","72","true","structured_normal,random,structured_incentive","2,3,1,2","",""
"null","","html-keyboard-response","126","88104","0.0-55.0","3DBQWDE4Y7KDUUVJWRCSHZHDIIC5ND","A2DVV59R1CQU6T","3XUSYT70ITN3RRKBJPNBFGD6FGOD06","","<img src=""img/set1/S3.jpg"" width=""540"" height = ""360"" style=""border:16px solid orange"">","null","","","","","","","",""
"null","","html-keyboard-response","127","88106","0.0-56.0","3DBQWDE4Y7KDUUVJWRCSHZHDIIC5ND","A2DVV59R1CQU6T","3XUSYT70ITN3RRKBJPNBFGD6FGOD06","","","null","","","","","","","",""
"859","","image-keyboard-response","128","88965","0.0-57.0","3DBQWDE4Y7KDUUVJWRCSHZHDIIC5ND","A2DVV59R1CQU6T","3XUSYT70ITN3RRKBJPNBFGD6FGOD06","","img/set1/S1.jpg","83","1","structured_normal","83","true","structured_normal,random,structured_incentive","2,3,1,2","",""
"null","","html-keyboard-response","129","89322","0.0-58.0","3DBQWDE4Y7KDUUVJWRCSHZHDIIC5ND","A2DVV59R1CQU6T","3XUSYT70ITN3RRKBJPNBFGD6FGOD06","","<img src=""img/set1/S1.jpg"" width=""540"" height = ""360"" style=""border:16px solid orange"">","null","","","","","","","",""
"null","","html-keyboard-response","130","89324","0.0-59.0","3DBQWDE4Y7KDUUVJWRCSHZHDIIC5ND","A2DVV59R1CQU6T","3XUSYT70ITN3RRKBJPNBFGD6FGOD06","","","null","","","","","","","",""
"789","","image-keyboard-response","131","90113","0.0-60.0","3DBQWDE4Y7KDUUVJWRCSHZHDIIC5ND","A2DVV59R1CQU6T","3XUSYT70ITN3RRKBJPNBFGD6FGOD06","","img/set1/S3.jpg","72","3","structured_normal","72","true","structured_normal,random,structured_incentive","2,3,1,2","",""
"null","","html-keyboard-response","132","90475","0.0-61.0","3DBQWDE4Y7KDUUVJWRCSHZHDIIC5ND","A2DVV59R1CQU6T","3XUSYT70ITN3RRKBJPNBFGD6FGOD06","","<img src=""img/set1/S3.jpg"" width=""540"" height = ""360"" style=""border:16px solid orange"">","null","","","","","","","",""
"null","","html-keyboard-response","133","90476","0.0-62.0","3DBQWDE4Y7KDUUVJWRCSHZHDIIC5ND","A2DVV59R1CQU6T","3XUSYT70ITN3RRKBJPNBFGD6FGOD06","","","null","","","","","","","",""
"1458","","image-keyboard-response","134","91935","0.0-63.0","3DBQWDE4Y7KDUUVJWRCSHZHDIIC5ND","A2DVV59R1CQU6T","3XUSYT70ITN3RRKBJPNBFGD6FGOD06","","img/set1/S2.jpg","68","2","structured_normal","68","true","structured_normal,random,structured_incentive","2,3,1,2","",""
"null","","html-keyboard-response","135","92293","0.0-64.0","3DBQWDE4Y7KDUUVJWRCSHZHDIIC5ND","A2DVV59R1CQU6T","3XUSYT70ITN3RRKBJPNBFGD6FGOD06","","<img src=""img/set1/S2.jpg"" width=""540"" height = ""360"" style=""border:16px solid orange"">","null","","","","","","","",""
"null","","html-keyboard-response","136","92294","0.0-65.0","3DBQWDE4Y7KDUUVJWRCSHZHDIIC5ND","A2DVV59R1CQU6T","3XUSYT70ITN3RRKBJPNBFGD6FGOD06","","","null","","","","","","","",""
"1066","","image-keyboard-response","137","93361","0.0-66.0","3DBQWDE4Y7KDUUVJWRCSHZHDIIC5ND","A2DVV59R1CQU6T","3XUSYT70ITN3RRKBJPNBFGD6FGOD06","","img/set1/S3.jpg","74","3","structured_normal","72","false","structured_normal,random,structured_incentive","2,3,1,2","",""
"null","","html-keyboard-response","138","93728","0.0-67.0","3DBQWDE4Y7KDUUVJWRCSHZHDIIC5ND","A2DVV59R1CQU6T","3XUSYT70ITN3RRKBJPNBFGD6FGOD06","","<img src=""img/set1/S3.jpg"" width=""540"" height = ""360"">","null","","","","","","","",""
"null","","html-keyboard-response","139","93732","0.0-68.0","3DBQWDE4Y7KDUUVJWRCSHZHDIIC5ND","A2DVV59R1CQU6T","3XUSYT70ITN3RRKBJPNBFGD6FGOD06","","","null","","","","","","","",""
"884","","image-keyboard-response","140","94616","0.0-69.0","3DBQWDE4Y7KDUUVJWRCSHZHDIIC5ND","A2DVV59R1CQU6T","3XUSYT70ITN3RRKBJPNBFGD6FGOD06","","img/set1/S1.jpg","83","1","structured_normal","83","true","structured_normal,random,structured_incentive","2,3,1,2","",""
"null","","html-keyboard-response","141","94977","0.0-70.0","3DBQWDE4Y7KDUUVJWRCSHZHDIIC5ND","A2DVV59R1CQU6T","3XUSYT70ITN3RRKBJPNBFGD6FGOD06","","<img src=""img/set1/S1.jpg"" width=""540"" height = ""360"" style=""border:16px solid orange"">","null","","","","","","","",""
"null","","html-keyboard-response","142","94978","0.0-71.0","3DBQWDE4Y7KDUUVJWRCSHZHDIIC5ND","A2DVV59R1CQU6T","3XUSYT70ITN3RRKBJPNBFGD6FGOD06","","","null","","","","","","","",""
"1102","","image-keyboard-response","143","96082","0.0-72.0","3DBQWDE4Y7KDUUVJWRCSHZHDIIC5ND","A2DVV59R1CQU6T","3XUSYT70ITN3RRKBJPNBFGD6FGOD06","","img/set1/S4.jpg","74","4","structured_normal","74","true","structured_normal,random,structured_incentive","2,3,1,2","",""
"null","","html-keyboard-response","144","96441","0.0-73.0","3DBQWDE4Y7KDUUVJWRCSHZHDIIC5ND","A2DVV59R1CQU6T","3XUSYT70ITN3RRKBJPNBFGD6FGOD06","","<img src=""img/set1/S4.jpg"" width=""540"" height = ""360"" style=""border:16px solid orange"">","null","","","","","","","",""
"null","","html-keyboard-response","145","96442","0.0-74.0","3DBQWDE4Y7KDUUVJWRCSHZHDIIC5ND","A2DVV59R1CQU6T","3XUSYT70ITN3RRKBJPNBFGD6FGOD06","","","null","","","","","","","",""
"813","","image-keyboard-response","146","97255","0.0-75.0","3DBQWDE4Y7KDUUVJWRCSHZHDIIC5ND","A2DVV59R1CQU6T","3XUSYT70ITN3RRKBJPNBFGD6FGOD06","","img/set1/S2.jpg","68","2","structured_normal","68","true","structured_normal,random,structured_incentive","2,3,1,2","",""
"null","","html-keyboard-response","147","97610","0.0-76.0","3DBQWDE4Y7KDUUVJWRCSHZHDIIC5ND","A2DVV59R1CQU6T","3XUSYT70ITN3RRKBJPNBFGD6FGOD06","","<img src=""img/set1/S2.jpg"" width=""540"" height = ""360"" style=""border:16px solid orange"">","null","","","","","","","",""
"null","","html-keyboard-response","148","97612","0.0-77.0","3DBQWDE4Y7KDUUVJWRCSHZHDIIC5ND","A2DVV59R1CQU6T","3XUSYT70ITN3RRKBJPNBFGD6FGOD06","","","null","","","","","","","",""
"758","","image-keyboard-response","149","98372","0.0-78.0","3DBQWDE4Y7KDUUVJWRCSHZHDIIC5ND","A2DVV59R1CQU6T","3XUSYT70ITN3RRKBJPNBFGD6FGOD06","","img/set1/S3.jpg","72","3","structured_normal","72","true","structured_normal,random,structured_incentive","2,3,1,2","",""
"null","","html-keyboard-response","150","98729","0.0-79.0","3DBQWDE4Y7KDUUVJWRCSHZHDIIC5ND","A2DVV59R1CQU6T","3XUSYT70ITN3RRKBJPNBFGD6FGOD06","","<img src=""img/set1/S3.jpg"" width=""540"" height = ""360"" style=""border:16px solid orange"">","null","","","","","","","",""
"null","","html-keyboard-response","151","98730","0.0-80.0","3DBQWDE4Y7KDUUVJWRCSHZHDIIC5ND","A2DVV59R1CQU6T","3XUSYT70ITN3RRKBJPNBFGD6FGOD06","","","null","","","","","","","",""
"583","","image-keyboard-response","152","99316","0.0-81.0","3DBQWDE4Y7KDUUVJWRCSHZHDIIC5ND","A2DVV59R1CQU6T","3XUSYT70ITN3RRKBJPNBFGD6FGOD06","","img/set1/S3.jpg","72","3","structured_normal","72","true","structured_normal,random,structured_incentive","2,3,1,2","",""
"null","","html-keyboard-response","153","99670","0.0-82.0","3DBQWDE4Y7KDUUVJWRCSHZHDIIC5ND","A2DVV59R1CQU6T","3XUSYT70ITN3RRKBJPNBFGD6FGOD06","","<img src=""img/set1/S3.jpg"" width=""540"" height = ""360"" style=""border:16px solid orange"">","null","","","","","","","",""
"null","","html-keyboard-response","154","99671","0.0-83.0","3DBQWDE4Y7KDUUVJWRCSHZHDIIC5ND","A2DVV59R1CQU6T","3XUSYT70ITN3RRKBJPNBFGD6FGOD06","","","null","","","","","","","",""
"617","","image-keyboard-response","155","100291","0.0-84.0","3DBQWDE4Y7KDUUVJWRCSHZHDIIC5ND","A2DVV59R1CQU6T","3XUSYT70ITN3RRKBJPNBFGD6FGOD06","","img/set1/S2.jpg","68","2","structured_normal","68","true","structured_normal,random,structured_incentive","2,3,1,2","",""
"null","","html-keyboard-response","156","100651","0.0-85.0","3DBQWDE4Y7KDUUVJWRCSHZHDIIC5ND","A2DVV59R1CQU6T","3XUSYT70ITN3RRKBJPNBFGD6FGOD06","","<img src=""img/set1/S2.jpg"" width=""540"" height = ""360"" style=""border:16px solid orange"">","null","","","","","","","",""
"null","","html-keyboard-response","157","100653","0.0-86.0","3DBQWDE4Y7KDUUVJWRCSHZHDIIC5ND","A2DVV59R1CQU6T","3XUSYT70ITN3RRKBJPNBFGD6FGOD06","","","null","","","","","","","",""
"607","","image-keyboard-response","158","101263","0.0-87.0","3DBQWDE4Y7KDUUVJWRCSHZHDIIC5ND","A2DVV59R1CQU6T","3XUSYT70ITN3RRKBJPNBFGD6FGOD06","","img/set1/S3.jpg","72","3","structured_normal","72","true","structured_normal,random,structured_incentive","2,3,1,2","",""
"null","","html-keyboard-response","159","101628","0.0-88.0","3DBQWDE4Y7KDUUVJWRCSHZHDIIC5ND","A2DVV59R1CQU6T","3XUSYT70ITN3RRKBJPNBFGD6FGOD06","","<img src=""img/set1/S3.jpg"" width=""540"" height = ""360"" style=""border:16px solid orange"">","null","","","","","","","",""
"null","","html-keyboard-response","160","101630","0.0-89.0","3DBQWDE4Y7KDUUVJWRCSHZHDIIC5ND","A2DVV59R1CQU6T","3XUSYT70ITN3RRKBJPNBFGD6FGOD06","","","null","","","","","","","",""
"672","","image-keyboard-response","161","102302","0.0-90.0","3DBQWDE4Y7KDUUVJWRCSHZHDIIC5ND","A2DVV59R1CQU6T","3XUSYT70ITN3RRKBJPNBFGD6FGOD06","","img/set1/S2.jpg","68","2","structured_normal","68","true","structured_normal,random,structured_incentive","2,3,1,2","",""
"null","","html-keyboard-response","162","102658","0.0-91.0","3DBQWDE4Y7KDUUVJWRCSHZHDIIC5ND","A2DVV59R1CQU6T","3XUSYT70ITN3RRKBJPNBFGD6FGOD06","","<img src=""img/set1/S2.jpg"" width=""540"" height = ""360"" style=""border:16px solid orange"">","null","","","","","","","",""
"null","","html-keyboard-response","163","102660","0.0-92.0","3DBQWDE4Y7KDUUVJWRCSHZHDIIC5ND","A2DVV59R1CQU6T","3XUSYT70ITN3RRKBJPNBFGD6FGOD06","","","null","","","","","","","",""
"1158","","image-keyboard-response","164","103818","0.0-93.0","3DBQWDE4Y7KDUUVJWRCSHZHDIIC5ND","A2DVV59R1CQU6T","3XUSYT70ITN3RRKBJPNBFGD6FGOD06","","img/set1/S4.jpg","74","4","structured_normal","74","true","structured_normal,random,structured_incentive","2,3,1,2","",""
"null","","html-keyboard-response","165","104181","0.0-94.0","3DBQWDE4Y7KDUUVJWRCSHZHDIIC5ND","A2DVV59R1CQU6T","3XUSYT70ITN3RRKBJPNBFGD6FGOD06","","<img src=""img/set1/S4.jpg"" width=""540"" height = ""360"" style=""border:16px solid orange"">","null","","","","","","","",""
"null","","html-keyboard-response","166","104183","0.0-95.0","3DBQWDE4Y7KDUUVJWRCSHZHDIIC5ND","A2DVV59R1CQU6T","3XUSYT70ITN3RRKBJPNBFGD6FGOD06","","","null","","","","","","","",""
"1265","","image-keyboard-response","167","105450","0.0-96.0","3DBQWDE4Y7KDUUVJWRCSHZHDIIC5ND","A2DVV59R1CQU6T","3XUSYT70ITN3RRKBJPNBFGD6FGOD06","","img/set1/S3.jpg","72","3","structured_normal","72","true","structured_normal,random,structured_incentive","2,3,1,2","",""
"null","","html-keyboard-response","168","105803","0.0-97.0","3DBQWDE4Y7KDUUVJWRCSHZHDIIC5ND","A2DVV59R1CQU6T","3XUSYT70ITN3RRKBJPNBFGD6FGOD06","","<img src=""img/set1/S3.jpg"" width=""540"" height = ""360"" style=""border:16px solid orange"">","null","","","","","","","",""
"null","","html-keyboard-response","169","105804","0.0-98.0","3DBQWDE4Y7KDUUVJWRCSHZHDIIC5ND","A2DVV59R1CQU6T","3XUSYT70ITN3RRKBJPNBFGD6FGOD06","","","null","","","","","","","",""
"739","","image-keyboard-response","170","106546","0.0-99.0","3DBQWDE4Y7KDUUVJWRCSHZHDIIC5ND","A2DVV59R1CQU6T","3XUSYT70ITN3RRKBJPNBFGD6FGOD06","","img/set1/S1.jpg","83","1","structured_normal","83","true","structured_normal,random,structured_incentive","2,3,1,2","",""
"null","","html-keyboard-response","171","106904","0.0-100.0","3DBQWDE4Y7KDUUVJWRCSHZHDIIC5ND","A2DVV59R1CQU6T","3XUSYT70ITN3RRKBJPNBFGD6FGOD06","","<img src=""img/set1/S1.jpg"" width=""540"" height = ""360"" style=""border:16px solid orange"">","null","","","","","","","",""
"null","","html-keyboard-response","172","106906","0.0-101.0","3DBQWDE4Y7KDUUVJWRCSHZHDIIC5ND","A2DVV59R1CQU6T","3XUSYT70ITN3RRKBJPNBFGD6FGOD06","","","null","","","","","","","",""
"717","","image-keyboard-response","173","107624","0.0-102.0","3DBQWDE4Y7KDUUVJWRCSHZHDIIC5ND","A2DVV59R1CQU6T","3XUSYT70ITN3RRKBJPNBFGD6FGOD06","","img/set1/S2.jpg","68","2","structured_normal","68","true","structured_normal,random,structured_incentive","2,3,1,2","",""
"null","","html-keyboard-response","174","107979","0.0-103.0","3DBQWDE4Y7KDUUVJWRCSHZHDIIC5ND","A2DVV59R1CQU6T","3XUSYT70ITN3RRKBJPNBFGD6FGOD06","","<img src=""img/set1/S2.jpg"" width=""540"" height = ""360"" style=""border:16px solid orange"">","null","","","","","","","",""
"null","","html-keyboard-response","175","107981","0.0-104.0","3DBQWDE4Y7KDUUVJWRCSHZHDIIC5ND","A2DVV59R1CQU6T","3XUSYT70ITN3RRKBJPNBFGD6FGOD06","","","null","","","","","","","",""
"779","","image-keyboard-response","176","108763","0.0-105.0","3DBQWDE4Y7KDUUVJWRCSHZHDIIC5ND","A2DVV59R1CQU6T","3XUSYT70ITN3RRKBJPNBFGD6FGOD06","","img/set1/S3.jpg","72","3","structured_normal","72","true","structured_normal,random,structured_incentive","2,3,1,2","",""
"null","","html-keyboard-response","177","109122","0.0-106.0","3DBQWDE4Y7KDUUVJWRCSHZHDIIC5ND","A2DVV59R1CQU6T","3XUSYT70ITN3RRKBJPNBFGD6FGOD06","","<img src=""img/set1/S3.jpg"" width=""540"" height = ""360"" style=""border:16px solid orange"">","null","","","","","","","",""
"null","","html-keyboard-response","178","109123","0.0-107.0","3DBQWDE4Y7KDUUVJWRCSHZHDIIC5ND","A2DVV59R1CQU6T","3XUSYT70ITN3RRKBJPNBFGD6FGOD06","","","null","","","","","","","",""
"758","","image-keyboard-response","179","109882","0.0-108.0","3DBQWDE4Y7KDUUVJWRCSHZHDIIC5ND","A2DVV59R1CQU6T","3XUSYT70ITN3RRKBJPNBFGD6FGOD06","","img/set1/S1.jpg","68","1","structured_normal","83","false","structured_normal,random,structured_incentive","2,3,1,2","",""
"null","","html-keyboard-response","180","110242","0.0-109.0","3DBQWDE4Y7KDUUVJWRCSHZHDIIC5ND","A2DVV59R1CQU6T","3XUSYT70ITN3RRKBJPNBFGD6FGOD06","","<img src=""img/set1/S1.jpg"" width=""540"" height = ""360"">","null","","","","","","","",""
"null","","html-keyboard-response","181","110244","0.0-110.0","3DBQWDE4Y7KDUUVJWRCSHZHDIIC5ND","A2DVV59R1CQU6T","3XUSYT70ITN3RRKBJPNBFGD6FGOD06","","","null","","","","","","","",""
"876","","image-keyboard-response","182","111122","0.0-111.0","3DBQWDE4Y7KDUUVJWRCSHZHDIIC5ND","A2DVV59R1CQU6T","3XUSYT70ITN3RRKBJPNBFGD6FGOD06","","img/set1/S2.jpg","68","2","structured_normal","68","true","structured_normal,random,structured_incentive","2,3,1,2","",""
"null","","html-keyboard-response","183","111476","0.0-112.0","3DBQWDE4Y7KDUUVJWRCSHZHDIIC5ND","A2DVV59R1CQU6T","3XUSYT70ITN3RRKBJPNBFGD6FGOD06","","<img src=""img/set1/S2.jpg"" width=""540"" height = ""360"" style=""border:16px solid orange"">","null","","","","","","","",""
"null","","html-keyboard-response","184","111477","0.0-113.0","3DBQWDE4Y7KDUUVJWRCSHZHDIIC5ND","A2DVV59R1CQU6T","3XUSYT70ITN3RRKBJPNBFGD6FGOD06","","","null","","","","","","","",""
"728","","image-keyboard-response","185","112206","0.0-114.0","3DBQWDE4Y7KDUUVJWRCSHZHDIIC5ND","A2DVV59R1CQU6T","3XUSYT70ITN3RRKBJPNBFGD6FGOD06","","img/set1/S3.jpg","72","3","structured_normal","72","true","structured_normal,random,structured_incentive","2,3,1,2","",""
"null","","html-keyboard-response","186","112561","0.0-115.0","3DBQWDE4Y7KDUUVJWRCSHZHDIIC5ND","A2DVV59R1CQU6T","3XUSYT70ITN3RRKBJPNBFGD6FGOD06","","<img src=""img/set1/S3.jpg"" width=""540"" height = ""360"" style=""border:16px solid orange"">","null","","","","","","","",""
"null","","html-keyboard-response","187","112563","0.0-116.0","3DBQWDE4Y7KDUUVJWRCSHZHDIIC5ND","A2DVV59R1CQU6T","3XUSYT70ITN3RRKBJPNBFGD6FGOD06","","","null","","","","","","","",""
"651","","image-keyboard-response","188","113216","0.0-117.0","3DBQWDE4Y7KDUUVJWRCSHZHDIIC5ND","A2DVV59R1CQU6T","3XUSYT70ITN3RRKBJPNBFGD6FGOD06","","img/set1/S1.jpg","83","1","structured_normal","83","true","structured_normal,random,structured_incentive","2,3,1,2","",""
"null","","html-keyboard-response","189","113578","0.0-118.0","3DBQWDE4Y7KDUUVJWRCSHZHDIIC5ND","A2DVV59R1CQU6T","3XUSYT70ITN3RRKBJPNBFGD6FGOD06","","<img src=""img/set1/S1.jpg"" width=""540"" height = ""360"" style=""border:16px solid orange"">","null","","","","","","","",""
"null","","html-keyboard-response","190","113579","0.0-119.0","3DBQWDE4Y7KDUUVJWRCSHZHDIIC5ND","A2DVV59R1CQU6T","3XUSYT70ITN3RRKBJPNBFGD6FGOD06","","","null","","","","","","","",""
"737","","image-keyboard-response","191","114317","0.0-120.0","3DBQWDE4Y7KDUUVJWRCSHZHDIIC5ND","A2DVV59R1CQU6T","3XUSYT70ITN3RRKBJPNBFGD6FGOD06","","img/set1/S2.jpg","68","2","structured_normal","68","true","structured_normal,random,structured_incentive","2,3,1,2","",""
"null","","html-keyboard-response","192","114675","0.0-121.0","3DBQWDE4Y7KDUUVJWRCSHZHDIIC5ND","A2DVV59R1CQU6T","3XUSYT70ITN3RRKBJPNBFGD6FGOD06","","<img src=""img/set1/S2.jpg"" width=""540"" height = ""360"" style=""border:16px solid orange"">","null","","","","","","","",""
"null","","html-keyboard-response","193","114677","0.0-122.0","3DBQWDE4Y7KDUUVJWRCSHZHDIIC5ND","A2DVV59R1CQU6T","3XUSYT70ITN3RRKBJPNBFGD6FGOD06","","","null","","","","","","","",""
"1548","","image-keyboard-response","194","116227","0.0-123.0","3DBQWDE4Y7KDUUVJWRCSHZHDIIC5ND","A2DVV59R1CQU6T","3XUSYT70ITN3RRKBJPNBFGD6FGOD06","","img/set1/S3.jpg","72","3","structured_normal","72","true","structured_normal,random,structured_incentive","2,3,1,2","",""
"null","","html-keyboard-response","195","116598","0.0-124.0","3DBQWDE4Y7KDUUVJWRCSHZHDIIC5ND","A2DVV59R1CQU6T","3XUSYT70ITN3RRKBJPNBFGD6FGOD06","","<img src=""img/set1/S3.jpg"" width=""540"" height = ""360"" style=""border:16px solid orange"">","null","","","","","","","",""
"null","","html-keyboard-response","196","116599","0.0-125.0","3DBQWDE4Y7KDUUVJWRCSHZHDIIC5ND","A2DVV59R1CQU6T","3XUSYT70ITN3RRKBJPNBFGD6FGOD06","","","null","","","","","","","",""
"1180","","image-keyboard-response","197","117781","0.0-126.0","3DBQWDE4Y7KDUUVJWRCSHZHDIIC5ND","A2DVV59R1CQU6T","3XUSYT70ITN3RRKBJPNBFGD6FGOD06","","img/set1/S2.jpg","68","2","structured_normal","68","true","structured_normal,random,structured_incentive","2,3,1,2","",""
"null","","html-keyboard-response","198","118136","0.0-127.0","3DBQWDE4Y7KDUUVJWRCSHZHDIIC5ND","A2DVV59R1CQU6T","3XUSYT70ITN3RRKBJPNBFGD6FGOD06","","<img src=""img/set1/S2.jpg"" width=""540"" height = ""360"" style=""border:16px solid orange"">","null","","","","","","","",""
"null","","html-keyboard-response","199","118138","0.0-128.0","3DBQWDE4Y7KDUUVJWRCSHZHDIIC5ND","A2DVV59R1CQU6T","3XUSYT70ITN3RRKBJPNBFGD6FGOD06","","","null","","","","","","","",""
"1107","","image-keyboard-response","200","119247","0.0-129.0","3DBQWDE4Y7KDUUVJWRCSHZHDIIC5ND","A2DVV59R1CQU6T","3XUSYT70ITN3RRKBJPNBFGD6FGOD06","","img/set1/S4.jpg","74","4","structured_normal","74","true","structured_normal,random,structured_incentive","2,3,1,2","",""
"null","","html-keyboard-response","201","119610","0.0-130.0","3DBQWDE4Y7KDUUVJWRCSHZHDIIC5ND","A2DVV59R1CQU6T","3XUSYT70ITN3RRKBJPNBFGD6FGOD06","","<img src=""img/set1/S4.jpg"" width=""540"" height = ""360"" style=""border:16px solid orange"">","null","","","","","","","",""
"null","","html-keyboard-response","202","119612","0.0-131.0","3DBQWDE4Y7KDUUVJWRCSHZHDIIC5ND","A2DVV59R1CQU6T","3XUSYT70ITN3RRKBJPNBFGD6FGOD06","","","null","","","","","","","",""
"579","","image-keyboard-response","203","120193","0.0-132.0","3DBQWDE4Y7KDUUVJWRCSHZHDIIC5ND","A2DVV59R1CQU6T","3XUSYT70ITN3RRKBJPNBFGD6FGOD06","","img/set1/S4.jpg","74","4","structured_normal","74","true","structured_normal,random,structured_incentive","2,3,1,2","",""
"null","","html-keyboard-response","204","120546","0.0-133.0","3DBQWDE4Y7KDUUVJWRCSHZHDIIC5ND","A2DVV59R1CQU6T","3XUSYT70ITN3RRKBJPNBFGD6FGOD06","","<img src=""img/set1/S4.jpg"" width=""540"" height = ""360"" style=""border:16px solid orange"">","null","","","","","","","",""
"null","","html-keyboard-response","205","120548","0.0-134.0","3DBQWDE4Y7KDUUVJWRCSHZHDIIC5ND","A2DVV59R1CQU6T","3XUSYT70ITN3RRKBJPNBFGD6FGOD06","","","null","","","","","","","",""
"723","","image-keyboard-response","206","121273","0.0-135.0","3DBQWDE4Y7KDUUVJWRCSHZHDIIC5ND","A2DVV59R1CQU6T","3XUSYT70ITN3RRKBJPNBFGD6FGOD06","","img/set1/S2.jpg","68","2","structured_normal","68","true","structured_normal,random,structured_incentive","2,3,1,2","",""
"null","","html-keyboard-response","207","121636","0.0-136.0","3DBQWDE4Y7KDUUVJWRCSHZHDIIC5ND","A2DVV59R1CQU6T","3XUSYT70ITN3RRKBJPNBFGD6FGOD06","","<img src=""img/set1/S2.jpg"" width=""540"" height = ""360"" style=""border:16px solid orange"">","null","","","","","","","",""
"null","","html-keyboard-response","208","121637","0.0-137.0","3DBQWDE4Y7KDUUVJWRCSHZHDIIC5ND","A2DVV59R1CQU6T","3XUSYT70ITN3RRKBJPNBFGD6FGOD06","","","null","","","","","","","",""
"653","","image-keyboard-response","209","122292","0.0-138.0","3DBQWDE4Y7KDUUVJWRCSHZHDIIC5ND","A2DVV59R1CQU6T","3XUSYT70ITN3RRKBJPNBFGD6FGOD06","","img/set1/S4.jpg","74","4","structured_normal","74","true","structured_normal,random,structured_incentive","2,3,1,2","",""
"null","","html-keyboard-response","210","122646","0.0-139.0","3DBQWDE4Y7KDUUVJWRCSHZHDIIC5ND","A2DVV59R1CQU6T","3XUSYT70ITN3RRKBJPNBFGD6FGOD06","","<img src=""img/set1/S4.jpg"" width=""540"" height = ""360"" style=""border:16px solid orange"">","null","","","","","","","",""
"null","","html-keyboard-response","211","122647","0.0-140.0","3DBQWDE4Y7KDUUVJWRCSHZHDIIC5ND","A2DVV59R1CQU6T","3XUSYT70ITN3RRKBJPNBFGD6FGOD06","","","null","","","","","","","",""
"719","","image-keyboard-response","212","123369","0.0-141.0","3DBQWDE4Y7KDUUVJWRCSHZHDIIC5ND","A2DVV59R1CQU6T","3XUSYT70ITN3RRKBJPNBFGD6FGOD06","","img/set1/S1.jpg","83","1","structured_normal","83","true","structured_normal,random,structured_incentive","2,3,1,2","",""
"null","","html-keyboard-response","213","123745","0.0-142.0","3DBQWDE4Y7KDUUVJWRCSHZHDIIC5ND","A2DVV59R1CQU6T","3XUSYT70ITN3RRKBJPNBFGD6FGOD06","","<img src=""img/set1/S1.jpg"" width=""540"" height = ""360"" style=""border:16px solid orange"">","null","","","","","","","",""
"null","","html-keyboard-response","214","123749","0.0-143.0","3DBQWDE4Y7KDUUVJWRCSHZHDIIC5ND","A2DVV59R1CQU6T","3XUSYT70ITN3RRKBJPNBFGD6FGOD06","","","null","","","","","","","",""
"815","","image-keyboard-response","215","124566","0.0-144.0","3DBQWDE4Y7KDUUVJWRCSHZHDIIC5ND","A2DVV59R1CQU6T","3XUSYT70ITN3RRKBJPNBFGD6FGOD06","","img/set1/S1.jpg","83","1","structured_normal","83","true","structured_normal,random,structured_incentive","2,3,1,2","",""
"null","","html-keyboard-response","216","124924","0.0-145.0","3DBQWDE4Y7KDUUVJWRCSHZHDIIC5ND","A2DVV59R1CQU6T","3XUSYT70ITN3RRKBJPNBFGD6FGOD06","","<img src=""img/set1/S1.jpg"" width=""540"" height = ""360"" style=""border:16px solid orange"">","null","","","","","","","",""
"null","","html-keyboard-response","217","124926","0.0-146.0","3DBQWDE4Y7KDUUVJWRCSHZHDIIC5ND","A2DVV59R1CQU6T","3XUSYT70ITN3RRKBJPNBFGD6FGOD06","","","null","","","","","","","",""
"913","","image-keyboard-response","218","125841","0.0-147.0","3DBQWDE4Y7KDUUVJWRCSHZHDIIC5ND","A2DVV59R1CQU6T","3XUSYT70ITN3RRKBJPNBFGD6FGOD06","","img/set1/S4.jpg","74","4","structured_normal","74","true","structured_normal,random,structured_incentive","2,3,1,2","",""
"null","","html-keyboard-response","219","126201","0.0-148.0","3DBQWDE4Y7KDUUVJWRCSHZHDIIC5ND","A2DVV59R1CQU6T","3XUSYT70ITN3RRKBJPNBFGD6FGOD06","","<img src=""img/set1/S4.jpg"" width=""540"" height = ""360"" style=""border:16px solid orange"">","null","","","","","","","",""
"null","","html-keyboard-response","220","126202","0.0-149.0","3DBQWDE4Y7KDUUVJWRCSHZHDIIC5ND","A2DVV59R1CQU6T","3XUSYT70ITN3RRKBJPNBFGD6FGOD06","","","null","","","","","","","",""
"770","","image-keyboard-response","221","126972","0.0-150.0","3DBQWDE4Y7KDUUVJWRCSHZHDIIC5ND","A2DVV59R1CQU6T","3XUSYT70ITN3RRKBJPNBFGD6FGOD06","","img/set1/S1.jpg","83","1","structured_normal","83","true","structured_normal,random,structured_incentive","2,3,1,2","",""
"null","","html-keyboard-response","222","127334","0.0-151.0","3DBQWDE4Y7KDUUVJWRCSHZHDIIC5ND","A2DVV59R1CQU6T","3XUSYT70ITN3RRKBJPNBFGD6FGOD06","","<img src=""img/set1/S1.jpg"" width=""540"" height = ""360"" style=""border:16px solid orange"">","null","","","","","","","",""
"null","","html-keyboard-response","223","127335","0.0-152.0","3DBQWDE4Y7KDUUVJWRCSHZHDIIC5ND","A2DVV59R1CQU6T","3XUSYT70ITN3RRKBJPNBFGD6FGOD06","","","null","","","","","","","",""
"774","","image-keyboard-response","224","128112","0.0-153.0","3DBQWDE4Y7KDUUVJWRCSHZHDIIC5ND","A2DVV59R1CQU6T","3XUSYT70ITN3RRKBJPNBFGD6FGOD06","","img/set1/S4.jpg","74","4","structured_normal","74","true","structured_normal,random,structured_incentive","2,3,1,2","",""
"null","","html-keyboard-response","225","128468","0.0-154.0","3DBQWDE4Y7KDUUVJWRCSHZHDIIC5ND","A2DVV59R1CQU6T","3XUSYT70ITN3RRKBJPNBFGD6FGOD06","","<img src=""img/set1/S4.jpg"" width=""540"" height = ""360"" style=""border:16px solid orange"">","null","","","","","","","",""
"null","","html-keyboard-response","226","128470","0.0-155.0","3DBQWDE4Y7KDUUVJWRCSHZHDIIC5ND","A2DVV59R1CQU6T","3XUSYT70ITN3RRKBJPNBFGD6FGOD06","","","null","","","","","","","",""
"515","","image-keyboard-response","227","128985","0.0-156.0","3DBQWDE4Y7KDUUVJWRCSHZHDIIC5ND","A2DVV59R1CQU6T","3XUSYT70ITN3RRKBJPNBFGD6FGOD06","","img/set1/S4.jpg","74","4","structured_normal","74","true","structured_normal,random,structured_incentive","2,3,1,2","",""
"null","","html-keyboard-response","228","129340","0.0-157.0","3DBQWDE4Y7KDUUVJWRCSHZHDIIC5ND","A2DVV59R1CQU6T","3XUSYT70ITN3RRKBJPNBFGD6FGOD06","","<img src=""img/set1/S4.jpg"" width=""540"" height = ""360"" style=""border:16px solid orange"">","null","","","","","","","",""
"null","","html-keyboard-response","229","129341","0.0-158.0","3DBQWDE4Y7KDUUVJWRCSHZHDIIC5ND","A2DVV59R1CQU6T","3XUSYT70ITN3RRKBJPNBFGD6FGOD06","","","null","","","","","","","",""
"812","","image-keyboard-response","230","130156","0.0-159.0","3DBQWDE4Y7KDUUVJWRCSHZHDIIC5ND","A2DVV59R1CQU6T","3XUSYT70ITN3RRKBJPNBFGD6FGOD06","","img/set1/S2.jpg","68","2","structured_normal","68","true","structured_normal,random,structured_incentive","2,3,1,2","",""
"null","","html-keyboard-response","231","130516","0.0-160.0","3DBQWDE4Y7KDUUVJWRCSHZHDIIC5ND","A2DVV59R1CQU6T","3XUSYT70ITN3RRKBJPNBFGD6FGOD06","","<img src=""img/set1/S2.jpg"" width=""540"" height = ""360"" style=""border:16px solid orange"">","null","","","","","","","",""
"null","","html-keyboard-response","232","130518","0.0-161.0","3DBQWDE4Y7KDUUVJWRCSHZHDIIC5ND","A2DVV59R1CQU6T","3XUSYT70ITN3RRKBJPNBFGD6FGOD06","","","null","","","","","","","",""
"720","","image-keyboard-response","233","131238","0.0-162.0","3DBQWDE4Y7KDUUVJWRCSHZHDIIC5ND","A2DVV59R1CQU6T","3XUSYT70ITN3RRKBJPNBFGD6FGOD06","","img/set1/S3.jpg","72","3","structured_normal","72","true","structured_normal,random,structured_incentive","2,3,1,2","",""
"null","","html-keyboard-response","234","131602","0.0-163.0","3DBQWDE4Y7KDUUVJWRCSHZHDIIC5ND","A2DVV59R1CQU6T","3XUSYT70ITN3RRKBJPNBFGD6FGOD06","","<img src=""img/set1/S3.jpg"" width=""540"" height = ""360"" style=""border:16px solid orange"">","null","","","","","","","",""
"null","","html-keyboard-response","235","131604","0.0-164.0","3DBQWDE4Y7KDUUVJWRCSHZHDIIC5ND","A2DVV59R1CQU6T","3XUSYT70ITN3RRKBJPNBFGD6FGOD06","","","null","","","","","","","",""
"759","","image-keyboard-response","236","132365","0.0-165.0","3DBQWDE4Y7KDUUVJWRCSHZHDIIC5ND","A2DVV59R1CQU6T","3XUSYT70ITN3RRKBJPNBFGD6FGOD06","","img/set1/S4.jpg","74","4","structured_normal","74","true","structured_normal,random,structured_incentive","2,3,1,2","",""
"null","","html-keyboard-response","237","132722","0.0-166.0","3DBQWDE4Y7KDUUVJWRCSHZHDIIC5ND","A2DVV59R1CQU6T","3XUSYT70ITN3RRKBJPNBFGD6FGOD06","","<img src=""img/set1/S4.jpg"" width=""540"" height = ""360"" style=""border:16px solid orange"">","null","","","","","","","",""
"null","","html-keyboard-response","238","132723","0.0-167.0","3DBQWDE4Y7KDUUVJWRCSHZHDIIC5ND","A2DVV59R1CQU6T","3XUSYT70ITN3RRKBJPNBFGD6FGOD06","","","null","","","","","","","",""
"730","","image-keyboard-response","239","133455","0.0-168.0","3DBQWDE4Y7KDUUVJWRCSHZHDIIC5ND","A2DVV59R1CQU6T","3XUSYT70ITN3RRKBJPNBFGD6FGOD06","","img/set1/S1.jpg","83","1","structured_normal","83","true","structured_normal,random,structured_incentive","2,3,1,2","",""
"null","","html-keyboard-response","240","133810","0.0-169.0","3DBQWDE4Y7KDUUVJWRCSHZHDIIC5ND","A2DVV59R1CQU6T","3XUSYT70ITN3RRKBJPNBFGD6FGOD06","","<img src=""img/set1/S1.jpg"" width=""540"" height = ""360"" style=""border:16px solid orange"">","null","","","","","","","",""
"null","","html-keyboard-response","241","133812","0.0-170.0","3DBQWDE4Y7KDUUVJWRCSHZHDIIC5ND","A2DVV59R1CQU6T","3XUSYT70ITN3RRKBJPNBFGD6FGOD06","","","null","","","","","","","",""
"647","","image-keyboard-response","242","134459","0.0-171.0","3DBQWDE4Y7KDUUVJWRCSHZHDIIC5ND","A2DVV59R1CQU6T","3XUSYT70ITN3RRKBJPNBFGD6FGOD06","","img/set1/S1.jpg","83","1","structured_normal","83","true","structured_normal,random,structured_incentive","2,3,1,2","",""
"null","","html-keyboard-response","243","134820","0.0-172.0","3DBQWDE4Y7KDUUVJWRCSHZHDIIC5ND","A2DVV59R1CQU6T","3XUSYT70ITN3RRKBJPNBFGD6FGOD06","","<img src=""img/set1/S1.jpg"" width=""540"" height = ""360"" style=""border:16px solid orange"">","null","","","","","","","",""
"null","","html-keyboard-response","244","134822","0.0-173.0","3DBQWDE4Y7KDUUVJWRCSHZHDIIC5ND","A2DVV59R1CQU6T","3XUSYT70ITN3RRKBJPNBFGD6FGOD06","","","null","","","","","","","",""
"632","","image-keyboard-response","245","135456","0.0-174.0","3DBQWDE4Y7KDUUVJWRCSHZHDIIC5ND","A2DVV59R1CQU6T","3XUSYT70ITN3RRKBJPNBFGD6FGOD06","","img/set1/S1.jpg","83","1","structured_normal","83","true","structured_normal,random,structured_incentive","2,3,1,2","",""
"null","","html-keyboard-response","246","135810","0.0-175.0","3DBQWDE4Y7KDUUVJWRCSHZHDIIC5ND","A2DVV59R1CQU6T","3XUSYT70ITN3RRKBJPNBFGD6FGOD06","","<img src=""img/set1/S1.jpg"" width=""540"" height = ""360"" style=""border:16px solid orange"">","null","","","","","","","",""
"null","","html-keyboard-response","247","135812","0.0-176.0","3DBQWDE4Y7KDUUVJWRCSHZHDIIC5ND","A2DVV59R1CQU6T","3XUSYT70ITN3RRKBJPNBFGD6FGOD06","","","null","","","","","","","",""
"478","","image-keyboard-response","248","136291","0.0-177.0","3DBQWDE4Y7KDUUVJWRCSHZHDIIC5ND","A2DVV59R1CQU6T","3XUSYT70ITN3RRKBJPNBFGD6FGOD06","","img/set1/S1.jpg","83","1","structured_normal","83","true","structured_normal,random,structured_incentive","2,3,1,2","",""
"null","","html-keyboard-response","249","136668","0.0-178.0","3DBQWDE4Y7KDUUVJWRCSHZHDIIC5ND","A2DVV59R1CQU6T","3XUSYT70ITN3RRKBJPNBFGD6FGOD06","","<img src=""img/set1/S1.jpg"" width=""540"" height = ""360"" style=""border:16px solid orange"">","null","","","","","","","",""
"null","","html-keyboard-response","250","136673","0.0-179.0","3DBQWDE4Y7KDUUVJWRCSHZHDIIC5ND","A2DVV59R1CQU6T","3XUSYT70ITN3RRKBJPNBFGD6FGOD06","","","null","","","","","","","",""
"717","","image-keyboard-response","251","137390","0.0-180.0","3DBQWDE4Y7KDUUVJWRCSHZHDIIC5ND","A2DVV59R1CQU6T","3XUSYT70ITN3RRKBJPNBFGD6FGOD06","","img/set1/S2.jpg","68","2","structured_normal","68","true","structured_normal,random,structured_incentive","2,3,1,2","",""
"null","","html-keyboard-response","252","137742","0.0-181.0","3DBQWDE4Y7KDUUVJWRCSHZHDIIC5ND","A2DVV59R1CQU6T","3XUSYT70ITN3RRKBJPNBFGD6FGOD06","","<img src=""img/set1/S2.jpg"" width=""540"" height = ""360"" style=""border:16px solid orange"">","null","","","","","","","",""
"null","","html-keyboard-response","253","137744","0.0-182.0","3DBQWDE4Y7KDUUVJWRCSHZHDIIC5ND","A2DVV59R1CQU6T","3XUSYT70ITN3RRKBJPNBFGD6FGOD06","","","null","","","","","","","",""
"679","","image-keyboard-response","254","138425","0.0-183.0","3DBQWDE4Y7KDUUVJWRCSHZHDIIC5ND","A2DVV59R1CQU6T","3XUSYT70ITN3RRKBJPNBFGD6FGOD06","","img/set1/S3.jpg","72","3","structured_normal","72","true","structured_normal,random,structured_incentive","2,3,1,2","",""
"null","","html-keyboard-response","255","138784","0.0-184.0","3DBQWDE4Y7KDUUVJWRCSHZHDIIC5ND","A2DVV59R1CQU6T","3XUSYT70ITN3RRKBJPNBFGD6FGOD06","","<img src=""img/set1/S3.jpg"" width=""540"" height = ""360"" style=""border:16px solid orange"">","null","","","","","","","",""
"null","","html-keyboard-response","256","138785","0.0-185.0","3DBQWDE4Y7KDUUVJWRCSHZHDIIC5ND","A2DVV59R1CQU6T","3XUSYT70ITN3RRKBJPNBFGD6FGOD06","","","null","","","","","","","",""
"716","","image-keyboard-response","257","139502","0.0-186.0","3DBQWDE4Y7KDUUVJWRCSHZHDIIC5ND","A2DVV59R1CQU6T","3XUSYT70ITN3RRKBJPNBFGD6FGOD06","","img/set1/S4.jpg","74","4","structured_normal","74","true","structured_normal,random,structured_incentive","2,3,1,2","",""
"null","","html-keyboard-response","258","139861","0.0-187.0","3DBQWDE4Y7KDUUVJWRCSHZHDIIC5ND","A2DVV59R1CQU6T","3XUSYT70ITN3RRKBJPNBFGD6FGOD06","","<img src=""img/set1/S4.jpg"" width=""540"" height = ""360"" style=""border:16px solid orange"">","null","","","","","","","",""
"null","","html-keyboard-response","259","139863","0.0-188.0","3DBQWDE4Y7KDUUVJWRCSHZHDIIC5ND","A2DVV59R1CQU6T","3XUSYT70ITN3RRKBJPNBFGD6FGOD06","","","null","","","","","","","",""
"646","","image-keyboard-response","260","140509","0.0-189.0","3DBQWDE4Y7KDUUVJWRCSHZHDIIC5ND","A2DVV59R1CQU6T","3XUSYT70ITN3RRKBJPNBFGD6FGOD06","","img/set1/S2.jpg","68","2","structured_normal","68","true","structured_normal,random,structured_incentive","2,3,1,2","",""
"null","","html-keyboard-response","261","140873","0.0-190.0","3DBQWDE4Y7KDUUVJWRCSHZHDIIC5ND","A2DVV59R1CQU6T","3XUSYT70ITN3RRKBJPNBFGD6FGOD06","","<img src=""img/set1/S2.jpg"" width=""540"" height = ""360"" style=""border:16px solid orange"">","null","","","","","","","",""
"null","","html-keyboard-response","262","140874","0.0-191.0","3DBQWDE4Y7KDUUVJWRCSHZHDIIC5ND","A2DVV59R1CQU6T","3XUSYT70ITN3RRKBJPNBFGD6FGOD06","","","null","","","","","","","",""
"735","","image-keyboard-response","263","141610","0.0-192.0","3DBQWDE4Y7KDUUVJWRCSHZHDIIC5ND","A2DVV59R1CQU6T","3XUSYT70ITN3RRKBJPNBFGD6FGOD06","","img/set1/S3.jpg","72","3","structured_normal","72","true","structured_normal,random,structured_incentive","2,3,1,2","",""
"null","","html-keyboard-response","264","141972","0.0-193.0","3DBQWDE4Y7KDUUVJWRCSHZHDIIC5ND","A2DVV59R1CQU6T","3XUSYT70ITN3RRKBJPNBFGD6FGOD06","","<img src=""img/set1/S3.jpg"" width=""540"" height = ""360"" style=""border:16px solid orange"">","null","","","","","","","",""
"null","","html-keyboard-response","265","141973","0.0-194.0","3DBQWDE4Y7KDUUVJWRCSHZHDIIC5ND","A2DVV59R1CQU6T","3XUSYT70ITN3RRKBJPNBFGD6FGOD06","","","null","","","","","","","",""
"870","","image-keyboard-response","266","142844","0.0-195.0","3DBQWDE4Y7KDUUVJWRCSHZHDIIC5ND","A2DVV59R1CQU6T","3XUSYT70ITN3RRKBJPNBFGD6FGOD06","","img/set1/S1.jpg","83","1","structured_normal","83","true","structured_normal,random,structured_incentive","2,3,1,2","",""
"null","","html-keyboard-response","267","143200","0.0-196.0","3DBQWDE4Y7KDUUVJWRCSHZHDIIC5ND","A2DVV59R1CQU6T","3XUSYT70ITN3RRKBJPNBFGD6FGOD06","","<img src=""img/set1/S1.jpg"" width=""540"" height = ""360"" style=""border:16px solid orange"">","null","","","","","","","",""
"null","","html-keyboard-response","268","143202","0.0-197.0","3DBQWDE4Y7KDUUVJWRCSHZHDIIC5ND","A2DVV59R1CQU6T","3XUSYT70ITN3RRKBJPNBFGD6FGOD06","","","null","","","","","","","",""
"702","","image-keyboard-response","269","143906","0.0-198.0","3DBQWDE4Y7KDUUVJWRCSHZHDIIC5ND","A2DVV59R1CQU6T","3XUSYT70ITN3RRKBJPNBFGD6FGOD06","","img/set1/S2.jpg","68","2","structured_normal","68","true","structured_normal,random,structured_incentive","2,3,1,2","",""
"null","","html-keyboard-response","270","144259","0.0-199.0","3DBQWDE4Y7KDUUVJWRCSHZHDIIC5ND","A2DVV59R1CQU6T","3XUSYT70ITN3RRKBJPNBFGD6FGOD06","","<img src=""img/set1/S2.jpg"" width=""540"" height = ""360"" style=""border:16px solid orange"">","null","","","","","","","",""
"null","","html-keyboard-response","271","144261","0.0-200.0","3DBQWDE4Y7KDUUVJWRCSHZHDIIC5ND","A2DVV59R1CQU6T","3XUSYT70ITN3RRKBJPNBFGD6FGOD06","","","null","","","","","","","",""
"701","","image-keyboard-response","272","144963","0.0-201.0","3DBQWDE4Y7KDUUVJWRCSHZHDIIC5ND","A2DVV59R1CQU6T","3XUSYT70ITN3RRKBJPNBFGD6FGOD06","","img/set1/S3.jpg","72","3","structured_normal","72","true","structured_normal,random,structured_incentive","2,3,1,2","",""
"null","","html-keyboard-response","273","145316","0.0-202.0","3DBQWDE4Y7KDUUVJWRCSHZHDIIC5ND","A2DVV59R1CQU6T","3XUSYT70ITN3RRKBJPNBFGD6FGOD06","","<img src=""img/set1/S3.jpg"" width=""540"" height = ""360"" style=""border:16px solid orange"">","null","","","","","","","",""
"null","","html-keyboard-response","274","145318","0.0-203.0","3DBQWDE4Y7KDUUVJWRCSHZHDIIC5ND","A2DVV59R1CQU6T","3XUSYT70ITN3RRKBJPNBFGD6FGOD06","","","null","","","","","","","",""
"663","","image-keyboard-response","275","145983","0.0-204.0","3DBQWDE4Y7KDUUVJWRCSHZHDIIC5ND","A2DVV59R1CQU6T","3XUSYT70ITN3RRKBJPNBFGD6FGOD06","","img/set1/S1.jpg","83","1","structured_normal","83","true","structured_normal,random,structured_incentive","2,3,1,2","",""
"null","","html-keyboard-response","276","146347","0.0-205.0","3DBQWDE4Y7KDUUVJWRCSHZHDIIC5ND","A2DVV59R1CQU6T","3XUSYT70ITN3RRKBJPNBFGD6FGOD06","","<img src=""img/set1/S1.jpg"" width=""540"" height = ""360"" style=""border:16px solid orange"">","null","","","","","","","",""
"null","","html-keyboard-response","277","146348","0.0-206.0","3DBQWDE4Y7KDUUVJWRCSHZHDIIC5ND","A2DVV59R1CQU6T","3XUSYT70ITN3RRKBJPNBFGD6FGOD06","","","null","","","","","","","",""
"672","","image-keyboard-response","278","147023","0.0-207.0","3DBQWDE4Y7KDUUVJWRCSHZHDIIC5ND","A2DVV59R1CQU6T","3XUSYT70ITN3RRKBJPNBFGD6FGOD06","","img/set1/S2.jpg","68","2","structured_normal","68","true","structured_normal,random,structured_incentive","2,3,1,2","",""
"null","","html-keyboard-response","279","147375","0.0-208.0","3DBQWDE4Y7KDUUVJWRCSHZHDIIC5ND","A2DVV59R1CQU6T","3XUSYT70ITN3RRKBJPNBFGD6FGOD06","","<img src=""img/set1/S2.jpg"" width=""540"" height = ""360"" style=""border:16px solid orange"">","null","","","","","","","",""
"null","","html-keyboard-response","280","147377","0.0-209.0","3DBQWDE4Y7KDUUVJWRCSHZHDIIC5ND","A2DVV59R1CQU6T","3XUSYT70ITN3RRKBJPNBFGD6FGOD06","","","null","","","","","","","",""
"757","","image-keyboard-response","281","148134","0.0-210.0","3DBQWDE4Y7KDUUVJWRCSHZHDIIC5ND","A2DVV59R1CQU6T","3XUSYT70ITN3RRKBJPNBFGD6FGOD06","","img/set1/S3.jpg","72","3","structured_normal","72","true","structured_normal,random,structured_incentive","2,3,1,2","",""
"null","","html-keyboard-response","282","148493","0.0-211.0","3DBQWDE4Y7KDUUVJWRCSHZHDIIC5ND","A2DVV59R1CQU6T","3XUSYT70ITN3RRKBJPNBFGD6FGOD06","","<img src=""img/set1/S3.jpg"" width=""540"" height = ""360"" style=""border:16px solid orange"">","null","","","","","","","",""
"null","","html-keyboard-response","283","148495","0.0-212.0","3DBQWDE4Y7KDUUVJWRCSHZHDIIC5ND","A2DVV59R1CQU6T","3XUSYT70ITN3RRKBJPNBFGD6FGOD06","","","null","","","","","","","",""
"794","","image-keyboard-response","284","149289","0.0-213.0","3DBQWDE4Y7KDUUVJWRCSHZHDIIC5ND","A2DVV59R1CQU6T","3XUSYT70ITN3RRKBJPNBFGD6FGOD06","","img/set1/S4.jpg","74","4","structured_normal","74","true","structured_normal,random,structured_incentive","2,3,1,2","",""
"null","","html-keyboard-response","285","149651","0.0-214.0","3DBQWDE4Y7KDUUVJWRCSHZHDIIC5ND","A2DVV59R1CQU6T","3XUSYT70ITN3RRKBJPNBFGD6FGOD06","","<img src=""img/set1/S4.jpg"" width=""540"" height = ""360"" style=""border:16px solid orange"">","null","","","","","","","",""
"null","","html-keyboard-response","286","149653","0.0-215.0","3DBQWDE4Y7KDUUVJWRCSHZHDIIC5ND","A2DVV59R1CQU6T","3XUSYT70ITN3RRKBJPNBFGD6FGOD06","","","null","","","","","","","",""
"979","","image-keyboard-response","287","150634","0.0-216.0","3DBQWDE4Y7KDUUVJWRCSHZHDIIC5ND","A2DVV59R1CQU6T","3XUSYT70ITN3RRKBJPNBFGD6FGOD06","","img/set1/S2.jpg","68","2","structured_normal","68","true","structured_normal,random,structured_incentive","2,3,1,2","",""
"null","","html-keyboard-response","288","150999","0.0-217.0","3DBQWDE4Y7KDUUVJWRCSHZHDIIC5ND","A2DVV59R1CQU6T","3XUSYT70ITN3RRKBJPNBFGD6FGOD06","","<img src=""img/set1/S2.jpg"" width=""540"" height = ""360"" style=""border:16px solid orange"">","null","","","","","","","",""
"null","","html-keyboard-response","289","151001","0.0-218.0","3DBQWDE4Y7KDUUVJWRCSHZHDIIC5ND","A2DVV59R1CQU6T","3XUSYT70ITN3RRKBJPNBFGD6FGOD06","","","null","","","","","","","",""
"633","","image-keyboard-response","290","151635","0.0-219.0","3DBQWDE4Y7KDUUVJWRCSHZHDIIC5ND","A2DVV59R1CQU6T","3XUSYT70ITN3RRKBJPNBFGD6FGOD06","","img/set1/S3.jpg","72","3","structured_normal","72","true","structured_normal,random,structured_incentive","2,3,1,2","",""
"null","","html-keyboard-response","291","151999","0.0-220.0","3DBQWDE4Y7KDUUVJWRCSHZHDIIC5ND","A2DVV59R1CQU6T","3XUSYT70ITN3RRKBJPNBFGD6FGOD06","","<img src=""img/set1/S3.jpg"" width=""540"" height = ""360"" style=""border:16px solid orange"">","null","","","","","","","",""
"null","","html-keyboard-response","292","152000","0.0-221.0","3DBQWDE4Y7KDUUVJWRCSHZHDIIC5ND","A2DVV59R1CQU6T","3XUSYT70ITN3RRKBJPNBFGD6FGOD06","","","null","","","","","","","",""
"734","","image-keyboard-response","293","152735","0.0-222.0","3DBQWDE4Y7KDUUVJWRCSHZHDIIC5ND","A2DVV59R1CQU6T","3XUSYT70ITN3RRKBJPNBFGD6FGOD06","","img/set1/S1.jpg","83","1","structured_normal","83","true","structured_normal,random,structured_incentive","2,3,1,2","",""
"null","","html-keyboard-response","294","153089","0.0-223.0","3DBQWDE4Y7KDUUVJWRCSHZHDIIC5ND","A2DVV59R1CQU6T","3XUSYT70ITN3RRKBJPNBFGD6FGOD06","","<img src=""img/set1/S1.jpg"" width=""540"" height = ""360"" style=""border:16px solid orange"">","null","","","","","","","",""
"null","","html-keyboard-response","295","153092","0.0-224.0","3DBQWDE4Y7KDUUVJWRCSHZHDIIC5ND","A2DVV59R1CQU6T","3XUSYT70ITN3RRKBJPNBFGD6FGOD06","","","null","","","","","","","",""
"532","","image-keyboard-response","296","153623","0.0-225.0","3DBQWDE4Y7KDUUVJWRCSHZHDIIC5ND","A2DVV59R1CQU6T","3XUSYT70ITN3RRKBJPNBFGD6FGOD06","","img/set1/S1.jpg","83","1","structured_normal","83","true","structured_normal,random,structured_incentive","2,3,1,2","",""
"null","","html-keyboard-response","297","153988","0.0-226.0","3DBQWDE4Y7KDUUVJWRCSHZHDIIC5ND","A2DVV59R1CQU6T","3XUSYT70ITN3RRKBJPNBFGD6FGOD06","","<img src=""img/set1/S1.jpg"" width=""540"" height = ""360"" style=""border:16px solid orange"">","null","","","","","","","",""
"null","","html-keyboard-response","298","153990","0.0-227.0","3DBQWDE4Y7KDUUVJWRCSHZHDIIC5ND","A2DVV59R1CQU6T","3XUSYT70ITN3RRKBJPNBFGD6FGOD06","","","null","","","","","","","",""
"634","","image-keyboard-response","299","154626","0.0-228.0","3DBQWDE4Y7KDUUVJWRCSHZHDIIC5ND","A2DVV59R1CQU6T","3XUSYT70ITN3RRKBJPNBFGD6FGOD06","","img/set1/S4.jpg","72","4","structured_normal","74","false","structured_normal,random,structured_incentive","2,3,1,2","",""
"null","","html-keyboard-response","300","154984","0.0-229.0","3DBQWDE4Y7KDUUVJWRCSHZHDIIC5ND","A2DVV59R1CQU6T","3XUSYT70ITN3RRKBJPNBFGD6FGOD06","","<img src=""img/set1/S4.jpg"" width=""540"" height = ""360"">","null","","","","","","","",""
"null","","html-keyboard-response","301","154986","0.0-230.0","3DBQWDE4Y7KDUUVJWRCSHZHDIIC5ND","A2DVV59R1CQU6T","3XUSYT70ITN3RRKBJPNBFGD6FGOD06","","","null","","","","","","","",""
"567","","image-keyboard-response","302","155554","0.0-231.0","3DBQWDE4Y7KDUUVJWRCSHZHDIIC5ND","A2DVV59R1CQU6T","3XUSYT70ITN3RRKBJPNBFGD6FGOD06","","img/set1/S4.jpg","74","4","structured_normal","74","true","structured_normal,random,structured_incentive","2,3,1,2","",""
"null","","html-keyboard-response","303","155914","0.0-232.0","3DBQWDE4Y7KDUUVJWRCSHZHDIIC5ND","A2DVV59R1CQU6T","3XUSYT70ITN3RRKBJPNBFGD6FGOD06","","<img src=""img/set1/S4.jpg"" width=""540"" height = ""360"" style=""border:16px solid orange"">","null","","","","","","","",""
"null","","html-keyboard-response","304","155916","0.0-233.0","3DBQWDE4Y7KDUUVJWRCSHZHDIIC5ND","A2DVV59R1CQU6T","3XUSYT70ITN3RRKBJPNBFGD6FGOD06","","","null","","","","","","","",""
"670","","image-keyboard-response","305","156587","0.0-234.0","3DBQWDE4Y7KDUUVJWRCSHZHDIIC5ND","A2DVV59R1CQU6T","3XUSYT70ITN3RRKBJPNBFGD6FGOD06","","img/set1/S2.jpg","68","2","structured_normal","68","true","structured_normal,random,structured_incentive","2,3,1,2","",""
"null","","html-keyboard-response","306","156950","0.0-235.0","3DBQWDE4Y7KDUUVJWRCSHZHDIIC5ND","A2DVV59R1CQU6T","3XUSYT70ITN3RRKBJPNBFGD6FGOD06","","<img src=""img/set1/S2.jpg"" width=""540"" height = ""360"" style=""border:16px solid orange"">","null","","","","","","","",""
"null","","html-keyboard-response","307","156951","0.0-236.0","3DBQWDE4Y7KDUUVJWRCSHZHDIIC5ND","A2DVV59R1CQU6T","3XUSYT70ITN3RRKBJPNBFGD6FGOD06","","","null","","","","","","","",""
"612","","image-keyboard-response","308","157564","0.0-237.0","3DBQWDE4Y7KDUUVJWRCSHZHDIIC5ND","A2DVV59R1CQU6T","3XUSYT70ITN3RRKBJPNBFGD6FGOD06","","img/set1/S3.jpg","68","3","structured_normal","72","false","structured_normal,random,structured_incentive","2,3,1,2","",""
"null","","html-keyboard-response","309","157928","0.0-238.0","3DBQWDE4Y7KDUUVJWRCSHZHDIIC5ND","A2DVV59R1CQU6T","3XUSYT70ITN3RRKBJPNBFGD6FGOD06","","<img src=""img/set1/S3.jpg"" width=""540"" height = ""360"">","null","","","","","","","",""
"null","","html-keyboard-response","310","157930","0.0-239.0","3DBQWDE4Y7KDUUVJWRCSHZHDIIC5ND","A2DVV59R1CQU6T","3XUSYT70ITN3RRKBJPNBFGD6FGOD06","","","null","","","","","","","",""
"722","","image-keyboard-response","311","158653","0.0-240.0","3DBQWDE4Y7KDUUVJWRCSHZHDIIC5ND","A2DVV59R1CQU6T","3XUSYT70ITN3RRKBJPNBFGD6FGOD06","","img/set1/S1.jpg","83","1","structured_normal","83","true","structured_normal,random,structured_incentive","2,3,1,2","",""
"null","","html-keyboard-response","312","159013","0.0-241.0","3DBQWDE4Y7KDUUVJWRCSHZHDIIC5ND","A2DVV59R1CQU6T","3XUSYT70ITN3RRKBJPNBFGD6FGOD06","","<img src=""img/set1/S1.jpg"" width=""540"" height = ""360"" style=""border:16px solid orange"">","null","","","","","","","",""
"null","","html-keyboard-response","313","159014","0.0-242.0","3DBQWDE4Y7KDUUVJWRCSHZHDIIC5ND","A2DVV59R1CQU6T","3XUSYT70ITN3RRKBJPNBFGD6FGOD06","","","null","","","","","","","",""
"545","","image-keyboard-response","314","159561","0.0-243.0","3DBQWDE4Y7KDUUVJWRCSHZHDIIC5ND","A2DVV59R1CQU6T","3XUSYT70ITN3RRKBJPNBFGD6FGOD06","","img/set1/S1.jpg","83","1","structured_normal","83","true","structured_normal,random,structured_incentive","2,3,1,2","",""
"null","","html-keyboard-response","315","159914","0.0-244.0","3DBQWDE4Y7KDUUVJWRCSHZHDIIC5ND","A2DVV59R1CQU6T","3XUSYT70ITN3RRKBJPNBFGD6FGOD06","","<img src=""img/set1/S1.jpg"" width=""540"" height = ""360"" style=""border:16px solid orange"">","null","","","","","","","",""
"null","","html-keyboard-response","316","159916","0.0-245.0","3DBQWDE4Y7KDUUVJWRCSHZHDIIC5ND","A2DVV59R1CQU6T","3XUSYT70ITN3RRKBJPNBFGD6FGOD06","","","null","","","","","","","",""
"590","","image-keyboard-response","317","160508","0.0-246.0","3DBQWDE4Y7KDUUVJWRCSHZHDIIC5ND","A2DVV59R1CQU6T","3XUSYT70ITN3RRKBJPNBFGD6FGOD06","","img/set1/S1.jpg","83","1","structured_normal","83","true","structured_normal,random,structured_incentive","2,3,1,2","",""
"null","","html-keyboard-response","318","160875","0.0-247.0","3DBQWDE4Y7KDUUVJWRCSHZHDIIC5ND","A2DVV59R1CQU6T","3XUSYT70ITN3RRKBJPNBFGD6FGOD06","","<img src=""img/set1/S1.jpg"" width=""540"" height = ""360"" style=""border:16px solid orange"">","null","","","","","","","",""
"null","","html-keyboard-response","319","160877","0.0-248.0","3DBQWDE4Y7KDUUVJWRCSHZHDIIC5ND","A2DVV59R1CQU6T","3XUSYT70ITN3RRKBJPNBFGD6FGOD06","","","null","","","","","","","",""
"707","","image-keyboard-response","320","161585","0.0-249.0","3DBQWDE4Y7KDUUVJWRCSHZHDIIC5ND","A2DVV59R1CQU6T","3XUSYT70ITN3RRKBJPNBFGD6FGOD06","","img/set1/S2.jpg","68","2","structured_normal","68","true","structured_normal,random,structured_incentive","2,3,1,2","",""
"null","","html-keyboard-response","321","161948","0.0-250.0","3DBQWDE4Y7KDUUVJWRCSHZHDIIC5ND","A2DVV59R1CQU6T","3XUSYT70ITN3RRKBJPNBFGD6FGOD06","","<img src=""img/set1/S2.jpg"" width=""540"" height = ""360"" style=""border:16px solid orange"">","null","","","","","","","",""
"null","","html-keyboard-response","322","161950","0.0-251.0","3DBQWDE4Y7KDUUVJWRCSHZHDIIC5ND","A2DVV59R1CQU6T","3XUSYT70ITN3RRKBJPNBFGD6FGOD06","","","null","","","","","","","",""
"668","","image-keyboard-response","323","162620","0.0-252.0","3DBQWDE4Y7KDUUVJWRCSHZHDIIC5ND","A2DVV59R1CQU6T","3XUSYT70ITN3RRKBJPNBFGD6FGOD06","","img/set1/S3.jpg","72","3","structured_normal","72","true","structured_normal,random,structured_incentive","2,3,1,2","",""
"null","","html-keyboard-response","324","162974","0.0-253.0","3DBQWDE4Y7KDUUVJWRCSHZHDIIC5ND","A2DVV59R1CQU6T","3XUSYT70ITN3RRKBJPNBFGD6FGOD06","","<img src=""img/set1/S3.jpg"" width=""540"" height = ""360"" style=""border:16px solid orange"">","null","","","","","","","",""
"null","","html-keyboard-response","325","162975","0.0-254.0","3DBQWDE4Y7KDUUVJWRCSHZHDIIC5ND","A2DVV59R1CQU6T","3XUSYT70ITN3RRKBJPNBFGD6FGOD06","","","null","","","","","","","",""
"849","","image-keyboard-response","326","163827","0.0-255.0","3DBQWDE4Y7KDUUVJWRCSHZHDIIC5ND","A2DVV59R1CQU6T","3XUSYT70ITN3RRKBJPNBFGD6FGOD06","","img/set1/S4.jpg","74","4","structured_normal","74","true","structured_normal,random,structured_incentive","2,3,1,2","",""
"null","","html-keyboard-response","327","164183","0.0-256.0","3DBQWDE4Y7KDUUVJWRCSHZHDIIC5ND","A2DVV59R1CQU6T","3XUSYT70ITN3RRKBJPNBFGD6FGOD06","","<img src=""img/set1/S4.jpg"" width=""540"" height = ""360"" style=""border:16px solid orange"">","null","","","","","","","",""
"null","","html-keyboard-response","328","164185","0.0-257.0","3DBQWDE4Y7KDUUVJWRCSHZHDIIC5ND","A2DVV59R1CQU6T","3XUSYT70ITN3RRKBJPNBFGD6FGOD06","","","null","","","","","","","",""
"767","","image-keyboard-response","329","164954","0.0-258.0","3DBQWDE4Y7KDUUVJWRCSHZHDIIC5ND","A2DVV59R1CQU6T","3XUSYT70ITN3RRKBJPNBFGD6FGOD06","","img/set1/S1.jpg","83","1","structured_normal","83","true","structured_normal,random,structured_incentive","2,3,1,2","",""
"null","","html-keyboard-response","330","165314","0.0-259.0","3DBQWDE4Y7KDUUVJWRCSHZHDIIC5ND","A2DVV59R1CQU6T","3XUSYT70ITN3RRKBJPNBFGD6FGOD06","","<img src=""img/set1/S1.jpg"" width=""540"" height = ""360"" style=""border:16px solid orange"">","null","","","","","","","",""
"null","","html-keyboard-response","331","165316","0.0-260.0","3DBQWDE4Y7KDUUVJWRCSHZHDIIC5ND","A2DVV59R1CQU6T","3XUSYT70ITN3RRKBJPNBFGD6FGOD06","","","null","","","","","","","",""
"605","","image-keyboard-response","332","165922","0.0-261.0","3DBQWDE4Y7KDUUVJWRCSHZHDIIC5ND","A2DVV59R1CQU6T","3XUSYT70ITN3RRKBJPNBFGD6FGOD06","","img/set1/S1.jpg","83","1","structured_normal","83","true","structured_normal,random,structured_incentive","2,3,1,2","",""
"null","","html-keyboard-response","333","166280","0.0-262.0","3DBQWDE4Y7KDUUVJWRCSHZHDIIC5ND","A2DVV59R1CQU6T","3XUSYT70ITN3RRKBJPNBFGD6FGOD06","","<img src=""img/set1/S1.jpg"" width=""540"" height = ""360"" style=""border:16px solid orange"">","null","","","","","","","",""
"null","","html-keyboard-response","334","166282","0.0-263.0","3DBQWDE4Y7KDUUVJWRCSHZHDIIC5ND","A2DVV59R1CQU6T","3XUSYT70ITN3RRKBJPNBFGD6FGOD06","","","null","","","","","","","",""
"655","","image-keyboard-response","335","166939","0.0-264.0","3DBQWDE4Y7KDUUVJWRCSHZHDIIC5ND","A2DVV59R1CQU6T","3XUSYT70ITN3RRKBJPNBFGD6FGOD06","","img/set1/S2.jpg","68","2","structured_normal","68","true","structured_normal,random,structured_incentive","2,3,1,2","",""
"null","","html-keyboard-response","336","167295","0.0-265.0","3DBQWDE4Y7KDUUVJWRCSHZHDIIC5ND","A2DVV59R1CQU6T","3XUSYT70ITN3RRKBJPNBFGD6FGOD06","","<img src=""img/set1/S2.jpg"" width=""540"" height = ""360"" style=""border:16px solid orange"">","null","","","","","","","",""
"null","","html-keyboard-response","337","167297","0.0-266.0","3DBQWDE4Y7KDUUVJWRCSHZHDIIC5ND","A2DVV59R1CQU6T","3XUSYT70ITN3RRKBJPNBFGD6FGOD06","","","null","","","","","","","",""
"541","","image-keyboard-response","338","167840","0.0-267.0","3DBQWDE4Y7KDUUVJWRCSHZHDIIC5ND","A2DVV59R1CQU6T","3XUSYT70ITN3RRKBJPNBFGD6FGOD06","","img/set1/S3.jpg","72","3","structured_normal","72","true","structured_normal,random,structured_incentive","2,3,1,2","",""
"null","","html-keyboard-response","339","168195","0.0-268.0","3DBQWDE4Y7KDUUVJWRCSHZHDIIC5ND","A2DVV59R1CQU6T","3XUSYT70ITN3RRKBJPNBFGD6FGOD06","","<img src=""img/set1/S3.jpg"" width=""540"" height = ""360"" style=""border:16px solid orange"">","null","","","","","","","",""
"null","","html-keyboard-response","340","168197","0.0-269.0","3DBQWDE4Y7KDUUVJWRCSHZHDIIC5ND","A2DVV59R1CQU6T","3XUSYT70ITN3RRKBJPNBFGD6FGOD06","","","null","","","","","","","",""
"683","","image-keyboard-response","341","168881","0.0-270.0","3DBQWDE4Y7KDUUVJWRCSHZHDIIC5ND","A2DVV59R1CQU6T","3XUSYT70ITN3RRKBJPNBFGD6FGOD06","","img/set1/S2.jpg","83","2","structured_normal","68","false","structured_normal,random,structured_incentive","2,3,1,2","",""
"null","","html-keyboard-response","342","169236","0.0-271.0","3DBQWDE4Y7KDUUVJWRCSHZHDIIC5ND","A2DVV59R1CQU6T","3XUSYT70ITN3RRKBJPNBFGD6FGOD06","","<img src=""img/set1/S2.jpg"" width=""540"" height = ""360"">","null","","","","","","","",""
"null","","html-keyboard-response","343","169239","0.0-272.0","3DBQWDE4Y7KDUUVJWRCSHZHDIIC5ND","A2DVV59R1CQU6T","3XUSYT70ITN3RRKBJPNBFGD6FGOD06","","","null","","","","","","","",""
"734","","image-keyboard-response","344","169974","0.0-273.0","3DBQWDE4Y7KDUUVJWRCSHZHDIIC5ND","A2DVV59R1CQU6T","3XUSYT70ITN3RRKBJPNBFGD6FGOD06","","img/set1/S3.jpg","72","3","structured_normal","72","true","structured_normal,random,structured_incentive","2,3,1,2","",""
"null","","html-keyboard-response","345","170327","0.0-274.0","3DBQWDE4Y7KDUUVJWRCSHZHDIIC5ND","A2DVV59R1CQU6T","3XUSYT70ITN3RRKBJPNBFGD6FGOD06","","<img src=""img/set1/S3.jpg"" width=""540"" height = ""360"" style=""border:16px solid orange"">","null","","","","","","","",""
"null","","html-keyboard-response","346","170329","0.0-275.0","3DBQWDE4Y7KDUUVJWRCSHZHDIIC5ND","A2DVV59R1CQU6T","3XUSYT70ITN3RRKBJPNBFGD6FGOD06","","","null","","","","","","","",""
"752","","image-keyboard-response","347","171082","0.0-276.0","3DBQWDE4Y7KDUUVJWRCSHZHDIIC5ND","A2DVV59R1CQU6T","3XUSYT70ITN3RRKBJPNBFGD6FGOD06","","img/set1/S2.jpg","68","2","structured_normal","68","true","structured_normal,random,structured_incentive","2,3,1,2","",""
"null","","html-keyboard-response","348","171448","0.0-277.0","3DBQWDE4Y7KDUUVJWRCSHZHDIIC5ND","A2DVV59R1CQU6T","3XUSYT70ITN3RRKBJPNBFGD6FGOD06","","<img src=""img/set1/S2.jpg"" width=""540"" height = ""360"" style=""border:16px solid orange"">","null","","","","","","","",""
"null","","html-keyboard-response","349","171449","0.0-278.0","3DBQWDE4Y7KDUUVJWRCSHZHDIIC5ND","A2DVV59R1CQU6T","3XUSYT70ITN3RRKBJPNBFGD6FGOD06","","","null","","","","","","","",""
"754","","image-keyboard-response","350","172205","0.0-279.0","3DBQWDE4Y7KDUUVJWRCSHZHDIIC5ND","A2DVV59R1CQU6T","3XUSYT70ITN3RRKBJPNBFGD6FGOD06","","img/set1/S3.jpg","72","3","structured_normal","72","true","structured_normal,random,structured_incentive","2,3,1,2","",""
"null","","html-keyboard-response","351","172558","0.0-280.0","3DBQWDE4Y7KDUUVJWRCSHZHDIIC5ND","A2DVV59R1CQU6T","3XUSYT70ITN3RRKBJPNBFGD6FGOD06","","<img src=""img/set1/S3.jpg"" width=""540"" height = ""360"" style=""border:16px solid orange"">","null","","","","","","","",""
"null","","html-keyboard-response","352","172561","0.0-281.0","3DBQWDE4Y7KDUUVJWRCSHZHDIIC5ND","A2DVV59R1CQU6T","3XUSYT70ITN3RRKBJPNBFGD6FGOD06","","","null","","","","","","","",""
"837","","image-keyboard-response","353","173399","0.0-282.0","3DBQWDE4Y7KDUUVJWRCSHZHDIIC5ND","A2DVV59R1CQU6T","3XUSYT70ITN3RRKBJPNBFGD6FGOD06","","img/set1/S4.jpg","74","4","structured_normal","74","true","structured_normal,random,structured_incentive","2,3,1,2","",""
"null","","html-keyboard-response","354","173751","0.0-283.0","3DBQWDE4Y7KDUUVJWRCSHZHDIIC5ND","A2DVV59R1CQU6T","3XUSYT70ITN3RRKBJPNBFGD6FGOD06","","<img src=""img/set1/S4.jpg"" width=""540"" height = ""360"" style=""border:16px solid orange"">","null","","","","","","","",""
"null","","html-keyboard-response","355","173752","0.0-284.0","3DBQWDE4Y7KDUUVJWRCSHZHDIIC5ND","A2DVV59R1CQU6T","3XUSYT70ITN3RRKBJPNBFGD6FGOD06","","","null","","","","","","","",""
"729","","image-keyboard-response","356","174482","0.0-285.0","3DBQWDE4Y7KDUUVJWRCSHZHDIIC5ND","A2DVV59R1CQU6T","3XUSYT70ITN3RRKBJPNBFGD6FGOD06","","img/set1/S1.jpg","83","1","structured_normal","83","true","structured_normal,random,structured_incentive","2,3,1,2","",""
"null","","html-keyboard-response","357","174844","0.0-286.0","3DBQWDE4Y7KDUUVJWRCSHZHDIIC5ND","A2DVV59R1CQU6T","3XUSYT70ITN3RRKBJPNBFGD6FGOD06","","<img src=""img/set1/S1.jpg"" width=""540"" height = ""360"" style=""border:16px solid orange"">","null","","","","","","","",""
"null","","html-keyboard-response","358","174846","0.0-287.0","3DBQWDE4Y7KDUUVJWRCSHZHDIIC5ND","A2DVV59R1CQU6T","3XUSYT70ITN3RRKBJPNBFGD6FGOD06","","","null","","","","","","","",""
"785","","image-keyboard-response","359","175632","0.0-288.0","3DBQWDE4Y7KDUUVJWRCSHZHDIIC5ND","A2DVV59R1CQU6T","3XUSYT70ITN3RRKBJPNBFGD6FGOD06","","img/set1/S2.jpg","68","2","structured_normal","68","true","structured_normal,random,structured_incentive","2,3,1,2","",""
"null","","html-keyboard-response","360","176000","0.0-289.0","3DBQWDE4Y7KDUUVJWRCSHZHDIIC5ND","A2DVV59R1CQU6T","3XUSYT70ITN3RRKBJPNBFGD6FGOD06","","<img src=""img/set1/S2.jpg"" width=""540"" height = ""360"" style=""border:16px solid orange"">","null","","","","","","","",""
"null","","html-keyboard-response","361","176002","0.0-290.0","3DBQWDE4Y7KDUUVJWRCSHZHDIIC5ND","A2DVV59R1CQU6T","3XUSYT70ITN3RRKBJPNBFGD6FGOD06","","","null","","","","","","","",""
"681","","image-keyboard-response","362","176684","0.0-291.0","3DBQWDE4Y7KDUUVJWRCSHZHDIIC5ND","A2DVV59R1CQU6T","3XUSYT70ITN3RRKBJPNBFGD6FGOD06","","img/set1/S3.jpg","72","3","structured_normal","72","true","structured_normal,random,structured_incentive","2,3,1,2","",""
"null","","html-keyboard-response","363","177039","0.0-292.0","3DBQWDE4Y7KDUUVJWRCSHZHDIIC5ND","A2DVV59R1CQU6T","3XUSYT70ITN3RRKBJPNBFGD6FGOD06","","<img src=""img/set1/S3.jpg"" width=""540"" height = ""360"" style=""border:16px solid orange"">","null","","","","","","","",""
"null","","html-keyboard-response","364","177041","0.0-293.0","3DBQWDE4Y7KDUUVJWRCSHZHDIIC5ND","A2DVV59R1CQU6T","3XUSYT70ITN3RRKBJPNBFGD6FGOD06","","","null","","","","","","","",""
"765","","image-keyboard-response","365","177807","0.0-294.0","3DBQWDE4Y7KDUUVJWRCSHZHDIIC5ND","A2DVV59R1CQU6T","3XUSYT70ITN3RRKBJPNBFGD6FGOD06","","img/set1/S2.jpg","68","2","structured_normal","68","true","structured_normal,random,structured_incentive","2,3,1,2","",""
"null","","html-keyboard-response","366","178175","0.0-295.0","3DBQWDE4Y7KDUUVJWRCSHZHDIIC5ND","A2DVV59R1CQU6T","3XUSYT70ITN3RRKBJPNBFGD6FGOD06","","<img src=""img/set1/S2.jpg"" width=""540"" height = ""360"" style=""border:16px solid orange"">","null","","","","","","","",""
"null","","html-keyboard-response","367","178177","0.0-296.0","3DBQWDE4Y7KDUUVJWRCSHZHDIIC5ND","A2DVV59R1CQU6T","3XUSYT70ITN3RRKBJPNBFGD6FGOD06","","","null","","","","","","","",""
"883","","image-keyboard-response","368","179062","0.0-297.0","3DBQWDE4Y7KDUUVJWRCSHZHDIIC5ND","A2DVV59R1CQU6T","3XUSYT70ITN3RRKBJPNBFGD6FGOD06","","img/set1/S4.jpg","74","4","structured_normal","74","true","structured_normal,random,structured_incentive","2,3,1,2","",""
"null","","html-keyboard-response","369","179418","0.0-298.0","3DBQWDE4Y7KDUUVJWRCSHZHDIIC5ND","A2DVV59R1CQU6T","3XUSYT70ITN3RRKBJPNBFGD6FGOD06","","<img src=""img/set1/S4.jpg"" width=""540"" height = ""360"" style=""border:16px solid orange"">","null","","","","","","","",""
"null","","html-keyboard-response","370","179419","0.0-299.0","3DBQWDE4Y7KDUUVJWRCSHZHDIIC5ND","A2DVV59R1CQU6T","3XUSYT70ITN3RRKBJPNBFGD6FGOD06","","","null","","","","","","","",""
"572","","image-keyboard-response","371","179992","0.0-300.0","3DBQWDE4Y7KDUUVJWRCSHZHDIIC5ND","A2DVV59R1CQU6T","3XUSYT70ITN3RRKBJPNBFGD6FGOD06","","img/set1/S4.jpg","74","4","structured_normal","74","true","structured_normal,random,structured_incentive","2,3,1,2","",""
"null","","html-keyboard-response","372","180351","0.0-301.0","3DBQWDE4Y7KDUUVJWRCSHZHDIIC5ND","A2DVV59R1CQU6T","3XUSYT70ITN3RRKBJPNBFGD6FGOD06","","<img src=""img/set1/S4.jpg"" width=""540"" height = ""360"" style=""border:16px solid orange"">","null","","","","","","","",""
"null","","html-keyboard-response","373","180352","0.0-302.0","3DBQWDE4Y7KDUUVJWRCSHZHDIIC5ND","A2DVV59R1CQU6T","3XUSYT70ITN3RRKBJPNBFGD6FGOD06","","","null","","","","","","","",""
"723","","image-keyboard-response","374","181076","0.0-303.0","3DBQWDE4Y7KDUUVJWRCSHZHDIIC5ND","A2DVV59R1CQU6T","3XUSYT70ITN3RRKBJPNBFGD6FGOD06","","img/set1/S2.jpg","68","2","structured_normal","68","true","structured_normal,random,structured_incentive","2,3,1,2","",""
"null","","html-keyboard-response","375","181431","0.0-304.0","3DBQWDE4Y7KDUUVJWRCSHZHDIIC5ND","A2DVV59R1CQU6T","3XUSYT70ITN3RRKBJPNBFGD6FGOD06","","<img src=""img/set1/S2.jpg"" width=""540"" height = ""360"" style=""border:16px solid orange"">","null","","","","","","","",""
"null","","html-keyboard-response","376","181433","0.0-305.0","3DBQWDE4Y7KDUUVJWRCSHZHDIIC5ND","A2DVV59R1CQU6T","3XUSYT70ITN3RRKBJPNBFGD6FGOD06","","","null","","","","","","","",""
"623","","image-keyboard-response","377","182058","0.0-306.0","3DBQWDE4Y7KDUUVJWRCSHZHDIIC5ND","A2DVV59R1CQU6T","3XUSYT70ITN3RRKBJPNBFGD6FGOD06","","img/set1/S4.jpg","72","4","structured_normal","74","false","structured_normal,random,structured_incentive","2,3,1,2","",""
"null","","html-keyboard-response","378","182414","0.0-307.0","3DBQWDE4Y7KDUUVJWRCSHZHDIIC5ND","A2DVV59R1CQU6T","3XUSYT70ITN3RRKBJPNBFGD6FGOD06","","<img src=""img/set1/S4.jpg"" width=""540"" height = ""360"">","null","","","","","","","",""
"null","","html-keyboard-response","379","182416","0.0-308.0","3DBQWDE4Y7KDUUVJWRCSHZHDIIC5ND","A2DVV59R1CQU6T","3XUSYT70ITN3RRKBJPNBFGD6FGOD06","","","null","","","","","","","",""
"684","","image-keyboard-response","380","183102","0.0-309.0","3DBQWDE4Y7KDUUVJWRCSHZHDIIC5ND","A2DVV59R1CQU6T","3XUSYT70ITN3RRKBJPNBFGD6FGOD06","","img/set1/S1.jpg","83","1","structured_normal","83","true","structured_normal,random,structured_incentive","2,3,1,2","",""
"null","","html-keyboard-response","381","183464","0.0-310.0","3DBQWDE4Y7KDUUVJWRCSHZHDIIC5ND","A2DVV59R1CQU6T","3XUSYT70ITN3RRKBJPNBFGD6FGOD06","","<img src=""img/set1/S1.jpg"" width=""540"" height = ""360"" style=""border:16px solid orange"">","null","","","","","","","",""
"null","","html-keyboard-response","382","183466","0.0-311.0","3DBQWDE4Y7KDUUVJWRCSHZHDIIC5ND","A2DVV59R1CQU6T","3XUSYT70ITN3RRKBJPNBFGD6FGOD06","","","null","","","","","","","",""
"787","","image-keyboard-response","383","184254","0.0-312.0","3DBQWDE4Y7KDUUVJWRCSHZHDIIC5ND","A2DVV59R1CQU6T","3XUSYT70ITN3RRKBJPNBFGD6FGOD06","","img/set1/S4.jpg","74","4","structured_normal","74","true","structured_normal,random,structured_incentive","2,3,1,2","",""
"null","","html-keyboard-response","384","184610","0.0-313.0","3DBQWDE4Y7KDUUVJWRCSHZHDIIC5ND","A2DVV59R1CQU6T","3XUSYT70ITN3RRKBJPNBFGD6FGOD06","","<img src=""img/set1/S4.jpg"" width=""540"" height = ""360"" style=""border:16px solid orange"">","null","","","","","","","",""
"null","","html-keyboard-response","385","184612","0.0-314.0","3DBQWDE4Y7KDUUVJWRCSHZHDIIC5ND","A2DVV59R1CQU6T","3XUSYT70ITN3RRKBJPNBFGD6FGOD06","","","null","","","","","","","",""
"649","","image-keyboard-response","386","185262","0.0-315.0","3DBQWDE4Y7KDUUVJWRCSHZHDIIC5ND","A2DVV59R1CQU6T","3XUSYT70ITN3RRKBJPNBFGD6FGOD06","","img/set1/S4.jpg","74","4","structured_normal","74","true","structured_normal,random,structured_incentive","2,3,1,2","",""
"null","","html-keyboard-response","387","185618","0.0-316.0","3DBQWDE4Y7KDUUVJWRCSHZHDIIC5ND","A2DVV59R1CQU6T","3XUSYT70ITN3RRKBJPNBFGD6FGOD06","","<img src=""img/set1/S4.jpg"" width=""540"" height = ""360"" style=""border:16px solid orange"">","null","","","","","","","",""
"null","","html-keyboard-response","388","185620","0.0-317.0","3DBQWDE4Y7KDUUVJWRCSHZHDIIC5ND","A2DVV59R1CQU6T","3XUSYT70ITN3RRKBJPNBFGD6FGOD06","","","null","","","","","","","",""
"803","","image-keyboard-response","389","186423","0.0-318.0","3DBQWDE4Y7KDUUVJWRCSHZHDIIC5ND","A2DVV59R1CQU6T","3XUSYT70ITN3RRKBJPNBFGD6FGOD06","","img/set1/S1.jpg","83","1","structured_normal","83","true","structured_normal,random,structured_incentive","2,3,1,2","",""
"null","","html-keyboard-response","390","186779","0.0-319.0","3DBQWDE4Y7KDUUVJWRCSHZHDIIC5ND","A2DVV59R1CQU6T","3XUSYT70ITN3RRKBJPNBFGD6FGOD06","","<img src=""img/set1/S1.jpg"" width=""540"" height = ""360"" style=""border:16px solid orange"">","null","","","","","","","",""
"null","","html-keyboard-response","391","186780","0.0-320.0","3DBQWDE4Y7KDUUVJWRCSHZHDIIC5ND","A2DVV59R1CQU6T","3XUSYT70ITN3RRKBJPNBFGD6FGOD06","","","null","","","","","","","",""
"589","","image-keyboard-response","392","187371","0.0-321.0","3DBQWDE4Y7KDUUVJWRCSHZHDIIC5ND","A2DVV59R1CQU6T","3XUSYT70ITN3RRKBJPNBFGD6FGOD06","","img/set1/S1.jpg","83","1","structured_normal","83","true","structured_normal,random,structured_incentive","2,3,1,2","",""
"null","","html-keyboard-response","393","187729","0.0-322.0","3DBQWDE4Y7KDUUVJWRCSHZHDIIC5ND","A2DVV59R1CQU6T","3XUSYT70ITN3RRKBJPNBFGD6FGOD06","","<img src=""img/set1/S1.jpg"" width=""540"" height = ""360"" style=""border:16px solid orange"">","null","","","","","","","",""
"null","","html-keyboard-response","394","187732","0.0-323.0","3DBQWDE4Y7KDUUVJWRCSHZHDIIC5ND","A2DVV59R1CQU6T","3XUSYT70ITN3RRKBJPNBFGD6FGOD06","","","null","","","","","","","",""
"629","","image-keyboard-response","395","188361","0.0-324.0","3DBQWDE4Y7KDUUVJWRCSHZHDIIC5ND","A2DVV59R1CQU6T","3XUSYT70ITN3RRKBJPNBFGD6FGOD06","","img/set1/S4.jpg","74","4","structured_normal","74","true","structured_normal,random,structured_incentive","2,3,1,2","",""
"null","","html-keyboard-response","396","188724","0.0-325.0","3DBQWDE4Y7KDUUVJWRCSHZHDIIC5ND","A2DVV59R1CQU6T","3XUSYT70ITN3RRKBJPNBFGD6FGOD06","","<img src=""img/set1/S4.jpg"" width=""540"" height = ""360"" style=""border:16px solid orange"">","null","","","","","","","",""
"null","","html-keyboard-response","397","188724","0.0-326.0","3DBQWDE4Y7KDUUVJWRCSHZHDIIC5ND","A2DVV59R1CQU6T","3XUSYT70ITN3RRKBJPNBFGD6FGOD06","","","null","","","","","","","",""
"670","","image-keyboard-response","398","189395","0.0-327.0","3DBQWDE4Y7KDUUVJWRCSHZHDIIC5ND","A2DVV59R1CQU6T","3XUSYT70ITN3RRKBJPNBFGD6FGOD06","","img/set1/S1.jpg","83","1","structured_normal","83","true","structured_normal,random,structured_incentive","2,3,1,2","",""
"null","","html-keyboard-response","399","189749","0.0-328.0","3DBQWDE4Y7KDUUVJWRCSHZHDIIC5ND","A2DVV59R1CQU6T","3XUSYT70ITN3RRKBJPNBFGD6FGOD06","","<img src=""img/set1/S1.jpg"" width=""540"" height = ""360"" style=""border:16px solid orange"">","null","","","","","","","",""
"null","","html-keyboard-response","400","189751","0.0-329.0","3DBQWDE4Y7KDUUVJWRCSHZHDIIC5ND","A2DVV59R1CQU6T","3XUSYT70ITN3RRKBJPNBFGD6FGOD06","","","null","","","","","","","",""
"594","","image-keyboard-response","401","190346","0.0-330.0","3DBQWDE4Y7KDUUVJWRCSHZHDIIC5ND","A2DVV59R1CQU6T","3XUSYT70ITN3RRKBJPNBFGD6FGOD06","","img/set1/S4.jpg","74","4","structured_normal","74","true","structured_normal,random,structured_incentive","2,3,1,2","",""
"null","","html-keyboard-response","402","190701","0.0-331.0","3DBQWDE4Y7KDUUVJWRCSHZHDIIC5ND","A2DVV59R1CQU6T","3XUSYT70ITN3RRKBJPNBFGD6FGOD06","","<img src=""img/set1/S4.jpg"" width=""540"" height = ""360"" style=""border:16px solid orange"">","null","","","","","","","",""
"null","","html-keyboard-response","403","190715","0.0-332.0","3DBQWDE4Y7KDUUVJWRCSHZHDIIC5ND","A2DVV59R1CQU6T","3XUSYT70ITN3RRKBJPNBFGD6FGOD06","","","null","","","","","","","",""
"786","","image-keyboard-response","404","191502","0.0-333.0","3DBQWDE4Y7KDUUVJWRCSHZHDIIC5ND","A2DVV59R1CQU6T","3XUSYT70ITN3RRKBJPNBFGD6FGOD06","","img/set1/S3.jpg","72","3","structured_normal","72","true","structured_normal,random,structured_incentive","2,3,1,2","",""
"null","","html-keyboard-response","405","191858","0.0-334.0","3DBQWDE4Y7KDUUVJWRCSHZHDIIC5ND","A2DVV59R1CQU6T","3XUSYT70ITN3RRKBJPNBFGD6FGOD06","","<img src=""img/set1/S3.jpg"" width=""540"" height = ""360"" style=""border:16px solid orange"">","null","","","","","","","",""
"null","","html-keyboard-response","406","191860","0.0-335.0","3DBQWDE4Y7KDUUVJWRCSHZHDIIC5ND","A2DVV59R1CQU6T","3XUSYT70ITN3RRKBJPNBFGD6FGOD06","","","null","","","","","","","",""
"767","","image-keyboard-response","407","192629","0.0-336.0","3DBQWDE4Y7KDUUVJWRCSHZHDIIC5ND","A2DVV59R1CQU6T","3XUSYT70ITN3RRKBJPNBFGD6FGOD06","","img/set1/S1.jpg","83","1","structured_normal","83","true","structured_normal,random,structured_incentive","2,3,1,2","",""
"null","","html-keyboard-response","408","192990","0.0-337.0","3DBQWDE4Y7KDUUVJWRCSHZHDIIC5ND","A2DVV59R1CQU6T","3XUSYT70ITN3RRKBJPNBFGD6FGOD06","","<img src=""img/set1/S1.jpg"" width=""540"" height = ""360"" style=""border:16px solid orange"">","null","","","","","","","",""
"null","","html-keyboard-response","409","192992","0.0-338.0","3DBQWDE4Y7KDUUVJWRCSHZHDIIC5ND","A2DVV59R1CQU6T","3XUSYT70ITN3RRKBJPNBFGD6FGOD06","","","null","","","","","","","",""
"789","","image-keyboard-response","410","193783","0.0-339.0","3DBQWDE4Y7KDUUVJWRCSHZHDIIC5ND","A2DVV59R1CQU6T","3XUSYT70ITN3RRKBJPNBFGD6FGOD06","","img/set1/S2.jpg","68","2","structured_normal","68","true","structured_normal,random,structured_incentive","2,3,1,2","",""
"null","","html-keyboard-response","411","194147","0.0-340.0","3DBQWDE4Y7KDUUVJWRCSHZHDIIC5ND","A2DVV59R1CQU6T","3XUSYT70ITN3RRKBJPNBFGD6FGOD06","","<img src=""img/set1/S2.jpg"" width=""540"" height = ""360"" style=""border:16px solid orange"">","null","","","","","","","",""
"null","","html-keyboard-response","412","194148","0.0-341.0","3DBQWDE4Y7KDUUVJWRCSHZHDIIC5ND","A2DVV59R1CQU6T","3XUSYT70ITN3RRKBJPNBFGD6FGOD06","","","null","","","","","","","",""
"735","","image-keyboard-response","413","194884","0.0-342.0","3DBQWDE4Y7KDUUVJWRCSHZHDIIC5ND","A2DVV59R1CQU6T","3XUSYT70ITN3RRKBJPNBFGD6FGOD06","","img/set1/S4.jpg","74","4","structured_normal","74","true","structured_normal,random,structured_incentive","2,3,1,2","",""
"null","","html-keyboard-response","414","195248","0.0-343.0","3DBQWDE4Y7KDUUVJWRCSHZHDIIC5ND","A2DVV59R1CQU6T","3XUSYT70ITN3RRKBJPNBFGD6FGOD06","","<img src=""img/set1/S4.jpg"" width=""540"" height = ""360"" style=""border:16px solid orange"">","null","","","","","","","",""
"null","","html-keyboard-response","415","195250","0.0-344.0","3DBQWDE4Y7KDUUVJWRCSHZHDIIC5ND","A2DVV59R1CQU6T","3XUSYT70ITN3RRKBJPNBFGD6FGOD06","","","null","","","","","","","",""
"739","","image-keyboard-response","416","195991","0.0-345.0","3DBQWDE4Y7KDUUVJWRCSHZHDIIC5ND","A2DVV59R1CQU6T","3XUSYT70ITN3RRKBJPNBFGD6FGOD06","","img/set1/S2.jpg","68","2","structured_normal","68","true","structured_normal,random,structured_incentive","2,3,1,2","",""
