"rt","url","trial_type","trial_index","time_elapsed","internal_node_id","assignmentID","mturkID","hitID","view_history","stimulus","key_press","state","test_part","correct_response","correct","order_block","order_chunk","bonus","responses"
"11720.5","consent.html","external-html","0","11849","0.0-0.0","3B1NLC6UG0IBDCWGT28BPLDX864PGO","A2H1QUGX0SOUMH","3DFYDSXB2WMWAZWJRSN67LWQ0PPJUT","","","","","","","","","","",""
"650313.1999999881","","instructions","1","662163","0.0-1.0","3B1NLC6UG0IBDCWGT28BPLDX864PGO","A2H1QUGX0SOUMH","3DFYDSXB2WMWAZWJRSN67LWQ0PPJUT","[{""page_index"":0,""viewing_time"":8362.199999988079},{""page_index"":1,""viewing_time"":9507.600000023842},{""page_index"":2,""viewing_time"":31343.5},{""page_index"":3,""viewing_time"":37811.69999998808},{""page_index"":4,""viewing_time"":467779.60000002384},{""page_index"":5,""viewing_time"":19579.80000001192},{""page_index"":6,""viewing_time"":10851.699999988079},{""page_index"":7,""viewing_time"":65075.80000001192}]","","","","","","","","","",""
"null","","image-keyboard-response","2","664667","0.0-2.0-0.0","3B1NLC6UG0IBDCWGT28BPLDX864PGO","A2H1QUGX0SOUMH","3DFYDSXB2WMWAZWJRSN67LWQ0PPJUT","","img/practice/S2.jpg","null","2","practice","68","false","","","",""
"null","","html-keyboard-response","3","664973","0.0-2.0-1.0","3B1NLC6UG0IBDCWGT28BPLDX864PGO","A2H1QUGX0SOUMH","3DFYDSXB2WMWAZWJRSN67LWQ0PPJUT","","<img src=""img/practice/S2.jpg"" width=""540"" height = ""360"">","null","","","","","","","",""
"null","","html-keyboard-response","4","664976","0.0-2.0-2.0","3B1NLC6UG0IBDCWGT28BPLDX864PGO","A2H1QUGX0SOUMH","3DFYDSXB2WMWAZWJRSN67LWQ0PPJUT","","","null","","","","","","","",""
"null","","image-keyboard-response","5","667479","0.0-2.0-0.1","3B1NLC6UG0IBDCWGT28BPLDX864PGO","A2H1QUGX0SOUMH","3DFYDSXB2WMWAZWJRSN67LWQ0PPJUT","","img/practice/S3.jpg","null","3","practice","72","false","","","",""
"null","","html-keyboard-response","6","667782","0.0-2.0-1.1","3B1NLC6UG0IBDCWGT28BPLDX864PGO","A2H1QUGX0SOUMH","3DFYDSXB2WMWAZWJRSN67LWQ0PPJUT","","<img src=""img/practice/S3.jpg"" width=""540"" height = ""360"">","null","","","","","","","",""
"null","","html-keyboard-response","7","667798","0.0-2.0-2.1","3B1NLC6UG0IBDCWGT28BPLDX864PGO","A2H1QUGX0SOUMH","3DFYDSXB2WMWAZWJRSN67LWQ0PPJUT","","","null","","","","","","","",""
"null","","image-keyboard-response","8","670303","0.0-2.0-0.2","3B1NLC6UG0IBDCWGT28BPLDX864PGO","A2H1QUGX0SOUMH","3DFYDSXB2WMWAZWJRSN67LWQ0PPJUT","","img/practice/S4.jpg","null","4","practice","74","false","","","",""
"null","","html-keyboard-response","9","670606","0.0-2.0-1.2","3B1NLC6UG0IBDCWGT28BPLDX864PGO","A2H1QUGX0SOUMH","3DFYDSXB2WMWAZWJRSN67LWQ0PPJUT","","<img src=""img/practice/S4.jpg"" width=""540"" height = ""360"">","null","","","","","","","",""
"null","","html-keyboard-response","10","670615","0.0-2.0-2.2","3B1NLC6UG0IBDCWGT28BPLDX864PGO","A2H1QUGX0SOUMH","3DFYDSXB2WMWAZWJRSN67LWQ0PPJUT","","","null","","","","","","","",""
"null","","image-keyboard-response","11","673126","0.0-2.0-0.3","3B1NLC6UG0IBDCWGT28BPLDX864PGO","A2H1QUGX0SOUMH","3DFYDSXB2WMWAZWJRSN67LWQ0PPJUT","","img/practice/S1.jpg","null","1","practice","83","false","","","",""
"null","","html-keyboard-response","12","673429","0.0-2.0-1.3","3B1NLC6UG0IBDCWGT28BPLDX864PGO","A2H1QUGX0SOUMH","3DFYDSXB2WMWAZWJRSN67LWQ0PPJUT","","<img src=""img/practice/S1.jpg"" width=""540"" height = ""360"">","null","","","","","","","",""
"null","","html-keyboard-response","13","673435","0.0-2.0-2.3","3B1NLC6UG0IBDCWGT28BPLDX864PGO","A2H1QUGX0SOUMH","3DFYDSXB2WMWAZWJRSN67LWQ0PPJUT","","","null","","","","","","","",""
"null","","image-keyboard-response","14","675939","0.0-2.0-0.4","3B1NLC6UG0IBDCWGT28BPLDX864PGO","A2H1QUGX0SOUMH","3DFYDSXB2WMWAZWJRSN67LWQ0PPJUT","","img/practice/S4.jpg","null","4","practice","74","false","","","",""
"null","","html-keyboard-response","15","676242","0.0-2.0-1.4","3B1NLC6UG0IBDCWGT28BPLDX864PGO","A2H1QUGX0SOUMH","3DFYDSXB2WMWAZWJRSN67LWQ0PPJUT","","<img src=""img/practice/S4.jpg"" width=""540"" height = ""360"">","null","","","","","","","",""
"null","","html-keyboard-response","16","676248","0.0-2.0-2.4","3B1NLC6UG0IBDCWGT28BPLDX864PGO","A2H1QUGX0SOUMH","3DFYDSXB2WMWAZWJRSN67LWQ0PPJUT","","","null","","","","","","","",""
"null","","image-keyboard-response","17","678751","0.0-2.0-0.5","3B1NLC6UG0IBDCWGT28BPLDX864PGO","A2H1QUGX0SOUMH","3DFYDSXB2WMWAZWJRSN67LWQ0PPJUT","","img/practice/S1.jpg","null","1","practice","83","false","","","",""
"null","","html-keyboard-response","18","679052","0.0-2.0-1.5","3B1NLC6UG0IBDCWGT28BPLDX864PGO","A2H1QUGX0SOUMH","3DFYDSXB2WMWAZWJRSN67LWQ0PPJUT","","<img src=""img/practice/S1.jpg"" width=""540"" height = ""360"">","null","","","","","","","",""
"null","","html-keyboard-response","19","679059","0.0-2.0-2.5","3B1NLC6UG0IBDCWGT28BPLDX864PGO","A2H1QUGX0SOUMH","3DFYDSXB2WMWAZWJRSN67LWQ0PPJUT","","","null","","","","","","","",""
"1185.800000011921","","image-keyboard-response","20","680247","0.0-2.0-0.6","3B1NLC6UG0IBDCWGT28BPLDX864PGO","A2H1QUGX0SOUMH","3DFYDSXB2WMWAZWJRSN67LWQ0PPJUT","","img/practice/S3.jpg","72","3","practice","72","true","","","",""
"null","","html-keyboard-response","21","680550","0.0-2.0-1.6","3B1NLC6UG0IBDCWGT28BPLDX864PGO","A2H1QUGX0SOUMH","3DFYDSXB2WMWAZWJRSN67LWQ0PPJUT","","<img src=""img/practice/S3.jpg"" width=""540"" height = ""360"" style=""border:16px solid orange"">","null","","","","","","","",""
"null","","html-keyboard-response","22","680555","0.0-2.0-2.6","3B1NLC6UG0IBDCWGT28BPLDX864PGO","A2H1QUGX0SOUMH","3DFYDSXB2WMWAZWJRSN67LWQ0PPJUT","","","null","","","","","","","",""
"536","","image-keyboard-response","23","681094","0.0-2.0-0.7","3B1NLC6UG0IBDCWGT28BPLDX864PGO","A2H1QUGX0SOUMH","3DFYDSXB2WMWAZWJRSN67LWQ0PPJUT","","img/practice/S2.jpg","74","2","practice","68","false","","","",""
"null","","html-keyboard-response","24","681404","0.0-2.0-1.7","3B1NLC6UG0IBDCWGT28BPLDX864PGO","A2H1QUGX0SOUMH","3DFYDSXB2WMWAZWJRSN67LWQ0PPJUT","","<img src=""img/practice/S2.jpg"" width=""540"" height = ""360"">","null","","","","","","","",""
"null","","html-keyboard-response","25","681406","0.0-2.0-2.7","3B1NLC6UG0IBDCWGT28BPLDX864PGO","A2H1QUGX0SOUMH","3DFYDSXB2WMWAZWJRSN67LWQ0PPJUT","","","null","","","","","","","",""
"1967.1000000238419","","image-keyboard-response","26","683375","0.0-2.0-0.8","3B1NLC6UG0IBDCWGT28BPLDX864PGO","A2H1QUGX0SOUMH","3DFYDSXB2WMWAZWJRSN67LWQ0PPJUT","","img/practice/S4.jpg","74","4","practice","74","true","","","",""
"null","","html-keyboard-response","27","683677","0.0-2.0-1.8","3B1NLC6UG0IBDCWGT28BPLDX864PGO","A2H1QUGX0SOUMH","3DFYDSXB2WMWAZWJRSN67LWQ0PPJUT","","<img src=""img/practice/S4.jpg"" width=""540"" height = ""360"" style=""border:16px solid orange"">","null","","","","","","","",""
"null","","html-keyboard-response","28","683680","0.0-2.0-2.8","3B1NLC6UG0IBDCWGT28BPLDX864PGO","A2H1QUGX0SOUMH","3DFYDSXB2WMWAZWJRSN67LWQ0PPJUT","","","null","","","","","","","",""
"1078","","image-keyboard-response","29","684759","0.0-2.0-0.9","3B1NLC6UG0IBDCWGT28BPLDX864PGO","A2H1QUGX0SOUMH","3DFYDSXB2WMWAZWJRSN67LWQ0PPJUT","","img/practice/S2.jpg","74","2","practice","68","false","","","",""
"null","","html-keyboard-response","30","685061","0.0-2.0-1.9","3B1NLC6UG0IBDCWGT28BPLDX864PGO","A2H1QUGX0SOUMH","3DFYDSXB2WMWAZWJRSN67LWQ0PPJUT","","<img src=""img/practice/S2.jpg"" width=""540"" height = ""360"">","null","","","","","","","",""
"null","","html-keyboard-response","31","685064","0.0-2.0-2.9","3B1NLC6UG0IBDCWGT28BPLDX864PGO","A2H1QUGX0SOUMH","3DFYDSXB2WMWAZWJRSN67LWQ0PPJUT","","","null","","","","","","","",""
"709.1999999880791","","image-keyboard-response","32","685775","0.0-2.0-0.10","3B1NLC6UG0IBDCWGT28BPLDX864PGO","A2H1QUGX0SOUMH","3DFYDSXB2WMWAZWJRSN67LWQ0PPJUT","","img/practice/S3.jpg","72","3","practice","72","true","","","",""
"null","","html-keyboard-response","33","686079","0.0-2.0-1.10","3B1NLC6UG0IBDCWGT28BPLDX864PGO","A2H1QUGX0SOUMH","3DFYDSXB2WMWAZWJRSN67LWQ0PPJUT","","<img src=""img/practice/S3.jpg"" width=""540"" height = ""360"" style=""border:16px solid orange"">","null","","","","","","","",""
"null","","html-keyboard-response","34","686082","0.0-2.0-2.10","3B1NLC6UG0IBDCWGT28BPLDX864PGO","A2H1QUGX0SOUMH","3DFYDSXB2WMWAZWJRSN67LWQ0PPJUT","","","null","","","","","","","",""
"null","","image-keyboard-response","35","688590","0.0-2.0-0.11","3B1NLC6UG0IBDCWGT28BPLDX864PGO","A2H1QUGX0SOUMH","3DFYDSXB2WMWAZWJRSN67LWQ0PPJUT","","img/practice/S1.jpg","null","1","practice","83","false","","","",""
"null","","html-keyboard-response","36","688893","0.0-2.0-1.11","3B1NLC6UG0IBDCWGT28BPLDX864PGO","A2H1QUGX0SOUMH","3DFYDSXB2WMWAZWJRSN67LWQ0PPJUT","","<img src=""img/practice/S1.jpg"" width=""540"" height = ""360"">","null","","","","","","","",""
"null","","html-keyboard-response","37","688898","0.0-2.0-2.11","3B1NLC6UG0IBDCWGT28BPLDX864PGO","A2H1QUGX0SOUMH","3DFYDSXB2WMWAZWJRSN67LWQ0PPJUT","","","null","","","","","","","",""
"817.5","","image-keyboard-response","38","689719","0.0-2.0-0.12","3B1NLC6UG0IBDCWGT28BPLDX864PGO","A2H1QUGX0SOUMH","3DFYDSXB2WMWAZWJRSN67LWQ0PPJUT","","img/practice/S2.jpg","72","2","practice","68","false","","","",""
"null","","html-keyboard-response","39","690020","0.0-2.0-1.12","3B1NLC6UG0IBDCWGT28BPLDX864PGO","A2H1QUGX0SOUMH","3DFYDSXB2WMWAZWJRSN67LWQ0PPJUT","","<img src=""img/practice/S2.jpg"" width=""540"" height = ""360"">","null","","","","","","","",""
"null","","html-keyboard-response","40","690023","0.0-2.0-2.12","3B1NLC6UG0IBDCWGT28BPLDX864PGO","A2H1QUGX0SOUMH","3DFYDSXB2WMWAZWJRSN67LWQ0PPJUT","","","null","","","","","","","",""
"487.7999999523163","","image-keyboard-response","41","690512","0.0-2.0-0.13","3B1NLC6UG0IBDCWGT28BPLDX864PGO","A2H1QUGX0SOUMH","3DFYDSXB2WMWAZWJRSN67LWQ0PPJUT","","img/practice/S4.jpg","74","4","practice","74","true","","","",""
"null","","html-keyboard-response","42","690814","0.0-2.0-1.13","3B1NLC6UG0IBDCWGT28BPLDX864PGO","A2H1QUGX0SOUMH","3DFYDSXB2WMWAZWJRSN67LWQ0PPJUT","","<img src=""img/practice/S4.jpg"" width=""540"" height = ""360"" style=""border:16px solid orange"">","null","","","","","","","",""
"null","","html-keyboard-response","43","690816","0.0-2.0-2.13","3B1NLC6UG0IBDCWGT28BPLDX864PGO","A2H1QUGX0SOUMH","3DFYDSXB2WMWAZWJRSN67LWQ0PPJUT","","","null","","","","","","","",""
"null","","image-keyboard-response","44","693319","0.0-2.0-0.14","3B1NLC6UG0IBDCWGT28BPLDX864PGO","A2H1QUGX0SOUMH","3DFYDSXB2WMWAZWJRSN67LWQ0PPJUT","","img/practice/S3.jpg","null","3","practice","72","false","","","",""
"null","","html-keyboard-response","45","693623","0.0-2.0-1.14","3B1NLC6UG0IBDCWGT28BPLDX864PGO","A2H1QUGX0SOUMH","3DFYDSXB2WMWAZWJRSN67LWQ0PPJUT","","<img src=""img/practice/S3.jpg"" width=""540"" height = ""360"">","null","","","","","","","",""
"null","","html-keyboard-response","46","693629","0.0-2.0-2.14","3B1NLC6UG0IBDCWGT28BPLDX864PGO","A2H1QUGX0SOUMH","3DFYDSXB2WMWAZWJRSN67LWQ0PPJUT","","","null","","","","","","","",""
"967.9000000357628","","image-keyboard-response","47","694600","0.0-2.0-0.15","3B1NLC6UG0IBDCWGT28BPLDX864PGO","A2H1QUGX0SOUMH","3DFYDSXB2WMWAZWJRSN67LWQ0PPJUT","","img/practice/S1.jpg","83","1","practice","83","true","","","",""
"null","","html-keyboard-response","48","694903","0.0-2.0-1.15","3B1NLC6UG0IBDCWGT28BPLDX864PGO","A2H1QUGX0SOUMH","3DFYDSXB2WMWAZWJRSN67LWQ0PPJUT","","<img src=""img/practice/S1.jpg"" width=""540"" height = ""360"" style=""border:16px solid orange"">","null","","","","","","","",""
"null","","html-keyboard-response","49","694906","0.0-2.0-2.15","3B1NLC6UG0IBDCWGT28BPLDX864PGO","A2H1QUGX0SOUMH","3DFYDSXB2WMWAZWJRSN67LWQ0PPJUT","","","null","","","","","","","",""
"1629.699999988079","","image-keyboard-response","50","696539","0.0-2.0-0.16","3B1NLC6UG0IBDCWGT28BPLDX864PGO","A2H1QUGX0SOUMH","3DFYDSXB2WMWAZWJRSN67LWQ0PPJUT","","img/practice/S4.jpg","68","4","practice","74","false","","","",""
"null","","html-keyboard-response","51","696842","0.0-2.0-1.16","3B1NLC6UG0IBDCWGT28BPLDX864PGO","A2H1QUGX0SOUMH","3DFYDSXB2WMWAZWJRSN67LWQ0PPJUT","","<img src=""img/practice/S4.jpg"" width=""540"" height = ""360"">","null","","","","","","","",""
"null","","html-keyboard-response","52","696844","0.0-2.0-2.16","3B1NLC6UG0IBDCWGT28BPLDX864PGO","A2H1QUGX0SOUMH","3DFYDSXB2WMWAZWJRSN67LWQ0PPJUT","","","null","","","","","","","",""
"753.9000000357628","","image-keyboard-response","53","697600","0.0-2.0-0.17","3B1NLC6UG0IBDCWGT28BPLDX864PGO","A2H1QUGX0SOUMH","3DFYDSXB2WMWAZWJRSN67LWQ0PPJUT","","img/practice/S3.jpg","72","3","practice","72","true","","","",""
"null","","html-keyboard-response","54","697903","0.0-2.0-1.17","3B1NLC6UG0IBDCWGT28BPLDX864PGO","A2H1QUGX0SOUMH","3DFYDSXB2WMWAZWJRSN67LWQ0PPJUT","","<img src=""img/practice/S3.jpg"" width=""540"" height = ""360"" style=""border:16px solid orange"">","null","","","","","","","",""
"null","","html-keyboard-response","55","697905","0.0-2.0-2.17","3B1NLC6UG0IBDCWGT28BPLDX864PGO","A2H1QUGX0SOUMH","3DFYDSXB2WMWAZWJRSN67LWQ0PPJUT","","","null","","","","","","","",""
"1811.5999999642372","","image-keyboard-response","56","699720","0.0-2.0-0.18","3B1NLC6UG0IBDCWGT28BPLDX864PGO","A2H1QUGX0SOUMH","3DFYDSXB2WMWAZWJRSN67LWQ0PPJUT","","img/practice/S1.jpg","72","1","practice","83","false","","","",""
"null","","html-keyboard-response","57","700025","0.0-2.0-1.18","3B1NLC6UG0IBDCWGT28BPLDX864PGO","A2H1QUGX0SOUMH","3DFYDSXB2WMWAZWJRSN67LWQ0PPJUT","","<img src=""img/practice/S1.jpg"" width=""540"" height = ""360"">","null","","","","","","","",""
"null","","html-keyboard-response","58","700032","0.0-2.0-2.18","3B1NLC6UG0IBDCWGT28BPLDX864PGO","A2H1QUGX0SOUMH","3DFYDSXB2WMWAZWJRSN67LWQ0PPJUT","","","null","","","","","","","",""
"154.5","","image-keyboard-response","59","700190","0.0-2.0-0.19","3B1NLC6UG0IBDCWGT28BPLDX864PGO","A2H1QUGX0SOUMH","3DFYDSXB2WMWAZWJRSN67LWQ0PPJUT","","img/practice/S2.jpg","68","2","practice","68","true","","","",""
"null","","html-keyboard-response","60","700493","0.0-2.0-1.19","3B1NLC6UG0IBDCWGT28BPLDX864PGO","A2H1QUGX0SOUMH","3DFYDSXB2WMWAZWJRSN67LWQ0PPJUT","","<img src=""img/practice/S2.jpg"" width=""540"" height = ""360"" style=""border:16px solid orange"">","null","","","","","","","",""
"null","","html-keyboard-response","61","700495","0.0-2.0-2.19","3B1NLC6UG0IBDCWGT28BPLDX864PGO","A2H1QUGX0SOUMH","3DFYDSXB2WMWAZWJRSN67LWQ0PPJUT","","","null","","","","","","","",""
"2201.099999964237","","image-keyboard-response","62","702699","0.0-2.0-0.20","3B1NLC6UG0IBDCWGT28BPLDX864PGO","A2H1QUGX0SOUMH","3DFYDSXB2WMWAZWJRSN67LWQ0PPJUT","","img/practice/S2.jpg","68","2","practice","68","true","","","",""
"null","","html-keyboard-response","63","703002","0.0-2.0-1.20","3B1NLC6UG0IBDCWGT28BPLDX864PGO","A2H1QUGX0SOUMH","3DFYDSXB2WMWAZWJRSN67LWQ0PPJUT","","<img src=""img/practice/S2.jpg"" width=""540"" height = ""360"" style=""border:16px solid orange"">","null","","","","","","","",""
"null","","html-keyboard-response","64","703004","0.0-2.0-2.20","3B1NLC6UG0IBDCWGT28BPLDX864PGO","A2H1QUGX0SOUMH","3DFYDSXB2WMWAZWJRSN67LWQ0PPJUT","","","null","","","","","","","",""
"906.1999999880791","","image-keyboard-response","65","703914","0.0-2.0-0.21","3B1NLC6UG0IBDCWGT28BPLDX864PGO","A2H1QUGX0SOUMH","3DFYDSXB2WMWAZWJRSN67LWQ0PPJUT","","img/practice/S3.jpg","74","3","practice","72","false","","","",""
"null","","html-keyboard-response","66","704216","0.0-2.0-1.21","3B1NLC6UG0IBDCWGT28BPLDX864PGO","A2H1QUGX0SOUMH","3DFYDSXB2WMWAZWJRSN67LWQ0PPJUT","","<img src=""img/practice/S3.jpg"" width=""540"" height = ""360"">","null","","","","","","","",""
"null","","html-keyboard-response","67","704219","0.0-2.0-2.21","3B1NLC6UG0IBDCWGT28BPLDX864PGO","A2H1QUGX0SOUMH","3DFYDSXB2WMWAZWJRSN67LWQ0PPJUT","","","null","","","","","","","",""
"1327.0999999642372","","image-keyboard-response","68","705548","0.0-2.0-0.22","3B1NLC6UG0IBDCWGT28BPLDX864PGO","A2H1QUGX0SOUMH","3DFYDSXB2WMWAZWJRSN67LWQ0PPJUT","","img/practice/S1.jpg","83","1","practice","83","true","","","",""
"null","","html-keyboard-response","69","705851","0.0-2.0-1.22","3B1NLC6UG0IBDCWGT28BPLDX864PGO","A2H1QUGX0SOUMH","3DFYDSXB2WMWAZWJRSN67LWQ0PPJUT","","<img src=""img/practice/S1.jpg"" width=""540"" height = ""360"" style=""border:16px solid orange"">","null","","","","","","","",""
"null","","html-keyboard-response","70","705860","0.0-2.0-2.22","3B1NLC6UG0IBDCWGT28BPLDX864PGO","A2H1QUGX0SOUMH","3DFYDSXB2WMWAZWJRSN67LWQ0PPJUT","","","null","","","","","","","",""
"922.5","","image-keyboard-response","71","706787","0.0-2.0-0.23","3B1NLC6UG0IBDCWGT28BPLDX864PGO","A2H1QUGX0SOUMH","3DFYDSXB2WMWAZWJRSN67LWQ0PPJUT","","img/practice/S4.jpg","74","4","practice","74","true","","","",""
"null","","html-keyboard-response","72","707090","0.0-2.0-1.23","3B1NLC6UG0IBDCWGT28BPLDX864PGO","A2H1QUGX0SOUMH","3DFYDSXB2WMWAZWJRSN67LWQ0PPJUT","","<img src=""img/practice/S4.jpg"" width=""540"" height = ""360"" style=""border:16px solid orange"">","null","","","","","","","",""
"null","","html-keyboard-response","73","707092","0.0-2.0-2.23","3B1NLC6UG0IBDCWGT28BPLDX864PGO","A2H1QUGX0SOUMH","3DFYDSXB2WMWAZWJRSN67LWQ0PPJUT","","","null","","","","","","","",""
"9580.699999988079","","instructions","74","716674","0.0-3.0","3B1NLC6UG0IBDCWGT28BPLDX864PGO","A2H1QUGX0SOUMH","3DFYDSXB2WMWAZWJRSN67LWQ0PPJUT","[{""page_index"":0,""viewing_time"":9580.600000023842}]","","","","","","","","","",""
"20179.399999976158","","instructions","75","736854","0.0-4.0","3B1NLC6UG0IBDCWGT28BPLDX864PGO","A2H1QUGX0SOUMH","3DFYDSXB2WMWAZWJRSN67LWQ0PPJUT","[{""page_index"":0,""viewing_time"":20179.100000023842}]","","","","","","","","","",""
"11339.399999976158","","instructions","76","748194","0.0-5.0","3B1NLC6UG0IBDCWGT28BPLDX864PGO","A2H1QUGX0SOUMH","3DFYDSXB2WMWAZWJRSN67LWQ0PPJUT","[{""page_index"":0,""viewing_time"":11339.100000023842}]","","","","","","","","","",""
"1033.3999999761581","","image-keyboard-response","77","749229","0.0-6.0","3B1NLC6UG0IBDCWGT28BPLDX864PGO","A2H1QUGX0SOUMH","3DFYDSXB2WMWAZWJRSN67LWQ0PPJUT","","img/set1/S4.jpg","68","4","random","74","false","random,structured_incentive,structured_normal","2,3,1,2","",""
"null","","html-keyboard-response","78","749584","0.0-7.0","3B1NLC6UG0IBDCWGT28BPLDX864PGO","A2H1QUGX0SOUMH","3DFYDSXB2WMWAZWJRSN67LWQ0PPJUT","","<img src=""img/set1/S4.jpg"" width=""540"" height = ""360"">","null","","","","","","","",""
"null","","html-keyboard-response","79","749587","0.0-8.0","3B1NLC6UG0IBDCWGT28BPLDX864PGO","A2H1QUGX0SOUMH","3DFYDSXB2WMWAZWJRSN67LWQ0PPJUT","","","null","","","","","","","",""
"944.1000000238419","","image-keyboard-response","80","750532","0.0-9.0","3B1NLC6UG0IBDCWGT28BPLDX864PGO","A2H1QUGX0SOUMH","3DFYDSXB2WMWAZWJRSN67LWQ0PPJUT","","img/set1/S3.jpg","74","3","random","72","false","random,structured_incentive,structured_normal","2,3,1,2","",""
"null","","html-keyboard-response","81","750884","0.0-10.0","3B1NLC6UG0IBDCWGT28BPLDX864PGO","A2H1QUGX0SOUMH","3DFYDSXB2WMWAZWJRSN67LWQ0PPJUT","","<img src=""img/set1/S3.jpg"" width=""540"" height = ""360"">","null","","","","","","","",""
"null","","html-keyboard-response","82","750887","0.0-11.0","3B1NLC6UG0IBDCWGT28BPLDX864PGO","A2H1QUGX0SOUMH","3DFYDSXB2WMWAZWJRSN67LWQ0PPJUT","","","null","","","","","","","",""
"153.5","","image-keyboard-response","83","751043","0.0-12.0","3B1NLC6UG0IBDCWGT28BPLDX864PGO","A2H1QUGX0SOUMH","3DFYDSXB2WMWAZWJRSN67LWQ0PPJUT","","img/set1/S1.jpg","83","1","random","83","true","random,structured_incentive,structured_normal","2,3,1,2","",""
"null","","html-keyboard-response","84","751396","0.0-13.0","3B1NLC6UG0IBDCWGT28BPLDX864PGO","A2H1QUGX0SOUMH","3DFYDSXB2WMWAZWJRSN67LWQ0PPJUT","","<img src=""img/set1/S1.jpg"" width=""540"" height = ""360"" style=""border:16px solid orange"">","null","","","","","","","",""
"null","","html-keyboard-response","85","751400","0.0-14.0","3B1NLC6UG0IBDCWGT28BPLDX864PGO","A2H1QUGX0SOUMH","3DFYDSXB2WMWAZWJRSN67LWQ0PPJUT","","","null","","","","","","","",""
"1125.699999988079","","image-keyboard-response","86","752528","0.0-15.0","3B1NLC6UG0IBDCWGT28BPLDX864PGO","A2H1QUGX0SOUMH","3DFYDSXB2WMWAZWJRSN67LWQ0PPJUT","","img/set1/S1.jpg","72","1","random","83","false","random,structured_incentive,structured_normal","2,3,1,2","",""
"null","","html-keyboard-response","87","752882","0.0-16.0","3B1NLC6UG0IBDCWGT28BPLDX864PGO","A2H1QUGX0SOUMH","3DFYDSXB2WMWAZWJRSN67LWQ0PPJUT","","<img src=""img/set1/S1.jpg"" width=""540"" height = ""360"">","null","","","","","","","",""
"null","","html-keyboard-response","88","752885","0.0-17.0","3B1NLC6UG0IBDCWGT28BPLDX864PGO","A2H1QUGX0SOUMH","3DFYDSXB2WMWAZWJRSN67LWQ0PPJUT","","","null","","","","","","","",""
"20.600000023841858","","image-keyboard-response","89","752909","0.0-18.0","3B1NLC6UG0IBDCWGT28BPLDX864PGO","A2H1QUGX0SOUMH","3DFYDSXB2WMWAZWJRSN67LWQ0PPJUT","","img/set1/S1.jpg","83","1","random","83","true","random,structured_incentive,structured_normal","2,3,1,2","",""
"null","","html-keyboard-response","90","753263","0.0-19.0","3B1NLC6UG0IBDCWGT28BPLDX864PGO","A2H1QUGX0SOUMH","3DFYDSXB2WMWAZWJRSN67LWQ0PPJUT","","<img src=""img/set1/S1.jpg"" width=""540"" height = ""360"" style=""border:16px solid orange"">","null","","","","","","","",""
"null","","html-keyboard-response","91","753268","0.0-20.0","3B1NLC6UG0IBDCWGT28BPLDX864PGO","A2H1QUGX0SOUMH","3DFYDSXB2WMWAZWJRSN67LWQ0PPJUT","","","null","","","","","","","",""
"903.3999999761581","","image-keyboard-response","92","754175","0.0-21.0","3B1NLC6UG0IBDCWGT28BPLDX864PGO","A2H1QUGX0SOUMH","3DFYDSXB2WMWAZWJRSN67LWQ0PPJUT","","img/set1/S4.jpg","83","4","random","74","false","random,structured_incentive,structured_normal","2,3,1,2","",""
"null","","html-keyboard-response","93","754529","0.0-22.0","3B1NLC6UG0IBDCWGT28BPLDX864PGO","A2H1QUGX0SOUMH","3DFYDSXB2WMWAZWJRSN67LWQ0PPJUT","","<img src=""img/set1/S4.jpg"" width=""540"" height = ""360"">","null","","","","","","","",""
"null","","html-keyboard-response","94","754532","0.0-23.0","3B1NLC6UG0IBDCWGT28BPLDX864PGO","A2H1QUGX0SOUMH","3DFYDSXB2WMWAZWJRSN67LWQ0PPJUT","","","null","","","","","","","",""
"80.89999997615814","","image-keyboard-response","95","754615","0.0-24.0","3B1NLC6UG0IBDCWGT28BPLDX864PGO","A2H1QUGX0SOUMH","3DFYDSXB2WMWAZWJRSN67LWQ0PPJUT","","img/set1/S4.jpg","83","4","random","74","false","random,structured_incentive,structured_normal","2,3,1,2","",""
"null","","html-keyboard-response","96","754969","0.0-25.0","3B1NLC6UG0IBDCWGT28BPLDX864PGO","A2H1QUGX0SOUMH","3DFYDSXB2WMWAZWJRSN67LWQ0PPJUT","","<img src=""img/set1/S4.jpg"" width=""540"" height = ""360"">","null","","","","","","","",""
"null","","html-keyboard-response","97","754972","0.0-26.0","3B1NLC6UG0IBDCWGT28BPLDX864PGO","A2H1QUGX0SOUMH","3DFYDSXB2WMWAZWJRSN67LWQ0PPJUT","","","null","","","","","","","",""
"49.10000002384186","","image-keyboard-response","98","755023","0.0-27.0","3B1NLC6UG0IBDCWGT28BPLDX864PGO","A2H1QUGX0SOUMH","3DFYDSXB2WMWAZWJRSN67LWQ0PPJUT","","img/set1/S4.jpg","83","4","random","74","false","random,structured_incentive,structured_normal","2,3,1,2","",""
"null","","html-keyboard-response","99","755377","0.0-28.0","3B1NLC6UG0IBDCWGT28BPLDX864PGO","A2H1QUGX0SOUMH","3DFYDSXB2WMWAZWJRSN67LWQ0PPJUT","","<img src=""img/set1/S4.jpg"" width=""540"" height = ""360"">","null","","","","","","","",""
"null","","html-keyboard-response","100","755379","0.0-29.0","3B1NLC6UG0IBDCWGT28BPLDX864PGO","A2H1QUGX0SOUMH","3DFYDSXB2WMWAZWJRSN67LWQ0PPJUT","","","null","","","","","","","",""
"97.19999998807907","","image-keyboard-response","101","755478","0.0-30.0","3B1NLC6UG0IBDCWGT28BPLDX864PGO","A2H1QUGX0SOUMH","3DFYDSXB2WMWAZWJRSN67LWQ0PPJUT","","img/set1/S4.jpg","68","4","random","74","false","random,structured_incentive,structured_normal","2,3,1,2","",""
"null","","html-keyboard-response","102","755831","0.0-31.0","3B1NLC6UG0IBDCWGT28BPLDX864PGO","A2H1QUGX0SOUMH","3DFYDSXB2WMWAZWJRSN67LWQ0PPJUT","","<img src=""img/set1/S4.jpg"" width=""540"" height = ""360"">","null","","","","","","","",""
"null","","html-keyboard-response","103","755833","0.0-32.0","3B1NLC6UG0IBDCWGT28BPLDX864PGO","A2H1QUGX0SOUMH","3DFYDSXB2WMWAZWJRSN67LWQ0PPJUT","","","null","","","","","","","",""
"86.89999997615814","","image-keyboard-response","104","755922","0.0-33.0","3B1NLC6UG0IBDCWGT28BPLDX864PGO","A2H1QUGX0SOUMH","3DFYDSXB2WMWAZWJRSN67LWQ0PPJUT","","img/set1/S2.jpg","74","2","random","68","false","random,structured_incentive,structured_normal","2,3,1,2","",""
"null","","html-keyboard-response","105","756276","0.0-34.0","3B1NLC6UG0IBDCWGT28BPLDX864PGO","A2H1QUGX0SOUMH","3DFYDSXB2WMWAZWJRSN67LWQ0PPJUT","","<img src=""img/set1/S2.jpg"" width=""540"" height = ""360"">","null","","","","","","","",""
"null","","html-keyboard-response","106","756281","0.0-35.0","3B1NLC6UG0IBDCWGT28BPLDX864PGO","A2H1QUGX0SOUMH","3DFYDSXB2WMWAZWJRSN67LWQ0PPJUT","","","null","","","","","","","",""
"368.5","","image-keyboard-response","107","756654","0.0-36.0","3B1NLC6UG0IBDCWGT28BPLDX864PGO","A2H1QUGX0SOUMH","3DFYDSXB2WMWAZWJRSN67LWQ0PPJUT","","img/set1/S3.jpg","72","3","random","72","true","random,structured_incentive,structured_normal","2,3,1,2","",""
"null","","html-keyboard-response","108","757006","0.0-37.0","3B1NLC6UG0IBDCWGT28BPLDX864PGO","A2H1QUGX0SOUMH","3DFYDSXB2WMWAZWJRSN67LWQ0PPJUT","","<img src=""img/set1/S3.jpg"" width=""540"" height = ""360"" style=""border:16px solid orange"">","null","","","","","","","",""
"null","","html-keyboard-response","109","757009","0.0-38.0","3B1NLC6UG0IBDCWGT28BPLDX864PGO","A2H1QUGX0SOUMH","3DFYDSXB2WMWAZWJRSN67LWQ0PPJUT","","","null","","","","","","","",""
"700.1999999880791","","image-keyboard-response","110","757712","0.0-39.0","3B1NLC6UG0IBDCWGT28BPLDX864PGO","A2H1QUGX0SOUMH","3DFYDSXB2WMWAZWJRSN67LWQ0PPJUT","","img/set1/S4.jpg","74","4","random","74","true","random,structured_incentive,structured_normal","2,3,1,2","",""
"null","","html-keyboard-response","111","758068","0.0-40.0","3B1NLC6UG0IBDCWGT28BPLDX864PGO","A2H1QUGX0SOUMH","3DFYDSXB2WMWAZWJRSN67LWQ0PPJUT","","<img src=""img/set1/S4.jpg"" width=""540"" height = ""360"" style=""border:16px solid orange"">","null","","","","","","","",""
"null","","html-keyboard-response","112","758077","0.0-41.0","3B1NLC6UG0IBDCWGT28BPLDX864PGO","A2H1QUGX0SOUMH","3DFYDSXB2WMWAZWJRSN67LWQ0PPJUT","","","null","","","","","","","",""
"622.4000000357628","","image-keyboard-response","113","758704","0.0-42.0","3B1NLC6UG0IBDCWGT28BPLDX864PGO","A2H1QUGX0SOUMH","3DFYDSXB2WMWAZWJRSN67LWQ0PPJUT","","img/set1/S3.jpg","72","3","random","72","true","random,structured_incentive,structured_normal","2,3,1,2","",""
"null","","html-keyboard-response","114","759058","0.0-43.0","3B1NLC6UG0IBDCWGT28BPLDX864PGO","A2H1QUGX0SOUMH","3DFYDSXB2WMWAZWJRSN67LWQ0PPJUT","","<img src=""img/set1/S3.jpg"" width=""540"" height = ""360"" style=""border:16px solid orange"">","null","","","","","","","",""
"null","","html-keyboard-response","115","759060","0.0-44.0","3B1NLC6UG0IBDCWGT28BPLDX864PGO","A2H1QUGX0SOUMH","3DFYDSXB2WMWAZWJRSN67LWQ0PPJUT","","","null","","","","","","","",""
"1330.3999999761581","","image-keyboard-response","116","760394","0.0-45.0","3B1NLC6UG0IBDCWGT28BPLDX864PGO","A2H1QUGX0SOUMH","3DFYDSXB2WMWAZWJRSN67LWQ0PPJUT","","img/set1/S3.jpg","72","3","random","72","true","random,structured_incentive,structured_normal","2,3,1,2","",""
"null","","html-keyboard-response","117","760746","0.0-46.0","3B1NLC6UG0IBDCWGT28BPLDX864PGO","A2H1QUGX0SOUMH","3DFYDSXB2WMWAZWJRSN67LWQ0PPJUT","","<img src=""img/set1/S3.jpg"" width=""540"" height = ""360"" style=""border:16px solid orange"">","null","","","","","","","",""
"null","","html-keyboard-response","118","760750","0.0-47.0","3B1NLC6UG0IBDCWGT28BPLDX864PGO","A2H1QUGX0SOUMH","3DFYDSXB2WMWAZWJRSN67LWQ0PPJUT","","","null","","","","","","","",""
"975.8000000119209","","image-keyboard-response","119","761728","0.0-48.0","3B1NLC6UG0IBDCWGT28BPLDX864PGO","A2H1QUGX0SOUMH","3DFYDSXB2WMWAZWJRSN67LWQ0PPJUT","","img/set1/S1.jpg","68","1","random","83","false","random,structured_incentive,structured_normal","2,3,1,2","",""
"null","","html-keyboard-response","120","762083","0.0-49.0","3B1NLC6UG0IBDCWGT28BPLDX864PGO","A2H1QUGX0SOUMH","3DFYDSXB2WMWAZWJRSN67LWQ0PPJUT","","<img src=""img/set1/S1.jpg"" width=""540"" height = ""360"">","null","","","","","","","",""
"null","","html-keyboard-response","121","762088","0.0-50.0","3B1NLC6UG0IBDCWGT28BPLDX864PGO","A2H1QUGX0SOUMH","3DFYDSXB2WMWAZWJRSN67LWQ0PPJUT","","","null","","","","","","","",""
"724.8999999761581","","image-keyboard-response","122","762815","0.0-51.0","3B1NLC6UG0IBDCWGT28BPLDX864PGO","A2H1QUGX0SOUMH","3DFYDSXB2WMWAZWJRSN67LWQ0PPJUT","","img/set1/S2.jpg","72","2","random","68","false","random,structured_incentive,structured_normal","2,3,1,2","",""
"null","","html-keyboard-response","123","763168","0.0-52.0","3B1NLC6UG0IBDCWGT28BPLDX864PGO","A2H1QUGX0SOUMH","3DFYDSXB2WMWAZWJRSN67LWQ0PPJUT","","<img src=""img/set1/S2.jpg"" width=""540"" height = ""360"">","null","","","","","","","",""
"null","","html-keyboard-response","124","763170","0.0-53.0","3B1NLC6UG0IBDCWGT28BPLDX864PGO","A2H1QUGX0SOUMH","3DFYDSXB2WMWAZWJRSN67LWQ0PPJUT","","","null","","","","","","","",""
"108.5","","image-keyboard-response","125","763281","0.0-54.0","3B1NLC6UG0IBDCWGT28BPLDX864PGO","A2H1QUGX0SOUMH","3DFYDSXB2WMWAZWJRSN67LWQ0PPJUT","","img/set1/S3.jpg","83","3","random","72","false","random,structured_incentive,structured_normal","2,3,1,2","",""
"null","","html-keyboard-response","126","763634","0.0-55.0","3B1NLC6UG0IBDCWGT28BPLDX864PGO","A2H1QUGX0SOUMH","3DFYDSXB2WMWAZWJRSN67LWQ0PPJUT","","<img src=""img/set1/S3.jpg"" width=""540"" height = ""360"">","null","","","","","","","",""
"null","","html-keyboard-response","127","763636","0.0-56.0","3B1NLC6UG0IBDCWGT28BPLDX864PGO","A2H1QUGX0SOUMH","3DFYDSXB2WMWAZWJRSN67LWQ0PPJUT","","","null","","","","","","","",""
"107.60000002384186","","image-keyboard-response","128","763746","0.0-57.0","3B1NLC6UG0IBDCWGT28BPLDX864PGO","A2H1QUGX0SOUMH","3DFYDSXB2WMWAZWJRSN67LWQ0PPJUT","","img/set1/S2.jpg","74","2","random","68","false","random,structured_incentive,structured_normal","2,3,1,2","",""
"null","","html-keyboard-response","129","764099","0.0-58.0","3B1NLC6UG0IBDCWGT28BPLDX864PGO","A2H1QUGX0SOUMH","3DFYDSXB2WMWAZWJRSN67LWQ0PPJUT","","<img src=""img/set1/S2.jpg"" width=""540"" height = ""360"">","null","","","","","","","",""
"null","","html-keyboard-response","130","764102","0.0-59.0","3B1NLC6UG0IBDCWGT28BPLDX864PGO","A2H1QUGX0SOUMH","3DFYDSXB2WMWAZWJRSN67LWQ0PPJUT","","","null","","","","","","","",""
"445.7999999523163","","image-keyboard-response","131","764551","0.0-60.0","3B1NLC6UG0IBDCWGT28BPLDX864PGO","A2H1QUGX0SOUMH","3DFYDSXB2WMWAZWJRSN67LWQ0PPJUT","","img/set1/S3.jpg","74","3","random","72","false","random,structured_incentive,structured_normal","2,3,1,2","",""
"null","","html-keyboard-response","132","764906","0.0-61.0","3B1NLC6UG0IBDCWGT28BPLDX864PGO","A2H1QUGX0SOUMH","3DFYDSXB2WMWAZWJRSN67LWQ0PPJUT","","<img src=""img/set1/S3.jpg"" width=""540"" height = ""360"">","null","","","","","","","",""
"null","","html-keyboard-response","133","764908","0.0-62.0","3B1NLC6UG0IBDCWGT28BPLDX864PGO","A2H1QUGX0SOUMH","3DFYDSXB2WMWAZWJRSN67LWQ0PPJUT","","","null","","","","","","","",""
"147.5","","image-keyboard-response","134","765059","0.0-63.0","3B1NLC6UG0IBDCWGT28BPLDX864PGO","A2H1QUGX0SOUMH","3DFYDSXB2WMWAZWJRSN67LWQ0PPJUT","","img/set1/S4.jpg","72","4","random","74","false","random,structured_incentive,structured_normal","2,3,1,2","",""
"null","","html-keyboard-response","135","765411","0.0-64.0","3B1NLC6UG0IBDCWGT28BPLDX864PGO","A2H1QUGX0SOUMH","3DFYDSXB2WMWAZWJRSN67LWQ0PPJUT","","<img src=""img/set1/S4.jpg"" width=""540"" height = ""360"">","null","","","","","","","",""
"null","","html-keyboard-response","136","765414","0.0-65.0","3B1NLC6UG0IBDCWGT28BPLDX864PGO","A2H1QUGX0SOUMH","3DFYDSXB2WMWAZWJRSN67LWQ0PPJUT","","","null","","","","","","","",""
"99.39999997615814","","image-keyboard-response","137","765516","0.0-66.0","3B1NLC6UG0IBDCWGT28BPLDX864PGO","A2H1QUGX0SOUMH","3DFYDSXB2WMWAZWJRSN67LWQ0PPJUT","","img/set1/S1.jpg","68","1","random","83","false","random,structured_incentive,structured_normal","2,3,1,2","",""
"null","","html-keyboard-response","138","765869","0.0-67.0","3B1NLC6UG0IBDCWGT28BPLDX864PGO","A2H1QUGX0SOUMH","3DFYDSXB2WMWAZWJRSN67LWQ0PPJUT","","<img src=""img/set1/S1.jpg"" width=""540"" height = ""360"">","null","","","","","","","",""
"null","","html-keyboard-response","139","765873","0.0-68.0","3B1NLC6UG0IBDCWGT28BPLDX864PGO","A2H1QUGX0SOUMH","3DFYDSXB2WMWAZWJRSN67LWQ0PPJUT","","","null","","","","","","","",""
"1064.5","","image-keyboard-response","140","766942","0.0-69.0","3B1NLC6UG0IBDCWGT28BPLDX864PGO","A2H1QUGX0SOUMH","3DFYDSXB2WMWAZWJRSN67LWQ0PPJUT","","img/set1/S4.jpg","83","4","random","74","false","random,structured_incentive,structured_normal","2,3,1,2","",""
"null","","html-keyboard-response","141","767296","0.0-70.0","3B1NLC6UG0IBDCWGT28BPLDX864PGO","A2H1QUGX0SOUMH","3DFYDSXB2WMWAZWJRSN67LWQ0PPJUT","","<img src=""img/set1/S4.jpg"" width=""540"" height = ""360"">","null","","","","","","","",""
"null","","html-keyboard-response","142","767299","0.0-71.0","3B1NLC6UG0IBDCWGT28BPLDX864PGO","A2H1QUGX0SOUMH","3DFYDSXB2WMWAZWJRSN67LWQ0PPJUT","","","null","","","","","","","",""
"703.9000000357628","","image-keyboard-response","143","768006","0.0-72.0","3B1NLC6UG0IBDCWGT28BPLDX864PGO","A2H1QUGX0SOUMH","3DFYDSXB2WMWAZWJRSN67LWQ0PPJUT","","img/set1/S4.jpg","83","4","random","74","false","random,structured_incentive,structured_normal","2,3,1,2","",""
"null","","html-keyboard-response","144","768360","0.0-73.0","3B1NLC6UG0IBDCWGT28BPLDX864PGO","A2H1QUGX0SOUMH","3DFYDSXB2WMWAZWJRSN67LWQ0PPJUT","","<img src=""img/set1/S4.jpg"" width=""540"" height = ""360"">","null","","","","","","","",""
"null","","html-keyboard-response","145","768362","0.0-74.0","3B1NLC6UG0IBDCWGT28BPLDX864PGO","A2H1QUGX0SOUMH","3DFYDSXB2WMWAZWJRSN67LWQ0PPJUT","","","null","","","","","","","",""
"null","","image-keyboard-response","146","770864","0.0-75.0","3B1NLC6UG0IBDCWGT28BPLDX864PGO","A2H1QUGX0SOUMH","3DFYDSXB2WMWAZWJRSN67LWQ0PPJUT","","img/set1/S2.jpg","null","2","random","68","false","random,structured_incentive,structured_normal","2,3,1,2","",""
"null","","html-keyboard-response","147","771219","0.0-76.0","3B1NLC6UG0IBDCWGT28BPLDX864PGO","A2H1QUGX0SOUMH","3DFYDSXB2WMWAZWJRSN67LWQ0PPJUT","","<img src=""img/set1/S2.jpg"" width=""540"" height = ""360"">","null","","","","","","","",""
"null","","html-keyboard-response","148","771226","0.0-77.0","3B1NLC6UG0IBDCWGT28BPLDX864PGO","A2H1QUGX0SOUMH","3DFYDSXB2WMWAZWJRSN67LWQ0PPJUT","","","null","","","","","","","",""
"null","","image-keyboard-response","149","773728","0.0-78.0","3B1NLC6UG0IBDCWGT28BPLDX864PGO","A2H1QUGX0SOUMH","3DFYDSXB2WMWAZWJRSN67LWQ0PPJUT","","img/set1/S2.jpg","null","2","random","68","false","random,structured_incentive,structured_normal","2,3,1,2","",""
"null","","html-keyboard-response","150","774082","0.0-79.0","3B1NLC6UG0IBDCWGT28BPLDX864PGO","A2H1QUGX0SOUMH","3DFYDSXB2WMWAZWJRSN67LWQ0PPJUT","","<img src=""img/set1/S2.jpg"" width=""540"" height = ""360"">","null","","","","","","","",""
"null","","html-keyboard-response","151","774088","0.0-80.0","3B1NLC6UG0IBDCWGT28BPLDX864PGO","A2H1QUGX0SOUMH","3DFYDSXB2WMWAZWJRSN67LWQ0PPJUT","","","null","","","","","","","",""
"1255.2000000476837","","image-keyboard-response","152","775346","0.0-81.0","3B1NLC6UG0IBDCWGT28BPLDX864PGO","A2H1QUGX0SOUMH","3DFYDSXB2WMWAZWJRSN67LWQ0PPJUT","","img/set1/S4.jpg","72","4","random","74","false","random,structured_incentive,structured_normal","2,3,1,2","",""
"null","","html-keyboard-response","153","775700","0.0-82.0","3B1NLC6UG0IBDCWGT28BPLDX864PGO","A2H1QUGX0SOUMH","3DFYDSXB2WMWAZWJRSN67LWQ0PPJUT","","<img src=""img/set1/S4.jpg"" width=""540"" height = ""360"">","null","","","","","","","",""
"null","","html-keyboard-response","154","775702","0.0-83.0","3B1NLC6UG0IBDCWGT28BPLDX864PGO","A2H1QUGX0SOUMH","3DFYDSXB2WMWAZWJRSN67LWQ0PPJUT","","","null","","","","","","","",""
"332.5","","image-keyboard-response","155","776037","0.0-84.0","3B1NLC6UG0IBDCWGT28BPLDX864PGO","A2H1QUGX0SOUMH","3DFYDSXB2WMWAZWJRSN67LWQ0PPJUT","","img/set1/S2.jpg","68","2","random","68","true","random,structured_incentive,structured_normal","2,3,1,2","",""
"null","","html-keyboard-response","156","776389","0.0-85.0","3B1NLC6UG0IBDCWGT28BPLDX864PGO","A2H1QUGX0SOUMH","3DFYDSXB2WMWAZWJRSN67LWQ0PPJUT","","<img src=""img/set1/S2.jpg"" width=""540"" height = ""360"" style=""border:16px solid orange"">","null","","","","","","","",""
"null","","html-keyboard-response","157","776392","0.0-86.0","3B1NLC6UG0IBDCWGT28BPLDX864PGO","A2H1QUGX0SOUMH","3DFYDSXB2WMWAZWJRSN67LWQ0PPJUT","","","null","","","","","","","",""
"1269.4000000357628","","image-keyboard-response","158","777662","0.0-87.0","3B1NLC6UG0IBDCWGT28BPLDX864PGO","A2H1QUGX0SOUMH","3DFYDSXB2WMWAZWJRSN67LWQ0PPJUT","","img/set1/S1.jpg","74","1","random","83","false","random,structured_incentive,structured_normal","2,3,1,2","",""
"null","","html-keyboard-response","159","778014","0.0-88.0","3B1NLC6UG0IBDCWGT28BPLDX864PGO","A2H1QUGX0SOUMH","3DFYDSXB2WMWAZWJRSN67LWQ0PPJUT","","<img src=""img/set1/S1.jpg"" width=""540"" height = ""360"">","null","","","","","","","",""
"null","","html-keyboard-response","160","778018","0.0-89.0","3B1NLC6UG0IBDCWGT28BPLDX864PGO","A2H1QUGX0SOUMH","3DFYDSXB2WMWAZWJRSN67LWQ0PPJUT","","","null","","","","","","","",""
"591.6999999880791","","image-keyboard-response","161","778612","0.0-90.0","3B1NLC6UG0IBDCWGT28BPLDX864PGO","A2H1QUGX0SOUMH","3DFYDSXB2WMWAZWJRSN67LWQ0PPJUT","","img/set1/S3.jpg","68","3","random","72","false","random,structured_incentive,structured_normal","2,3,1,2","",""
"null","","html-keyboard-response","162","778965","0.0-91.0","3B1NLC6UG0IBDCWGT28BPLDX864PGO","A2H1QUGX0SOUMH","3DFYDSXB2WMWAZWJRSN67LWQ0PPJUT","","<img src=""img/set1/S3.jpg"" width=""540"" height = ""360"">","null","","","","","","","",""
"null","","html-keyboard-response","163","778968","0.0-92.0","3B1NLC6UG0IBDCWGT28BPLDX864PGO","A2H1QUGX0SOUMH","3DFYDSXB2WMWAZWJRSN67LWQ0PPJUT","","","null","","","","","","","",""
"569","","image-keyboard-response","164","779538","0.0-93.0","3B1NLC6UG0IBDCWGT28BPLDX864PGO","A2H1QUGX0SOUMH","3DFYDSXB2WMWAZWJRSN67LWQ0PPJUT","","img/set1/S3.jpg","74","3","random","72","false","random,structured_incentive,structured_normal","2,3,1,2","",""
"null","","html-keyboard-response","165","779891","0.0-94.0","3B1NLC6UG0IBDCWGT28BPLDX864PGO","A2H1QUGX0SOUMH","3DFYDSXB2WMWAZWJRSN67LWQ0PPJUT","","<img src=""img/set1/S3.jpg"" width=""540"" height = ""360"">","null","","","","","","","",""
"null","","html-keyboard-response","166","779894","0.0-95.0","3B1NLC6UG0IBDCWGT28BPLDX864PGO","A2H1QUGX0SOUMH","3DFYDSXB2WMWAZWJRSN67LWQ0PPJUT","","","null","","","","","","","",""
"595.3000000119209","","image-keyboard-response","167","780491","0.0-96.0","3B1NLC6UG0IBDCWGT28BPLDX864PGO","A2H1QUGX0SOUMH","3DFYDSXB2WMWAZWJRSN67LWQ0PPJUT","","img/set1/S1.jpg","72","1","random","83","false","random,structured_incentive,structured_normal","2,3,1,2","",""
"null","","html-keyboard-response","168","780843","0.0-97.0","3B1NLC6UG0IBDCWGT28BPLDX864PGO","A2H1QUGX0SOUMH","3DFYDSXB2WMWAZWJRSN67LWQ0PPJUT","","<img src=""img/set1/S1.jpg"" width=""540"" height = ""360"">","null","","","","","","","",""
"null","","html-keyboard-response","169","780845","0.0-98.0","3B1NLC6UG0IBDCWGT28BPLDX864PGO","A2H1QUGX0SOUMH","3DFYDSXB2WMWAZWJRSN67LWQ0PPJUT","","","null","","","","","","","",""
"null","","image-keyboard-response","170","783349","0.0-99.0","3B1NLC6UG0IBDCWGT28BPLDX864PGO","A2H1QUGX0SOUMH","3DFYDSXB2WMWAZWJRSN67LWQ0PPJUT","","img/set1/S1.jpg","null","1","random","83","false","random,structured_incentive,structured_normal","2,3,1,2","",""
"null","","html-keyboard-response","171","783701","0.0-100.0","3B1NLC6UG0IBDCWGT28BPLDX864PGO","A2H1QUGX0SOUMH","3DFYDSXB2WMWAZWJRSN67LWQ0PPJUT","","<img src=""img/set1/S1.jpg"" width=""540"" height = ""360"">","null","","","","","","","",""
"null","","html-keyboard-response","172","783706","0.0-101.0","3B1NLC6UG0IBDCWGT28BPLDX864PGO","A2H1QUGX0SOUMH","3DFYDSXB2WMWAZWJRSN67LWQ0PPJUT","","","null","","","","","","","",""
"558.9000000357628","","image-keyboard-response","173","784266","0.0-102.0","3B1NLC6UG0IBDCWGT28BPLDX864PGO","A2H1QUGX0SOUMH","3DFYDSXB2WMWAZWJRSN67LWQ0PPJUT","","img/set1/S1.jpg","74","1","random","83","false","random,structured_incentive,structured_normal","2,3,1,2","",""
"null","","html-keyboard-response","174","784619","0.0-103.0","3B1NLC6UG0IBDCWGT28BPLDX864PGO","A2H1QUGX0SOUMH","3DFYDSXB2WMWAZWJRSN67LWQ0PPJUT","","<img src=""img/set1/S1.jpg"" width=""540"" height = ""360"">","null","","","","","","","",""
"null","","html-keyboard-response","175","784622","0.0-104.0","3B1NLC6UG0IBDCWGT28BPLDX864PGO","A2H1QUGX0SOUMH","3DFYDSXB2WMWAZWJRSN67LWQ0PPJUT","","","null","","","","","","","",""
"197.20000004768372","","image-keyboard-response","176","784821","0.0-105.0","3B1NLC6UG0IBDCWGT28BPLDX864PGO","A2H1QUGX0SOUMH","3DFYDSXB2WMWAZWJRSN67LWQ0PPJUT","","img/set1/S2.jpg","83","2","random","68","false","random,structured_incentive,structured_normal","2,3,1,2","",""
"null","","html-keyboard-response","177","785175","0.0-106.0","3B1NLC6UG0IBDCWGT28BPLDX864PGO","A2H1QUGX0SOUMH","3DFYDSXB2WMWAZWJRSN67LWQ0PPJUT","","<img src=""img/set1/S2.jpg"" width=""540"" height = ""360"">","null","","","","","","","",""
"null","","html-keyboard-response","178","785181","0.0-107.0","3B1NLC6UG0IBDCWGT28BPLDX864PGO","A2H1QUGX0SOUMH","3DFYDSXB2WMWAZWJRSN67LWQ0PPJUT","","","null","","","","","","","",""
"703.8000000119209","","image-keyboard-response","179","785887","0.0-108.0","3B1NLC6UG0IBDCWGT28BPLDX864PGO","A2H1QUGX0SOUMH","3DFYDSXB2WMWAZWJRSN67LWQ0PPJUT","","img/set1/S3.jpg","68","3","random","72","false","random,structured_incentive,structured_normal","2,3,1,2","",""
"null","","html-keyboard-response","180","786242","0.0-109.0","3B1NLC6UG0IBDCWGT28BPLDX864PGO","A2H1QUGX0SOUMH","3DFYDSXB2WMWAZWJRSN67LWQ0PPJUT","","<img src=""img/set1/S3.jpg"" width=""540"" height = ""360"">","null","","","","","","","",""
"null","","html-keyboard-response","181","786245","0.0-110.0","3B1NLC6UG0IBDCWGT28BPLDX864PGO","A2H1QUGX0SOUMH","3DFYDSXB2WMWAZWJRSN67LWQ0PPJUT","","","null","","","","","","","",""
"473.69999998807907","","image-keyboard-response","182","786721","0.0-111.0","3B1NLC6UG0IBDCWGT28BPLDX864PGO","A2H1QUGX0SOUMH","3DFYDSXB2WMWAZWJRSN67LWQ0PPJUT","","img/set1/S4.jpg","74","4","random","74","true","random,structured_incentive,structured_normal","2,3,1,2","",""
"null","","html-keyboard-response","183","787074","0.0-112.0","3B1NLC6UG0IBDCWGT28BPLDX864PGO","A2H1QUGX0SOUMH","3DFYDSXB2WMWAZWJRSN67LWQ0PPJUT","","<img src=""img/set1/S4.jpg"" width=""540"" height = ""360"" style=""border:16px solid orange"">","null","","","","","","","",""
"null","","html-keyboard-response","184","787076","0.0-113.0","3B1NLC6UG0IBDCWGT28BPLDX864PGO","A2H1QUGX0SOUMH","3DFYDSXB2WMWAZWJRSN67LWQ0PPJUT","","","null","","","","","","","",""
"676.9000000357628","","image-keyboard-response","185","787756","0.0-114.0","3B1NLC6UG0IBDCWGT28BPLDX864PGO","A2H1QUGX0SOUMH","3DFYDSXB2WMWAZWJRSN67LWQ0PPJUT","","img/set1/S4.jpg","74","4","random","74","true","random,structured_incentive,structured_normal","2,3,1,2","",""
"null","","html-keyboard-response","186","788110","0.0-115.0","3B1NLC6UG0IBDCWGT28BPLDX864PGO","A2H1QUGX0SOUMH","3DFYDSXB2WMWAZWJRSN67LWQ0PPJUT","","<img src=""img/set1/S4.jpg"" width=""540"" height = ""360"" style=""border:16px solid orange"">","null","","","","","","","",""
"null","","html-keyboard-response","187","788112","0.0-116.0","3B1NLC6UG0IBDCWGT28BPLDX864PGO","A2H1QUGX0SOUMH","3DFYDSXB2WMWAZWJRSN67LWQ0PPJUT","","","null","","","","","","","",""
"977.5","","image-keyboard-response","188","789092","0.0-117.0","3B1NLC6UG0IBDCWGT28BPLDX864PGO","A2H1QUGX0SOUMH","3DFYDSXB2WMWAZWJRSN67LWQ0PPJUT","","img/set1/S1.jpg","72","1","random","83","false","random,structured_incentive,structured_normal","2,3,1,2","",""
"null","","html-keyboard-response","189","789447","0.0-118.0","3B1NLC6UG0IBDCWGT28BPLDX864PGO","A2H1QUGX0SOUMH","3DFYDSXB2WMWAZWJRSN67LWQ0PPJUT","","<img src=""img/set1/S1.jpg"" width=""540"" height = ""360"">","null","","","","","","","",""
"null","","html-keyboard-response","190","789450","0.0-119.0","3B1NLC6UG0IBDCWGT28BPLDX864PGO","A2H1QUGX0SOUMH","3DFYDSXB2WMWAZWJRSN67LWQ0PPJUT","","","null","","","","","","","",""
"4.399999976158142","","image-keyboard-response","191","789457","0.0-120.0","3B1NLC6UG0IBDCWGT28BPLDX864PGO","A2H1QUGX0SOUMH","3DFYDSXB2WMWAZWJRSN67LWQ0PPJUT","","img/set1/S4.jpg","68","4","random","74","false","random,structured_incentive,structured_normal","2,3,1,2","",""
"null","","html-keyboard-response","192","789815","0.0-121.0","3B1NLC6UG0IBDCWGT28BPLDX864PGO","A2H1QUGX0SOUMH","3DFYDSXB2WMWAZWJRSN67LWQ0PPJUT","","<img src=""img/set1/S4.jpg"" width=""540"" height = ""360"">","null","","","","","","","",""
"null","","html-keyboard-response","193","789819","0.0-122.0","3B1NLC6UG0IBDCWGT28BPLDX864PGO","A2H1QUGX0SOUMH","3DFYDSXB2WMWAZWJRSN67LWQ0PPJUT","","","null","","","","","","","",""
"468.80000001192093","","image-keyboard-response","194","790290","0.0-123.0","3B1NLC6UG0IBDCWGT28BPLDX864PGO","A2H1QUGX0SOUMH","3DFYDSXB2WMWAZWJRSN67LWQ0PPJUT","","img/set1/S3.jpg","74","3","random","72","false","random,structured_incentive,structured_normal","2,3,1,2","",""
"null","","html-keyboard-response","195","790643","0.0-124.0","3B1NLC6UG0IBDCWGT28BPLDX864PGO","A2H1QUGX0SOUMH","3DFYDSXB2WMWAZWJRSN67LWQ0PPJUT","","<img src=""img/set1/S3.jpg"" width=""540"" height = ""360"">","null","","","","","","","",""
"null","","html-keyboard-response","196","790646","0.0-125.0","3B1NLC6UG0IBDCWGT28BPLDX864PGO","A2H1QUGX0SOUMH","3DFYDSXB2WMWAZWJRSN67LWQ0PPJUT","","","null","","","","","","","",""
"63.80000001192093","","image-keyboard-response","197","790712","0.0-126.0","3B1NLC6UG0IBDCWGT28BPLDX864PGO","A2H1QUGX0SOUMH","3DFYDSXB2WMWAZWJRSN67LWQ0PPJUT","","img/set1/S4.jpg","74","4","random","74","true","random,structured_incentive,structured_normal","2,3,1,2","",""
"null","","html-keyboard-response","198","791065","0.0-127.0","3B1NLC6UG0IBDCWGT28BPLDX864PGO","A2H1QUGX0SOUMH","3DFYDSXB2WMWAZWJRSN67LWQ0PPJUT","","<img src=""img/set1/S4.jpg"" width=""540"" height = ""360"" style=""border:16px solid orange"">","null","","","","","","","",""
"null","","html-keyboard-response","199","791068","0.0-128.0","3B1NLC6UG0IBDCWGT28BPLDX864PGO","A2H1QUGX0SOUMH","3DFYDSXB2WMWAZWJRSN67LWQ0PPJUT","","","null","","","","","","","",""
"764.3999999761581","","image-keyboard-response","200","791835","0.0-129.0","3B1NLC6UG0IBDCWGT28BPLDX864PGO","A2H1QUGX0SOUMH","3DFYDSXB2WMWAZWJRSN67LWQ0PPJUT","","img/set1/S3.jpg","68","3","random","72","false","random,structured_incentive,structured_normal","2,3,1,2","",""
"null","","html-keyboard-response","201","792189","0.0-130.0","3B1NLC6UG0IBDCWGT28BPLDX864PGO","A2H1QUGX0SOUMH","3DFYDSXB2WMWAZWJRSN67LWQ0PPJUT","","<img src=""img/set1/S3.jpg"" width=""540"" height = ""360"">","null","","","","","","","",""
"null","","html-keyboard-response","202","792192","0.0-131.0","3B1NLC6UG0IBDCWGT28BPLDX864PGO","A2H1QUGX0SOUMH","3DFYDSXB2WMWAZWJRSN67LWQ0PPJUT","","","null","","","","","","","",""
"11.799999952316284","","image-keyboard-response","203","792206","0.0-132.0","3B1NLC6UG0IBDCWGT28BPLDX864PGO","A2H1QUGX0SOUMH","3DFYDSXB2WMWAZWJRSN67LWQ0PPJUT","","img/set1/S1.jpg","83","1","random","83","true","random,structured_incentive,structured_normal","2,3,1,2","",""
"null","","html-keyboard-response","204","792559","0.0-133.0","3B1NLC6UG0IBDCWGT28BPLDX864PGO","A2H1QUGX0SOUMH","3DFYDSXB2WMWAZWJRSN67LWQ0PPJUT","","<img src=""img/set1/S1.jpg"" width=""540"" height = ""360"" style=""border:16px solid orange"">","null","","","","","","","",""
"null","","html-keyboard-response","205","792562","0.0-134.0","3B1NLC6UG0IBDCWGT28BPLDX864PGO","A2H1QUGX0SOUMH","3DFYDSXB2WMWAZWJRSN67LWQ0PPJUT","","","null","","","","","","","",""
"951.8999999761581","","image-keyboard-response","206","793517","0.0-135.0","3B1NLC6UG0IBDCWGT28BPLDX864PGO","A2H1QUGX0SOUMH","3DFYDSXB2WMWAZWJRSN67LWQ0PPJUT","","img/set1/S3.jpg","83","3","random","72","false","random,structured_incentive,structured_normal","2,3,1,2","",""
"null","","html-keyboard-response","207","793870","0.0-136.0","3B1NLC6UG0IBDCWGT28BPLDX864PGO","A2H1QUGX0SOUMH","3DFYDSXB2WMWAZWJRSN67LWQ0PPJUT","","<img src=""img/set1/S3.jpg"" width=""540"" height = ""360"">","null","","","","","","","",""
"null","","html-keyboard-response","208","793872","0.0-137.0","3B1NLC6UG0IBDCWGT28BPLDX864PGO","A2H1QUGX0SOUMH","3DFYDSXB2WMWAZWJRSN67LWQ0PPJUT","","","null","","","","","","","",""
"65.70000004768372","","image-keyboard-response","209","793939","0.0-138.0","3B1NLC6UG0IBDCWGT28BPLDX864PGO","A2H1QUGX0SOUMH","3DFYDSXB2WMWAZWJRSN67LWQ0PPJUT","","img/set1/S3.jpg","68","3","random","72","false","random,structured_incentive,structured_normal","2,3,1,2","",""
"null","","html-keyboard-response","210","794292","0.0-139.0","3B1NLC6UG0IBDCWGT28BPLDX864PGO","A2H1QUGX0SOUMH","3DFYDSXB2WMWAZWJRSN67LWQ0PPJUT","","<img src=""img/set1/S3.jpg"" width=""540"" height = ""360"">","null","","","","","","","",""
"null","","html-keyboard-response","211","794294","0.0-140.0","3B1NLC6UG0IBDCWGT28BPLDX864PGO","A2H1QUGX0SOUMH","3DFYDSXB2WMWAZWJRSN67LWQ0PPJUT","","","null","","","","","","","",""
"568.3000000119209","","image-keyboard-response","212","794864","0.0-141.0","3B1NLC6UG0IBDCWGT28BPLDX864PGO","A2H1QUGX0SOUMH","3DFYDSXB2WMWAZWJRSN67LWQ0PPJUT","","img/set1/S1.jpg","72","1","random","83","false","random,structured_incentive,structured_normal","2,3,1,2","",""
"null","","html-keyboard-response","213","795218","0.0-142.0","3B1NLC6UG0IBDCWGT28BPLDX864PGO","A2H1QUGX0SOUMH","3DFYDSXB2WMWAZWJRSN67LWQ0PPJUT","","<img src=""img/set1/S1.jpg"" width=""540"" height = ""360"">","null","","","","","","","",""
"null","","html-keyboard-response","214","795221","0.0-143.0","3B1NLC6UG0IBDCWGT28BPLDX864PGO","A2H1QUGX0SOUMH","3DFYDSXB2WMWAZWJRSN67LWQ0PPJUT","","","null","","","","","","","",""
"684.3999999761581","","image-keyboard-response","215","795907","0.0-144.0","3B1NLC6UG0IBDCWGT28BPLDX864PGO","A2H1QUGX0SOUMH","3DFYDSXB2WMWAZWJRSN67LWQ0PPJUT","","img/set1/S3.jpg","68","3","random","72","false","random,structured_incentive,structured_normal","2,3,1,2","",""
"null","","html-keyboard-response","216","796271","0.0-145.0","3B1NLC6UG0IBDCWGT28BPLDX864PGO","A2H1QUGX0SOUMH","3DFYDSXB2WMWAZWJRSN67LWQ0PPJUT","","<img src=""img/set1/S3.jpg"" width=""540"" height = ""360"">","null","","","","","","","",""
"null","","html-keyboard-response","217","796276","0.0-146.0","3B1NLC6UG0IBDCWGT28BPLDX864PGO","A2H1QUGX0SOUMH","3DFYDSXB2WMWAZWJRSN67LWQ0PPJUT","","","null","","","","","","","",""
"626.2000000476837","","image-keyboard-response","218","796905","0.0-147.0","3B1NLC6UG0IBDCWGT28BPLDX864PGO","A2H1QUGX0SOUMH","3DFYDSXB2WMWAZWJRSN67LWQ0PPJUT","","img/set1/S1.jpg","72","1","random","83","false","random,structured_incentive,structured_normal","2,3,1,2","",""
"null","","html-keyboard-response","219","797259","0.0-148.0","3B1NLC6UG0IBDCWGT28BPLDX864PGO","A2H1QUGX0SOUMH","3DFYDSXB2WMWAZWJRSN67LWQ0PPJUT","","<img src=""img/set1/S1.jpg"" width=""540"" height = ""360"">","null","","","","","","","",""
"null","","html-keyboard-response","220","797262","0.0-149.0","3B1NLC6UG0IBDCWGT28BPLDX864PGO","A2H1QUGX0SOUMH","3DFYDSXB2WMWAZWJRSN67LWQ0PPJUT","","","null","","","","","","","",""
"479.5","","image-keyboard-response","221","797744","0.0-150.0","3B1NLC6UG0IBDCWGT28BPLDX864PGO","A2H1QUGX0SOUMH","3DFYDSXB2WMWAZWJRSN67LWQ0PPJUT","","img/set1/S1.jpg","83","1","random","83","true","random,structured_incentive,structured_normal","2,3,1,2","",""
"null","","html-keyboard-response","222","798098","0.0-151.0","3B1NLC6UG0IBDCWGT28BPLDX864PGO","A2H1QUGX0SOUMH","3DFYDSXB2WMWAZWJRSN67LWQ0PPJUT","","<img src=""img/set1/S1.jpg"" width=""540"" height = ""360"" style=""border:16px solid orange"">","null","","","","","","","",""
"null","","html-keyboard-response","223","798099","0.0-152.0","3B1NLC6UG0IBDCWGT28BPLDX864PGO","A2H1QUGX0SOUMH","3DFYDSXB2WMWAZWJRSN67LWQ0PPJUT","","","null","","","","","","","",""
"672.1000000238419","","image-keyboard-response","224","798774","0.0-153.0","3B1NLC6UG0IBDCWGT28BPLDX864PGO","A2H1QUGX0SOUMH","3DFYDSXB2WMWAZWJRSN67LWQ0PPJUT","","img/set1/S4.jpg","74","4","random","74","true","random,structured_incentive,structured_normal","2,3,1,2","",""
"null","","html-keyboard-response","225","799128","0.0-154.0","3B1NLC6UG0IBDCWGT28BPLDX864PGO","A2H1QUGX0SOUMH","3DFYDSXB2WMWAZWJRSN67LWQ0PPJUT","","<img src=""img/set1/S4.jpg"" width=""540"" height = ""360"" style=""border:16px solid orange"">","null","","","","","","","",""
"null","","html-keyboard-response","226","799132","0.0-155.0","3B1NLC6UG0IBDCWGT28BPLDX864PGO","A2H1QUGX0SOUMH","3DFYDSXB2WMWAZWJRSN67LWQ0PPJUT","","","null","","","","","","","",""
"1046","","image-keyboard-response","227","800182","0.0-156.0","3B1NLC6UG0IBDCWGT28BPLDX864PGO","A2H1QUGX0SOUMH","3DFYDSXB2WMWAZWJRSN67LWQ0PPJUT","","img/set1/S2.jpg","68","2","random","68","true","random,structured_incentive,structured_normal","2,3,1,2","",""
"null","","html-keyboard-response","228","800534","0.0-157.0","3B1NLC6UG0IBDCWGT28BPLDX864PGO","A2H1QUGX0SOUMH","3DFYDSXB2WMWAZWJRSN67LWQ0PPJUT","","<img src=""img/set1/S2.jpg"" width=""540"" height = ""360"" style=""border:16px solid orange"">","null","","","","","","","",""
"null","","html-keyboard-response","229","800537","0.0-158.0","3B1NLC6UG0IBDCWGT28BPLDX864PGO","A2H1QUGX0SOUMH","3DFYDSXB2WMWAZWJRSN67LWQ0PPJUT","","","null","","","","","","","",""
"1302.800000011921","","image-keyboard-response","230","801841","0.0-159.0","3B1NLC6UG0IBDCWGT28BPLDX864PGO","A2H1QUGX0SOUMH","3DFYDSXB2WMWAZWJRSN67LWQ0PPJUT","","img/set1/S3.jpg","72","3","random","72","true","random,structured_incentive,structured_normal","2,3,1,2","",""
"null","","html-keyboard-response","231","802194","0.0-160.0","3B1NLC6UG0IBDCWGT28BPLDX864PGO","A2H1QUGX0SOUMH","3DFYDSXB2WMWAZWJRSN67LWQ0PPJUT","","<img src=""img/set1/S3.jpg"" width=""540"" height = ""360"" style=""border:16px solid orange"">","null","","","","","","","",""
"null","","html-keyboard-response","232","802197","0.0-161.0","3B1NLC6UG0IBDCWGT28BPLDX864PGO","A2H1QUGX0SOUMH","3DFYDSXB2WMWAZWJRSN67LWQ0PPJUT","","","null","","","","","","","",""
"1309.1000000238419","","image-keyboard-response","233","803509","0.0-162.0","3B1NLC6UG0IBDCWGT28BPLDX864PGO","A2H1QUGX0SOUMH","3DFYDSXB2WMWAZWJRSN67LWQ0PPJUT","","img/set1/S3.jpg","72","3","random","72","true","random,structured_incentive,structured_normal","2,3,1,2","",""
"null","","html-keyboard-response","234","803863","0.0-163.0","3B1NLC6UG0IBDCWGT28BPLDX864PGO","A2H1QUGX0SOUMH","3DFYDSXB2WMWAZWJRSN67LWQ0PPJUT","","<img src=""img/set1/S3.jpg"" width=""540"" height = ""360"" style=""border:16px solid orange"">","null","","","","","","","",""
"null","","html-keyboard-response","235","803868","0.0-164.0","3B1NLC6UG0IBDCWGT28BPLDX864PGO","A2H1QUGX0SOUMH","3DFYDSXB2WMWAZWJRSN67LWQ0PPJUT","","","null","","","","","","","",""
"904.0999999642372","","image-keyboard-response","236","804775","0.0-165.0","3B1NLC6UG0IBDCWGT28BPLDX864PGO","A2H1QUGX0SOUMH","3DFYDSXB2WMWAZWJRSN67LWQ0PPJUT","","img/set1/S4.jpg","74","4","random","74","true","random,structured_incentive,structured_normal","2,3,1,2","",""
"null","","html-keyboard-response","237","805129","0.0-166.0","3B1NLC6UG0IBDCWGT28BPLDX864PGO","A2H1QUGX0SOUMH","3DFYDSXB2WMWAZWJRSN67LWQ0PPJUT","","<img src=""img/set1/S4.jpg"" width=""540"" height = ""360"" style=""border:16px solid orange"">","null","","","","","","","",""
"null","","html-keyboard-response","238","805131","0.0-167.0","3B1NLC6UG0IBDCWGT28BPLDX864PGO","A2H1QUGX0SOUMH","3DFYDSXB2WMWAZWJRSN67LWQ0PPJUT","","","null","","","","","","","",""
"798.8000000119209","","image-keyboard-response","239","805932","0.0-168.0","3B1NLC6UG0IBDCWGT28BPLDX864PGO","A2H1QUGX0SOUMH","3DFYDSXB2WMWAZWJRSN67LWQ0PPJUT","","img/set1/S4.jpg","74","4","random","74","true","random,structured_incentive,structured_normal","2,3,1,2","",""
"null","","html-keyboard-response","240","806285","0.0-169.0","3B1NLC6UG0IBDCWGT28BPLDX864PGO","A2H1QUGX0SOUMH","3DFYDSXB2WMWAZWJRSN67LWQ0PPJUT","","<img src=""img/set1/S4.jpg"" width=""540"" height = ""360"" style=""border:16px solid orange"">","null","","","","","","","",""
"null","","html-keyboard-response","241","806288","0.0-170.0","3B1NLC6UG0IBDCWGT28BPLDX864PGO","A2H1QUGX0SOUMH","3DFYDSXB2WMWAZWJRSN67LWQ0PPJUT","","","null","","","","","","","",""
"957.1999999880791","","image-keyboard-response","242","807248","0.0-171.0","3B1NLC6UG0IBDCWGT28BPLDX864PGO","A2H1QUGX0SOUMH","3DFYDSXB2WMWAZWJRSN67LWQ0PPJUT","","img/set1/S1.jpg","68","1","random","83","false","random,structured_incentive,structured_normal","2,3,1,2","",""
"null","","html-keyboard-response","243","807601","0.0-172.0","3B1NLC6UG0IBDCWGT28BPLDX864PGO","A2H1QUGX0SOUMH","3DFYDSXB2WMWAZWJRSN67LWQ0PPJUT","","<img src=""img/set1/S1.jpg"" width=""540"" height = ""360"">","null","","","","","","","",""
"null","","html-keyboard-response","244","807604","0.0-173.0","3B1NLC6UG0IBDCWGT28BPLDX864PGO","A2H1QUGX0SOUMH","3DFYDSXB2WMWAZWJRSN67LWQ0PPJUT","","","null","","","","","","","",""
"59.40000003576279","","image-keyboard-response","245","807665","0.0-174.0","3B1NLC6UG0IBDCWGT28BPLDX864PGO","A2H1QUGX0SOUMH","3DFYDSXB2WMWAZWJRSN67LWQ0PPJUT","","img/set1/S2.jpg","83","2","random","68","false","random,structured_incentive,structured_normal","2,3,1,2","",""
"null","","html-keyboard-response","246","808020","0.0-175.0","3B1NLC6UG0IBDCWGT28BPLDX864PGO","A2H1QUGX0SOUMH","3DFYDSXB2WMWAZWJRSN67LWQ0PPJUT","","<img src=""img/set1/S2.jpg"" width=""540"" height = ""360"">","null","","","","","","","",""
"null","","html-keyboard-response","247","808022","0.0-176.0","3B1NLC6UG0IBDCWGT28BPLDX864PGO","A2H1QUGX0SOUMH","3DFYDSXB2WMWAZWJRSN67LWQ0PPJUT","","","null","","","","","","","",""
"386.60000002384186","","image-keyboard-response","248","808411","0.0-177.0","3B1NLC6UG0IBDCWGT28BPLDX864PGO","A2H1QUGX0SOUMH","3DFYDSXB2WMWAZWJRSN67LWQ0PPJUT","","img/set1/S3.jpg","83","3","random","72","false","random,structured_incentive,structured_normal","2,3,1,2","",""
"null","","html-keyboard-response","249","808764","0.0-178.0","3B1NLC6UG0IBDCWGT28BPLDX864PGO","A2H1QUGX0SOUMH","3DFYDSXB2WMWAZWJRSN67LWQ0PPJUT","","<img src=""img/set1/S3.jpg"" width=""540"" height = ""360"">","null","","","","","","","",""
"null","","html-keyboard-response","250","808767","0.0-179.0","3B1NLC6UG0IBDCWGT28BPLDX864PGO","A2H1QUGX0SOUMH","3DFYDSXB2WMWAZWJRSN67LWQ0PPJUT","","","null","","","","","","","",""
"626.0999999642372","","image-keyboard-response","251","809395","0.0-180.0","3B1NLC6UG0IBDCWGT28BPLDX864PGO","A2H1QUGX0SOUMH","3DFYDSXB2WMWAZWJRSN67LWQ0PPJUT","","img/set1/S4.jpg","83","4","random","74","false","random,structured_incentive,structured_normal","2,3,1,2","",""
"null","","html-keyboard-response","252","809748","0.0-181.0","3B1NLC6UG0IBDCWGT28BPLDX864PGO","A2H1QUGX0SOUMH","3DFYDSXB2WMWAZWJRSN67LWQ0PPJUT","","<img src=""img/set1/S4.jpg"" width=""540"" height = ""360"">","null","","","","","","","",""
"null","","html-keyboard-response","253","809750","0.0-182.0","3B1NLC6UG0IBDCWGT28BPLDX864PGO","A2H1QUGX0SOUMH","3DFYDSXB2WMWAZWJRSN67LWQ0PPJUT","","","null","","","","","","","",""
"63.700000047683716","","image-keyboard-response","254","809815","0.0-183.0","3B1NLC6UG0IBDCWGT28BPLDX864PGO","A2H1QUGX0SOUMH","3DFYDSXB2WMWAZWJRSN67LWQ0PPJUT","","img/set1/S3.jpg","74","3","random","72","false","random,structured_incentive,structured_normal","2,3,1,2","",""
"null","","html-keyboard-response","255","810169","0.0-184.0","3B1NLC6UG0IBDCWGT28BPLDX864PGO","A2H1QUGX0SOUMH","3DFYDSXB2WMWAZWJRSN67LWQ0PPJUT","","<img src=""img/set1/S3.jpg"" width=""540"" height = ""360"">","null","","","","","","","",""
"null","","html-keyboard-response","256","810173","0.0-185.0","3B1NLC6UG0IBDCWGT28BPLDX864PGO","A2H1QUGX0SOUMH","3DFYDSXB2WMWAZWJRSN67LWQ0PPJUT","","","null","","","","","","","",""
"173.0999999642372","","image-keyboard-response","257","810349","0.0-186.0","3B1NLC6UG0IBDCWGT28BPLDX864PGO","A2H1QUGX0SOUMH","3DFYDSXB2WMWAZWJRSN67LWQ0PPJUT","","img/set1/S3.jpg","74","3","random","72","false","random,structured_incentive,structured_normal","2,3,1,2","",""
"null","","html-keyboard-response","258","810703","0.0-187.0","3B1NLC6UG0IBDCWGT28BPLDX864PGO","A2H1QUGX0SOUMH","3DFYDSXB2WMWAZWJRSN67LWQ0PPJUT","","<img src=""img/set1/S3.jpg"" width=""540"" height = ""360"">","null","","","","","","","",""
"null","","html-keyboard-response","259","810706","0.0-188.0","3B1NLC6UG0IBDCWGT28BPLDX864PGO","A2H1QUGX0SOUMH","3DFYDSXB2WMWAZWJRSN67LWQ0PPJUT","","","null","","","","","","","",""
"218.19999998807907","","image-keyboard-response","260","810927","0.0-189.0","3B1NLC6UG0IBDCWGT28BPLDX864PGO","A2H1QUGX0SOUMH","3DFYDSXB2WMWAZWJRSN67LWQ0PPJUT","","img/set1/S4.jpg","83","4","random","74","false","random,structured_incentive,structured_normal","2,3,1,2","",""
"null","","html-keyboard-response","261","811281","0.0-190.0","3B1NLC6UG0IBDCWGT28BPLDX864PGO","A2H1QUGX0SOUMH","3DFYDSXB2WMWAZWJRSN67LWQ0PPJUT","","<img src=""img/set1/S4.jpg"" width=""540"" height = ""360"">","null","","","","","","","",""
"null","","html-keyboard-response","262","811285","0.0-191.0","3B1NLC6UG0IBDCWGT28BPLDX864PGO","A2H1QUGX0SOUMH","3DFYDSXB2WMWAZWJRSN67LWQ0PPJUT","","","null","","","","","","","",""
"46.69999998807907","","image-keyboard-response","263","811335","0.0-192.0","3B1NLC6UG0IBDCWGT28BPLDX864PGO","A2H1QUGX0SOUMH","3DFYDSXB2WMWAZWJRSN67LWQ0PPJUT","","img/set1/S2.jpg","74","2","random","68","false","random,structured_incentive,structured_normal","2,3,1,2","",""
"null","","html-keyboard-response","264","811688","0.0-193.0","3B1NLC6UG0IBDCWGT28BPLDX864PGO","A2H1QUGX0SOUMH","3DFYDSXB2WMWAZWJRSN67LWQ0PPJUT","","<img src=""img/set1/S2.jpg"" width=""540"" height = ""360"">","null","","","","","","","",""
"null","","html-keyboard-response","265","811691","0.0-194.0","3B1NLC6UG0IBDCWGT28BPLDX864PGO","A2H1QUGX0SOUMH","3DFYDSXB2WMWAZWJRSN67LWQ0PPJUT","","","null","","","","","","","",""
"null","","image-keyboard-response","266","814192","0.0-195.0","3B1NLC6UG0IBDCWGT28BPLDX864PGO","A2H1QUGX0SOUMH","3DFYDSXB2WMWAZWJRSN67LWQ0PPJUT","","img/set1/S4.jpg","null","4","random","74","false","random,structured_incentive,structured_normal","2,3,1,2","",""
"null","","html-keyboard-response","267","814545","0.0-196.0","3B1NLC6UG0IBDCWGT28BPLDX864PGO","A2H1QUGX0SOUMH","3DFYDSXB2WMWAZWJRSN67LWQ0PPJUT","","<img src=""img/set1/S4.jpg"" width=""540"" height = ""360"">","null","","","","","","","",""
"null","","html-keyboard-response","268","814553","0.0-197.0","3B1NLC6UG0IBDCWGT28BPLDX864PGO","A2H1QUGX0SOUMH","3DFYDSXB2WMWAZWJRSN67LWQ0PPJUT","","","null","","","","","","","",""
"null","","image-keyboard-response","269","817057","0.0-198.0","3B1NLC6UG0IBDCWGT28BPLDX864PGO","A2H1QUGX0SOUMH","3DFYDSXB2WMWAZWJRSN67LWQ0PPJUT","","img/set1/S2.jpg","null","2","random","68","false","random,structured_incentive,structured_normal","2,3,1,2","",""
"null","","html-keyboard-response","270","817410","0.0-199.0","3B1NLC6UG0IBDCWGT28BPLDX864PGO","A2H1QUGX0SOUMH","3DFYDSXB2WMWAZWJRSN67LWQ0PPJUT","","<img src=""img/set1/S2.jpg"" width=""540"" height = ""360"">","null","","","","","","","",""
"null","","html-keyboard-response","271","817417","0.0-200.0","3B1NLC6UG0IBDCWGT28BPLDX864PGO","A2H1QUGX0SOUMH","3DFYDSXB2WMWAZWJRSN67LWQ0PPJUT","","","null","","","","","","","",""
"null","","image-keyboard-response","272","819920","0.0-201.0","3B1NLC6UG0IBDCWGT28BPLDX864PGO","A2H1QUGX0SOUMH","3DFYDSXB2WMWAZWJRSN67LWQ0PPJUT","","img/set1/S4.jpg","null","4","random","74","false","random,structured_incentive,structured_normal","2,3,1,2","",""
"null","","html-keyboard-response","273","820274","0.0-202.0","3B1NLC6UG0IBDCWGT28BPLDX864PGO","A2H1QUGX0SOUMH","3DFYDSXB2WMWAZWJRSN67LWQ0PPJUT","","<img src=""img/set1/S4.jpg"" width=""540"" height = ""360"">","null","","","","","","","",""
"null","","html-keyboard-response","274","820282","0.0-203.0","3B1NLC6UG0IBDCWGT28BPLDX864PGO","A2H1QUGX0SOUMH","3DFYDSXB2WMWAZWJRSN67LWQ0PPJUT","","","null","","","","","","","",""
"null","","image-keyboard-response","275","822786","0.0-204.0","3B1NLC6UG0IBDCWGT28BPLDX864PGO","A2H1QUGX0SOUMH","3DFYDSXB2WMWAZWJRSN67LWQ0PPJUT","","img/set1/S2.jpg","null","2","random","68","false","random,structured_incentive,structured_normal","2,3,1,2","",""
"null","","html-keyboard-response","276","823140","0.0-205.0","3B1NLC6UG0IBDCWGT28BPLDX864PGO","A2H1QUGX0SOUMH","3DFYDSXB2WMWAZWJRSN67LWQ0PPJUT","","<img src=""img/set1/S2.jpg"" width=""540"" height = ""360"">","null","","","","","","","",""
"null","","html-keyboard-response","277","823146","0.0-206.0","3B1NLC6UG0IBDCWGT28BPLDX864PGO","A2H1QUGX0SOUMH","3DFYDSXB2WMWAZWJRSN67LWQ0PPJUT","","","null","","","","","","","",""
"null","","image-keyboard-response","278","825648","0.0-207.0","3B1NLC6UG0IBDCWGT28BPLDX864PGO","A2H1QUGX0SOUMH","3DFYDSXB2WMWAZWJRSN67LWQ0PPJUT","","img/set1/S1.jpg","null","1","random","83","false","random,structured_incentive,structured_normal","2,3,1,2","",""
"null","","html-keyboard-response","279","826001","0.0-208.0","3B1NLC6UG0IBDCWGT28BPLDX864PGO","A2H1QUGX0SOUMH","3DFYDSXB2WMWAZWJRSN67LWQ0PPJUT","","<img src=""img/set1/S1.jpg"" width=""540"" height = ""360"">","null","","","","","","","",""
"null","","html-keyboard-response","280","826007","0.0-209.0","3B1NLC6UG0IBDCWGT28BPLDX864PGO","A2H1QUGX0SOUMH","3DFYDSXB2WMWAZWJRSN67LWQ0PPJUT","","","null","","","","","","","",""
"null","","image-keyboard-response","281","828509","0.0-210.0","3B1NLC6UG0IBDCWGT28BPLDX864PGO","A2H1QUGX0SOUMH","3DFYDSXB2WMWAZWJRSN67LWQ0PPJUT","","img/set1/S4.jpg","null","4","random","74","false","random,structured_incentive,structured_normal","2,3,1,2","",""
"null","","html-keyboard-response","282","828862","0.0-211.0","3B1NLC6UG0IBDCWGT28BPLDX864PGO","A2H1QUGX0SOUMH","3DFYDSXB2WMWAZWJRSN67LWQ0PPJUT","","<img src=""img/set1/S4.jpg"" width=""540"" height = ""360"">","null","","","","","","","",""
"null","","html-keyboard-response","283","828880","0.0-212.0","3B1NLC6UG0IBDCWGT28BPLDX864PGO","A2H1QUGX0SOUMH","3DFYDSXB2WMWAZWJRSN67LWQ0PPJUT","","","null","","","","","","","",""
"null","","image-keyboard-response","284","831384","0.0-213.0","3B1NLC6UG0IBDCWGT28BPLDX864PGO","A2H1QUGX0SOUMH","3DFYDSXB2WMWAZWJRSN67LWQ0PPJUT","","img/set1/S1.jpg","null","1","random","83","false","random,structured_incentive,structured_normal","2,3,1,2","",""
"null","","html-keyboard-response","285","831736","0.0-214.0","3B1NLC6UG0IBDCWGT28BPLDX864PGO","A2H1QUGX0SOUMH","3DFYDSXB2WMWAZWJRSN67LWQ0PPJUT","","<img src=""img/set1/S1.jpg"" width=""540"" height = ""360"">","null","","","","","","","",""
"null","","html-keyboard-response","286","831743","0.0-215.0","3B1NLC6UG0IBDCWGT28BPLDX864PGO","A2H1QUGX0SOUMH","3DFYDSXB2WMWAZWJRSN67LWQ0PPJUT","","","null","","","","","","","",""
"null","","image-keyboard-response","287","834246","0.0-216.0","3B1NLC6UG0IBDCWGT28BPLDX864PGO","A2H1QUGX0SOUMH","3DFYDSXB2WMWAZWJRSN67LWQ0PPJUT","","img/set1/S2.jpg","null","2","random","68","false","random,structured_incentive,structured_normal","2,3,1,2","",""
"null","","html-keyboard-response","288","834620","0.0-217.0","3B1NLC6UG0IBDCWGT28BPLDX864PGO","A2H1QUGX0SOUMH","3DFYDSXB2WMWAZWJRSN67LWQ0PPJUT","","<img src=""img/set1/S2.jpg"" width=""540"" height = ""360"">","null","","","","","","","",""
"null","","html-keyboard-response","289","834625","0.0-218.0","3B1NLC6UG0IBDCWGT28BPLDX864PGO","A2H1QUGX0SOUMH","3DFYDSXB2WMWAZWJRSN67LWQ0PPJUT","","","null","","","","","","","",""
"1973.300000011921","","image-keyboard-response","290","836601","0.0-219.0","3B1NLC6UG0IBDCWGT28BPLDX864PGO","A2H1QUGX0SOUMH","3DFYDSXB2WMWAZWJRSN67LWQ0PPJUT","","img/set1/S1.jpg","74","1","random","83","false","random,structured_incentive,structured_normal","2,3,1,2","",""
"null","","html-keyboard-response","291","836955","0.0-220.0","3B1NLC6UG0IBDCWGT28BPLDX864PGO","A2H1QUGX0SOUMH","3DFYDSXB2WMWAZWJRSN67LWQ0PPJUT","","<img src=""img/set1/S1.jpg"" width=""540"" height = ""360"">","null","","","","","","","",""
"null","","html-keyboard-response","292","836958","0.0-221.0","3B1NLC6UG0IBDCWGT28BPLDX864PGO","A2H1QUGX0SOUMH","3DFYDSXB2WMWAZWJRSN67LWQ0PPJUT","","","null","","","","","","","",""
"775.8999999761581","","image-keyboard-response","293","837737","0.0-222.0","3B1NLC6UG0IBDCWGT28BPLDX864PGO","A2H1QUGX0SOUMH","3DFYDSXB2WMWAZWJRSN67LWQ0PPJUT","","img/set1/S2.jpg","72","2","random","68","false","random,structured_incentive,structured_normal","2,3,1,2","",""
"null","","html-keyboard-response","294","838091","0.0-223.0","3B1NLC6UG0IBDCWGT28BPLDX864PGO","A2H1QUGX0SOUMH","3DFYDSXB2WMWAZWJRSN67LWQ0PPJUT","","<img src=""img/set1/S2.jpg"" width=""540"" height = ""360"">","null","","","","","","","",""
"null","","html-keyboard-response","295","838095","0.0-224.0","3B1NLC6UG0IBDCWGT28BPLDX864PGO","A2H1QUGX0SOUMH","3DFYDSXB2WMWAZWJRSN67LWQ0PPJUT","","","null","","","","","","","",""
"1065.199999988079","","image-keyboard-response","296","839163","0.0-225.0","3B1NLC6UG0IBDCWGT28BPLDX864PGO","A2H1QUGX0SOUMH","3DFYDSXB2WMWAZWJRSN67LWQ0PPJUT","","img/set1/S3.jpg","68","3","random","72","false","random,structured_incentive,structured_normal","2,3,1,2","",""
"null","","html-keyboard-response","297","839515","0.0-226.0","3B1NLC6UG0IBDCWGT28BPLDX864PGO","A2H1QUGX0SOUMH","3DFYDSXB2WMWAZWJRSN67LWQ0PPJUT","","<img src=""img/set1/S3.jpg"" width=""540"" height = ""360"">","null","","","","","","","",""
"null","","html-keyboard-response","298","839519","0.0-227.0","3B1NLC6UG0IBDCWGT28BPLDX864PGO","A2H1QUGX0SOUMH","3DFYDSXB2WMWAZWJRSN67LWQ0PPJUT","","","null","","","","","","","",""
"848.5","","image-keyboard-response","299","840370","0.0-228.0","3B1NLC6UG0IBDCWGT28BPLDX864PGO","A2H1QUGX0SOUMH","3DFYDSXB2WMWAZWJRSN67LWQ0PPJUT","","img/set1/S4.jpg","74","4","random","74","true","random,structured_incentive,structured_normal","2,3,1,2","",""
"null","","html-keyboard-response","300","840722","0.0-229.0","3B1NLC6UG0IBDCWGT28BPLDX864PGO","A2H1QUGX0SOUMH","3DFYDSXB2WMWAZWJRSN67LWQ0PPJUT","","<img src=""img/set1/S4.jpg"" width=""540"" height = ""360"" style=""border:16px solid orange"">","null","","","","","","","",""
"null","","html-keyboard-response","301","840724","0.0-230.0","3B1NLC6UG0IBDCWGT28BPLDX864PGO","A2H1QUGX0SOUMH","3DFYDSXB2WMWAZWJRSN67LWQ0PPJUT","","","null","","","","","","","",""
"593.6999999880791","","image-keyboard-response","302","841320","0.0-231.0","3B1NLC6UG0IBDCWGT28BPLDX864PGO","A2H1QUGX0SOUMH","3DFYDSXB2WMWAZWJRSN67LWQ0PPJUT","","img/set1/S4.jpg","74","4","random","74","true","random,structured_incentive,structured_normal","2,3,1,2","",""
"null","","html-keyboard-response","303","841675","0.0-232.0","3B1NLC6UG0IBDCWGT28BPLDX864PGO","A2H1QUGX0SOUMH","3DFYDSXB2WMWAZWJRSN67LWQ0PPJUT","","<img src=""img/set1/S4.jpg"" width=""540"" height = ""360"" style=""border:16px solid orange"">","null","","","","","","","",""
"null","","html-keyboard-response","304","841678","0.0-233.0","3B1NLC6UG0IBDCWGT28BPLDX864PGO","A2H1QUGX0SOUMH","3DFYDSXB2WMWAZWJRSN67LWQ0PPJUT","","","null","","","","","","","",""
"1307.4000000357628","","image-keyboard-response","305","842987","0.0-234.0","3B1NLC6UG0IBDCWGT28BPLDX864PGO","A2H1QUGX0SOUMH","3DFYDSXB2WMWAZWJRSN67LWQ0PPJUT","","img/set1/S1.jpg","68","1","random","83","false","random,structured_incentive,structured_normal","2,3,1,2","",""
"null","","html-keyboard-response","306","843342","0.0-235.0","3B1NLC6UG0IBDCWGT28BPLDX864PGO","A2H1QUGX0SOUMH","3DFYDSXB2WMWAZWJRSN67LWQ0PPJUT","","<img src=""img/set1/S1.jpg"" width=""540"" height = ""360"">","null","","","","","","","",""
"null","","html-keyboard-response","307","843345","0.0-236.0","3B1NLC6UG0IBDCWGT28BPLDX864PGO","A2H1QUGX0SOUMH","3DFYDSXB2WMWAZWJRSN67LWQ0PPJUT","","","null","","","","","","","",""
"1143.0999999642372","","image-keyboard-response","308","844491","0.0-237.0","3B1NLC6UG0IBDCWGT28BPLDX864PGO","A2H1QUGX0SOUMH","3DFYDSXB2WMWAZWJRSN67LWQ0PPJUT","","img/set1/S2.jpg","74","2","random","68","false","random,structured_incentive,structured_normal","2,3,1,2","",""
"null","","html-keyboard-response","309","844847","0.0-238.0","3B1NLC6UG0IBDCWGT28BPLDX864PGO","A2H1QUGX0SOUMH","3DFYDSXB2WMWAZWJRSN67LWQ0PPJUT","","<img src=""img/set1/S2.jpg"" width=""540"" height = ""360"">","null","","","","","","","",""
"null","","html-keyboard-response","310","844850","0.0-239.0","3B1NLC6UG0IBDCWGT28BPLDX864PGO","A2H1QUGX0SOUMH","3DFYDSXB2WMWAZWJRSN67LWQ0PPJUT","","","null","","","","","","","",""
"1243.5999999642372","","image-keyboard-response","311","846097","0.0-240.0","3B1NLC6UG0IBDCWGT28BPLDX864PGO","A2H1QUGX0SOUMH","3DFYDSXB2WMWAZWJRSN67LWQ0PPJUT","","img/set1/S3.jpg","83","3","random","72","false","random,structured_incentive,structured_normal","2,3,1,2","",""
"null","","html-keyboard-response","312","846450","0.0-241.0","3B1NLC6UG0IBDCWGT28BPLDX864PGO","A2H1QUGX0SOUMH","3DFYDSXB2WMWAZWJRSN67LWQ0PPJUT","","<img src=""img/set1/S3.jpg"" width=""540"" height = ""360"">","null","","","","","","","",""
"null","","html-keyboard-response","313","846453","0.0-242.0","3B1NLC6UG0IBDCWGT28BPLDX864PGO","A2H1QUGX0SOUMH","3DFYDSXB2WMWAZWJRSN67LWQ0PPJUT","","","null","","","","","","","",""
"903.4000000357628","","image-keyboard-response","314","847359","0.0-243.0","3B1NLC6UG0IBDCWGT28BPLDX864PGO","A2H1QUGX0SOUMH","3DFYDSXB2WMWAZWJRSN67LWQ0PPJUT","","img/set1/S3.jpg","68","3","random","72","false","random,structured_incentive,structured_normal","2,3,1,2","",""
"null","","html-keyboard-response","315","847712","0.0-244.0","3B1NLC6UG0IBDCWGT28BPLDX864PGO","A2H1QUGX0SOUMH","3DFYDSXB2WMWAZWJRSN67LWQ0PPJUT","","<img src=""img/set1/S3.jpg"" width=""540"" height = ""360"">","null","","","","","","","",""
"null","","html-keyboard-response","316","847714","0.0-245.0","3B1NLC6UG0IBDCWGT28BPLDX864PGO","A2H1QUGX0SOUMH","3DFYDSXB2WMWAZWJRSN67LWQ0PPJUT","","","null","","","","","","","",""
"null","","image-keyboard-response","317","850217","0.0-246.0","3B1NLC6UG0IBDCWGT28BPLDX864PGO","A2H1QUGX0SOUMH","3DFYDSXB2WMWAZWJRSN67LWQ0PPJUT","","img/set1/S4.jpg","null","4","random","74","false","random,structured_incentive,structured_normal","2,3,1,2","",""
"null","","html-keyboard-response","318","850570","0.0-247.0","3B1NLC6UG0IBDCWGT28BPLDX864PGO","A2H1QUGX0SOUMH","3DFYDSXB2WMWAZWJRSN67LWQ0PPJUT","","<img src=""img/set1/S4.jpg"" width=""540"" height = ""360"">","null","","","","","","","",""
"null","","html-keyboard-response","319","850575","0.0-248.0","3B1NLC6UG0IBDCWGT28BPLDX864PGO","A2H1QUGX0SOUMH","3DFYDSXB2WMWAZWJRSN67LWQ0PPJUT","","","null","","","","","","","",""
"637.5","","image-keyboard-response","320","851215","0.0-249.0","3B1NLC6UG0IBDCWGT28BPLDX864PGO","A2H1QUGX0SOUMH","3DFYDSXB2WMWAZWJRSN67LWQ0PPJUT","","img/set1/S3.jpg","74","3","random","72","false","random,structured_incentive,structured_normal","2,3,1,2","",""
"null","","html-keyboard-response","321","851570","0.0-250.0","3B1NLC6UG0IBDCWGT28BPLDX864PGO","A2H1QUGX0SOUMH","3DFYDSXB2WMWAZWJRSN67LWQ0PPJUT","","<img src=""img/set1/S3.jpg"" width=""540"" height = ""360"">","null","","","","","","","",""
"null","","html-keyboard-response","322","851573","0.0-251.0","3B1NLC6UG0IBDCWGT28BPLDX864PGO","A2H1QUGX0SOUMH","3DFYDSXB2WMWAZWJRSN67LWQ0PPJUT","","","null","","","","","","","",""
"612.6000000238419","","image-keyboard-response","323","852188","0.0-252.0","3B1NLC6UG0IBDCWGT28BPLDX864PGO","A2H1QUGX0SOUMH","3DFYDSXB2WMWAZWJRSN67LWQ0PPJUT","","img/set1/S4.jpg","74","4","random","74","true","random,structured_incentive,structured_normal","2,3,1,2","",""
"null","","html-keyboard-response","324","852543","0.0-253.0","3B1NLC6UG0IBDCWGT28BPLDX864PGO","A2H1QUGX0SOUMH","3DFYDSXB2WMWAZWJRSN67LWQ0PPJUT","","<img src=""img/set1/S4.jpg"" width=""540"" height = ""360"" style=""border:16px solid orange"">","null","","","","","","","",""
"null","","html-keyboard-response","325","852547","0.0-254.0","3B1NLC6UG0IBDCWGT28BPLDX864PGO","A2H1QUGX0SOUMH","3DFYDSXB2WMWAZWJRSN67LWQ0PPJUT","","","null","","","","","","","",""
"1492.800000011921","","image-keyboard-response","326","854043","0.0-255.0","3B1NLC6UG0IBDCWGT28BPLDX864PGO","A2H1QUGX0SOUMH","3DFYDSXB2WMWAZWJRSN67LWQ0PPJUT","","img/set1/S1.jpg","83","1","random","83","true","random,structured_incentive,structured_normal","2,3,1,2","",""
"null","","html-keyboard-response","327","854396","0.0-256.0","3B1NLC6UG0IBDCWGT28BPLDX864PGO","A2H1QUGX0SOUMH","3DFYDSXB2WMWAZWJRSN67LWQ0PPJUT","","<img src=""img/set1/S1.jpg"" width=""540"" height = ""360"" style=""border:16px solid orange"">","null","","","","","","","",""
"null","","html-keyboard-response","328","854399","0.0-257.0","3B1NLC6UG0IBDCWGT28BPLDX864PGO","A2H1QUGX0SOUMH","3DFYDSXB2WMWAZWJRSN67LWQ0PPJUT","","","null","","","","","","","",""
"917","","image-keyboard-response","329","855318","0.0-258.0","3B1NLC6UG0IBDCWGT28BPLDX864PGO","A2H1QUGX0SOUMH","3DFYDSXB2WMWAZWJRSN67LWQ0PPJUT","","img/set1/S4.jpg","74","4","random","74","true","random,structured_incentive,structured_normal","2,3,1,2","",""
"null","","html-keyboard-response","330","855672","0.0-259.0","3B1NLC6UG0IBDCWGT28BPLDX864PGO","A2H1QUGX0SOUMH","3DFYDSXB2WMWAZWJRSN67LWQ0PPJUT","","<img src=""img/set1/S4.jpg"" width=""540"" height = ""360"" style=""border:16px solid orange"">","null","","","","","","","",""
"null","","html-keyboard-response","331","855676","0.0-260.0","3B1NLC6UG0IBDCWGT28BPLDX864PGO","A2H1QUGX0SOUMH","3DFYDSXB2WMWAZWJRSN67LWQ0PPJUT","","","null","","","","","","","",""
"797.3999999761581","","image-keyboard-response","332","856476","0.0-261.0","3B1NLC6UG0IBDCWGT28BPLDX864PGO","A2H1QUGX0SOUMH","3DFYDSXB2WMWAZWJRSN67LWQ0PPJUT","","img/set1/S4.jpg","74","4","random","74","true","random,structured_incentive,structured_normal","2,3,1,2","",""
"null","","html-keyboard-response","333","856830","0.0-262.0","3B1NLC6UG0IBDCWGT28BPLDX864PGO","A2H1QUGX0SOUMH","3DFYDSXB2WMWAZWJRSN67LWQ0PPJUT","","<img src=""img/set1/S4.jpg"" width=""540"" height = ""360"" style=""border:16px solid orange"">","null","","","","","","","",""
"null","","html-keyboard-response","334","856834","0.0-263.0","3B1NLC6UG0IBDCWGT28BPLDX864PGO","A2H1QUGX0SOUMH","3DFYDSXB2WMWAZWJRSN67LWQ0PPJUT","","","null","","","","","","","",""
"1214.4000000357628","","image-keyboard-response","335","858051","0.0-264.0","3B1NLC6UG0IBDCWGT28BPLDX864PGO","A2H1QUGX0SOUMH","3DFYDSXB2WMWAZWJRSN67LWQ0PPJUT","","img/set1/S1.jpg","68","1","random","83","false","random,structured_incentive,structured_normal","2,3,1,2","",""
"null","","html-keyboard-response","336","858404","0.0-265.0","3B1NLC6UG0IBDCWGT28BPLDX864PGO","A2H1QUGX0SOUMH","3DFYDSXB2WMWAZWJRSN67LWQ0PPJUT","","<img src=""img/set1/S1.jpg"" width=""540"" height = ""360"">","null","","","","","","","",""
"null","","html-keyboard-response","337","858406","0.0-266.0","3B1NLC6UG0IBDCWGT28BPLDX864PGO","A2H1QUGX0SOUMH","3DFYDSXB2WMWAZWJRSN67LWQ0PPJUT","","","null","","","","","","","",""
"884","","image-keyboard-response","338","859292","0.0-267.0","3B1NLC6UG0IBDCWGT28BPLDX864PGO","A2H1QUGX0SOUMH","3DFYDSXB2WMWAZWJRSN67LWQ0PPJUT","","img/set1/S4.jpg","74","4","random","74","true","random,structured_incentive,structured_normal","2,3,1,2","",""
"null","","html-keyboard-response","339","859646","0.0-268.0","3B1NLC6UG0IBDCWGT28BPLDX864PGO","A2H1QUGX0SOUMH","3DFYDSXB2WMWAZWJRSN67LWQ0PPJUT","","<img src=""img/set1/S4.jpg"" width=""540"" height = ""360"" style=""border:16px solid orange"">","null","","","","","","","",""
"null","","html-keyboard-response","340","859650","0.0-269.0","3B1NLC6UG0IBDCWGT28BPLDX864PGO","A2H1QUGX0SOUMH","3DFYDSXB2WMWAZWJRSN67LWQ0PPJUT","","","null","","","","","","","",""
"1384.8999999761581","","image-keyboard-response","341","861038","0.0-270.0","3B1NLC6UG0IBDCWGT28BPLDX864PGO","A2H1QUGX0SOUMH","3DFYDSXB2WMWAZWJRSN67LWQ0PPJUT","","img/set1/S3.jpg","83","3","random","72","false","random,structured_incentive,structured_normal","2,3,1,2","",""
"null","","html-keyboard-response","342","861395","0.0-271.0","3B1NLC6UG0IBDCWGT28BPLDX864PGO","A2H1QUGX0SOUMH","3DFYDSXB2WMWAZWJRSN67LWQ0PPJUT","","<img src=""img/set1/S3.jpg"" width=""540"" height = ""360"">","null","","","","","","","",""
"null","","html-keyboard-response","343","861402","0.0-272.0","3B1NLC6UG0IBDCWGT28BPLDX864PGO","A2H1QUGX0SOUMH","3DFYDSXB2WMWAZWJRSN67LWQ0PPJUT","","","null","","","","","","","",""
"86.30000001192093","","image-keyboard-response","344","861491","0.0-273.0","3B1NLC6UG0IBDCWGT28BPLDX864PGO","A2H1QUGX0SOUMH","3DFYDSXB2WMWAZWJRSN67LWQ0PPJUT","","img/set1/S1.jpg","68","1","random","83","false","random,structured_incentive,structured_normal","2,3,1,2","",""
"null","","html-keyboard-response","345","861846","0.0-274.0","3B1NLC6UG0IBDCWGT28BPLDX864PGO","A2H1QUGX0SOUMH","3DFYDSXB2WMWAZWJRSN67LWQ0PPJUT","","<img src=""img/set1/S1.jpg"" width=""540"" height = ""360"">","null","","","","","","","",""
"null","","html-keyboard-response","346","861851","0.0-275.0","3B1NLC6UG0IBDCWGT28BPLDX864PGO","A2H1QUGX0SOUMH","3DFYDSXB2WMWAZWJRSN67LWQ0PPJUT","","","null","","","","","","","",""
"984.8999999761581","","image-keyboard-response","347","862840","0.0-276.0","3B1NLC6UG0IBDCWGT28BPLDX864PGO","A2H1QUGX0SOUMH","3DFYDSXB2WMWAZWJRSN67LWQ0PPJUT","","img/set1/S2.jpg","68","2","random","68","true","random,structured_incentive,structured_normal","2,3,1,2","",""
"null","","html-keyboard-response","348","863194","0.0-277.0","3B1NLC6UG0IBDCWGT28BPLDX864PGO","A2H1QUGX0SOUMH","3DFYDSXB2WMWAZWJRSN67LWQ0PPJUT","","<img src=""img/set1/S2.jpg"" width=""540"" height = ""360"" style=""border:16px solid orange"">","null","","","","","","","",""
"null","","html-keyboard-response","349","863198","0.0-278.0","3B1NLC6UG0IBDCWGT28BPLDX864PGO","A2H1QUGX0SOUMH","3DFYDSXB2WMWAZWJRSN67LWQ0PPJUT","","","null","","","","","","","",""
"814.5999999642372","","image-keyboard-response","350","864016","0.0-279.0","3B1NLC6UG0IBDCWGT28BPLDX864PGO","A2H1QUGX0SOUMH","3DFYDSXB2WMWAZWJRSN67LWQ0PPJUT","","img/set1/S2.jpg","68","2","random","68","true","random,structured_incentive,structured_normal","2,3,1,2","",""
"null","","html-keyboard-response","351","864369","0.0-280.0","3B1NLC6UG0IBDCWGT28BPLDX864PGO","A2H1QUGX0SOUMH","3DFYDSXB2WMWAZWJRSN67LWQ0PPJUT","","<img src=""img/set1/S2.jpg"" width=""540"" height = ""360"" style=""border:16px solid orange"">","null","","","","","","","",""
"null","","html-keyboard-response","352","864372","0.0-281.0","3B1NLC6UG0IBDCWGT28BPLDX864PGO","A2H1QUGX0SOUMH","3DFYDSXB2WMWAZWJRSN67LWQ0PPJUT","","","null","","","","","","","",""
"2237.600000023842","","image-keyboard-response","353","866613","0.0-282.0","3B1NLC6UG0IBDCWGT28BPLDX864PGO","A2H1QUGX0SOUMH","3DFYDSXB2WMWAZWJRSN67LWQ0PPJUT","","img/set1/S3.jpg","74","3","random","72","false","random,structured_incentive,structured_normal","2,3,1,2","",""
"null","","html-keyboard-response","354","866966","0.0-283.0","3B1NLC6UG0IBDCWGT28BPLDX864PGO","A2H1QUGX0SOUMH","3DFYDSXB2WMWAZWJRSN67LWQ0PPJUT","","<img src=""img/set1/S3.jpg"" width=""540"" height = ""360"">","null","","","","","","","",""
"null","","html-keyboard-response","355","866970","0.0-284.0","3B1NLC6UG0IBDCWGT28BPLDX864PGO","A2H1QUGX0SOUMH","3DFYDSXB2WMWAZWJRSN67LWQ0PPJUT","","","null","","","","","","","",""
"130.30000001192093","","image-keyboard-response","356","867105","0.0-285.0","3B1NLC6UG0IBDCWGT28BPLDX864PGO","A2H1QUGX0SOUMH","3DFYDSXB2WMWAZWJRSN67LWQ0PPJUT","","img/set1/S2.jpg","72","2","random","68","false","random,structured_incentive,structured_normal","2,3,1,2","",""
"null","","html-keyboard-response","357","867458","0.0-286.0","3B1NLC6UG0IBDCWGT28BPLDX864PGO","A2H1QUGX0SOUMH","3DFYDSXB2WMWAZWJRSN67LWQ0PPJUT","","<img src=""img/set1/S2.jpg"" width=""540"" height = ""360"">","null","","","","","","","",""
"null","","html-keyboard-response","358","867461","0.0-287.0","3B1NLC6UG0IBDCWGT28BPLDX864PGO","A2H1QUGX0SOUMH","3DFYDSXB2WMWAZWJRSN67LWQ0PPJUT","","","null","","","","","","","",""
"2035.199999988079","","image-keyboard-response","359","869498","0.0-288.0","3B1NLC6UG0IBDCWGT28BPLDX864PGO","A2H1QUGX0SOUMH","3DFYDSXB2WMWAZWJRSN67LWQ0PPJUT","","img/set1/S3.jpg","83","3","random","72","false","random,structured_incentive,structured_normal","2,3,1,2","",""
"null","","html-keyboard-response","360","869851","0.0-289.0","3B1NLC6UG0IBDCWGT28BPLDX864PGO","A2H1QUGX0SOUMH","3DFYDSXB2WMWAZWJRSN67LWQ0PPJUT","","<img src=""img/set1/S3.jpg"" width=""540"" height = ""360"">","null","","","","","","","",""
"null","","html-keyboard-response","361","869853","0.0-290.0","3B1NLC6UG0IBDCWGT28BPLDX864PGO","A2H1QUGX0SOUMH","3DFYDSXB2WMWAZWJRSN67LWQ0PPJUT","","","null","","","","","","","",""
"1274.6000000238419","","image-keyboard-response","362","871129","0.0-291.0","3B1NLC6UG0IBDCWGT28BPLDX864PGO","A2H1QUGX0SOUMH","3DFYDSXB2WMWAZWJRSN67LWQ0PPJUT","","img/set1/S1.jpg","68","1","random","83","false","random,structured_incentive,structured_normal","2,3,1,2","",""
"null","","html-keyboard-response","363","871481","0.0-292.0","3B1NLC6UG0IBDCWGT28BPLDX864PGO","A2H1QUGX0SOUMH","3DFYDSXB2WMWAZWJRSN67LWQ0PPJUT","","<img src=""img/set1/S1.jpg"" width=""540"" height = ""360"">","null","","","","","","","",""
"null","","html-keyboard-response","364","871484","0.0-293.0","3B1NLC6UG0IBDCWGT28BPLDX864PGO","A2H1QUGX0SOUMH","3DFYDSXB2WMWAZWJRSN67LWQ0PPJUT","","","null","","","","","","","",""
"1813.1000000238419","","image-keyboard-response","365","873301","0.0-294.0","3B1NLC6UG0IBDCWGT28BPLDX864PGO","A2H1QUGX0SOUMH","3DFYDSXB2WMWAZWJRSN67LWQ0PPJUT","","img/set1/S3.jpg","83","3","random","72","false","random,structured_incentive,structured_normal","2,3,1,2","",""
"null","","html-keyboard-response","366","873655","0.0-295.0","3B1NLC6UG0IBDCWGT28BPLDX864PGO","A2H1QUGX0SOUMH","3DFYDSXB2WMWAZWJRSN67LWQ0PPJUT","","<img src=""img/set1/S3.jpg"" width=""540"" height = ""360"">","null","","","","","","","",""
"null","","html-keyboard-response","367","873658","0.0-296.0","3B1NLC6UG0IBDCWGT28BPLDX864PGO","A2H1QUGX0SOUMH","3DFYDSXB2WMWAZWJRSN67LWQ0PPJUT","","","null","","","","","","","",""
"1081.300000011921","","image-keyboard-response","368","874742","0.0-297.0","3B1NLC6UG0IBDCWGT28BPLDX864PGO","A2H1QUGX0SOUMH","3DFYDSXB2WMWAZWJRSN67LWQ0PPJUT","","img/set1/S1.jpg","72","1","random","83","false","random,structured_incentive,structured_normal","2,3,1,2","",""
"null","","html-keyboard-response","369","875095","0.0-298.0","3B1NLC6UG0IBDCWGT28BPLDX864PGO","A2H1QUGX0SOUMH","3DFYDSXB2WMWAZWJRSN67LWQ0PPJUT","","<img src=""img/set1/S1.jpg"" width=""540"" height = ""360"">","null","","","","","","","",""
"null","","html-keyboard-response","370","875098","0.0-299.0","3B1NLC6UG0IBDCWGT28BPLDX864PGO","A2H1QUGX0SOUMH","3DFYDSXB2WMWAZWJRSN67LWQ0PPJUT","","","null","","","","","","","",""
"2021.3999999761581","","image-keyboard-response","371","877121","0.0-300.0","3B1NLC6UG0IBDCWGT28BPLDX864PGO","A2H1QUGX0SOUMH","3DFYDSXB2WMWAZWJRSN67LWQ0PPJUT","","img/set1/S1.jpg","72","1","random","83","false","random,structured_incentive,structured_normal","2,3,1,2","",""
"null","","html-keyboard-response","372","877474","0.0-301.0","3B1NLC6UG0IBDCWGT28BPLDX864PGO","A2H1QUGX0SOUMH","3DFYDSXB2WMWAZWJRSN67LWQ0PPJUT","","<img src=""img/set1/S1.jpg"" width=""540"" height = ""360"">","null","","","","","","","",""
"null","","html-keyboard-response","373","877479","0.0-302.0","3B1NLC6UG0IBDCWGT28BPLDX864PGO","A2H1QUGX0SOUMH","3DFYDSXB2WMWAZWJRSN67LWQ0PPJUT","","","null","","","","","","","",""
"1509.0999999642372","","image-keyboard-response","374","878993","0.0-303.0","3B1NLC6UG0IBDCWGT28BPLDX864PGO","A2H1QUGX0SOUMH","3DFYDSXB2WMWAZWJRSN67LWQ0PPJUT","","img/set1/S2.jpg","68","2","random","68","true","random,structured_incentive,structured_normal","2,3,1,2","",""
"null","","html-keyboard-response","375","879347","0.0-304.0","3B1NLC6UG0IBDCWGT28BPLDX864PGO","A2H1QUGX0SOUMH","3DFYDSXB2WMWAZWJRSN67LWQ0PPJUT","","<img src=""img/set1/S2.jpg"" width=""540"" height = ""360"" style=""border:16px solid orange"">","null","","","","","","","",""
"null","","html-keyboard-response","376","879350","0.0-305.0","3B1NLC6UG0IBDCWGT28BPLDX864PGO","A2H1QUGX0SOUMH","3DFYDSXB2WMWAZWJRSN67LWQ0PPJUT","","","null","","","","","","","",""
"null","","image-keyboard-response","377","881855","0.0-306.0","3B1NLC6UG0IBDCWGT28BPLDX864PGO","A2H1QUGX0SOUMH","3DFYDSXB2WMWAZWJRSN67LWQ0PPJUT","","img/set1/S4.jpg","null","4","random","74","false","random,structured_incentive,structured_normal","2,3,1,2","",""
"null","","html-keyboard-response","378","882209","0.0-307.0","3B1NLC6UG0IBDCWGT28BPLDX864PGO","A2H1QUGX0SOUMH","3DFYDSXB2WMWAZWJRSN67LWQ0PPJUT","","<img src=""img/set1/S4.jpg"" width=""540"" height = ""360"">","null","","","","","","","",""
"null","","html-keyboard-response","379","882215","0.0-308.0","3B1NLC6UG0IBDCWGT28BPLDX864PGO","A2H1QUGX0SOUMH","3DFYDSXB2WMWAZWJRSN67LWQ0PPJUT","","","null","","","","","","","",""
"null","","image-keyboard-response","380","884718","0.0-309.0","3B1NLC6UG0IBDCWGT28BPLDX864PGO","A2H1QUGX0SOUMH","3DFYDSXB2WMWAZWJRSN67LWQ0PPJUT","","img/set1/S1.jpg","null","1","random","83","false","random,structured_incentive,structured_normal","2,3,1,2","",""
"null","","html-keyboard-response","381","885071","0.0-310.0","3B1NLC6UG0IBDCWGT28BPLDX864PGO","A2H1QUGX0SOUMH","3DFYDSXB2WMWAZWJRSN67LWQ0PPJUT","","<img src=""img/set1/S1.jpg"" width=""540"" height = ""360"">","null","","","","","","","",""
"null","","html-keyboard-response","382","885079","0.0-311.0","3B1NLC6UG0IBDCWGT28BPLDX864PGO","A2H1QUGX0SOUMH","3DFYDSXB2WMWAZWJRSN67LWQ0PPJUT","","","null","","","","","","","",""
"null","","image-keyboard-response","383","887583","0.0-312.0","3B1NLC6UG0IBDCWGT28BPLDX864PGO","A2H1QUGX0SOUMH","3DFYDSXB2WMWAZWJRSN67LWQ0PPJUT","","img/set1/S3.jpg","null","3","random","72","false","random,structured_incentive,structured_normal","2,3,1,2","",""
"null","","html-keyboard-response","384","887938","0.0-313.0","3B1NLC6UG0IBDCWGT28BPLDX864PGO","A2H1QUGX0SOUMH","3DFYDSXB2WMWAZWJRSN67LWQ0PPJUT","","<img src=""img/set1/S3.jpg"" width=""540"" height = ""360"">","null","","","","","","","",""
"null","","html-keyboard-response","385","887944","0.0-314.0","3B1NLC6UG0IBDCWGT28BPLDX864PGO","A2H1QUGX0SOUMH","3DFYDSXB2WMWAZWJRSN67LWQ0PPJUT","","","null","","","","","","","",""
"1993","","image-keyboard-response","386","889940","0.0-315.0","3B1NLC6UG0IBDCWGT28BPLDX864PGO","A2H1QUGX0SOUMH","3DFYDSXB2WMWAZWJRSN67LWQ0PPJUT","","img/set1/S4.jpg","72","4","random","74","false","random,structured_incentive,structured_normal","2,3,1,2","",""
"null","","html-keyboard-response","387","890294","0.0-316.0","3B1NLC6UG0IBDCWGT28BPLDX864PGO","A2H1QUGX0SOUMH","3DFYDSXB2WMWAZWJRSN67LWQ0PPJUT","","<img src=""img/set1/S4.jpg"" width=""540"" height = ""360"">","null","","","","","","","",""
"null","","html-keyboard-response","388","890299","0.0-317.0","3B1NLC6UG0IBDCWGT28BPLDX864PGO","A2H1QUGX0SOUMH","3DFYDSXB2WMWAZWJRSN67LWQ0PPJUT","","","null","","","","","","","",""
"119.59999996423721","","image-keyboard-response","389","890424","0.0-318.0","3B1NLC6UG0IBDCWGT28BPLDX864PGO","A2H1QUGX0SOUMH","3DFYDSXB2WMWAZWJRSN67LWQ0PPJUT","","img/set1/S3.jpg","68","3","random","72","false","random,structured_incentive,structured_normal","2,3,1,2","",""
"null","","html-keyboard-response","390","890777","0.0-319.0","3B1NLC6UG0IBDCWGT28BPLDX864PGO","A2H1QUGX0SOUMH","3DFYDSXB2WMWAZWJRSN67LWQ0PPJUT","","<img src=""img/set1/S3.jpg"" width=""540"" height = ""360"">","null","","","","","","","",""
"null","","html-keyboard-response","391","890780","0.0-320.0","3B1NLC6UG0IBDCWGT28BPLDX864PGO","A2H1QUGX0SOUMH","3DFYDSXB2WMWAZWJRSN67LWQ0PPJUT","","","null","","","","","","","",""
"476.30000001192093","","image-keyboard-response","392","891259","0.0-321.0","3B1NLC6UG0IBDCWGT28BPLDX864PGO","A2H1QUGX0SOUMH","3DFYDSXB2WMWAZWJRSN67LWQ0PPJUT","","img/set1/S2.jpg","72","2","random","68","false","random,structured_incentive,structured_normal","2,3,1,2","",""
"null","","html-keyboard-response","393","891611","0.0-322.0","3B1NLC6UG0IBDCWGT28BPLDX864PGO","A2H1QUGX0SOUMH","3DFYDSXB2WMWAZWJRSN67LWQ0PPJUT","","<img src=""img/set1/S2.jpg"" width=""540"" height = ""360"">","null","","","","","","","",""
"null","","html-keyboard-response","394","891613","0.0-323.0","3B1NLC6UG0IBDCWGT28BPLDX864PGO","A2H1QUGX0SOUMH","3DFYDSXB2WMWAZWJRSN67LWQ0PPJUT","","","null","","","","","","","",""
"135.10000002384186","","image-keyboard-response","395","891750","0.0-324.0","3B1NLC6UG0IBDCWGT28BPLDX864PGO","A2H1QUGX0SOUMH","3DFYDSXB2WMWAZWJRSN67LWQ0PPJUT","","img/set1/S4.jpg","68","4","random","74","false","random,structured_incentive,structured_normal","2,3,1,2","",""
"null","","html-keyboard-response","396","892103","0.0-325.0","3B1NLC6UG0IBDCWGT28BPLDX864PGO","A2H1QUGX0SOUMH","3DFYDSXB2WMWAZWJRSN67LWQ0PPJUT","","<img src=""img/set1/S4.jpg"" width=""540"" height = ""360"">","null","","","","","","","",""
"null","","html-keyboard-response","397","892107","0.0-326.0","3B1NLC6UG0IBDCWGT28BPLDX864PGO","A2H1QUGX0SOUMH","3DFYDSXB2WMWAZWJRSN67LWQ0PPJUT","","","null","","","","","","","",""
"1822.5","","image-keyboard-response","398","893932","0.0-327.0","3B1NLC6UG0IBDCWGT28BPLDX864PGO","A2H1QUGX0SOUMH","3DFYDSXB2WMWAZWJRSN67LWQ0PPJUT","","img/set1/S1.jpg","68","1","random","83","false","random,structured_incentive,structured_normal","2,3,1,2","",""
"null","","html-keyboard-response","399","894286","0.0-328.0","3B1NLC6UG0IBDCWGT28BPLDX864PGO","A2H1QUGX0SOUMH","3DFYDSXB2WMWAZWJRSN67LWQ0PPJUT","","<img src=""img/set1/S1.jpg"" width=""540"" height = ""360"">","null","","","","","","","",""
"null","","html-keyboard-response","400","894289","0.0-329.0","3B1NLC6UG0IBDCWGT28BPLDX864PGO","A2H1QUGX0SOUMH","3DFYDSXB2WMWAZWJRSN67LWQ0PPJUT","","","null","","","","","","","",""
"171.0999999642372","","image-keyboard-response","401","894463","0.0-330.0","3B1NLC6UG0IBDCWGT28BPLDX864PGO","A2H1QUGX0SOUMH","3DFYDSXB2WMWAZWJRSN67LWQ0PPJUT","","img/set1/S3.jpg","74","3","random","72","false","random,structured_incentive,structured_normal","2,3,1,2","",""
"null","","html-keyboard-response","402","894816","0.0-331.0","3B1NLC6UG0IBDCWGT28BPLDX864PGO","A2H1QUGX0SOUMH","3DFYDSXB2WMWAZWJRSN67LWQ0PPJUT","","<img src=""img/set1/S3.jpg"" width=""540"" height = ""360"">","null","","","","","","","",""
"null","","html-keyboard-response","403","894819","0.0-332.0","3B1NLC6UG0IBDCWGT28BPLDX864PGO","A2H1QUGX0SOUMH","3DFYDSXB2WMWAZWJRSN67LWQ0PPJUT","","","null","","","","","","","",""
"248.69999998807907","","image-keyboard-response","404","895070","0.0-333.0","3B1NLC6UG0IBDCWGT28BPLDX864PGO","A2H1QUGX0SOUMH","3DFYDSXB2WMWAZWJRSN67LWQ0PPJUT","","img/set1/S1.jpg","74","1","random","83","false","random,structured_incentive,structured_normal","2,3,1,2","",""
"null","","html-keyboard-response","405","895424","0.0-334.0","3B1NLC6UG0IBDCWGT28BPLDX864PGO","A2H1QUGX0SOUMH","3DFYDSXB2WMWAZWJRSN67LWQ0PPJUT","","<img src=""img/set1/S1.jpg"" width=""540"" height = ""360"">","null","","","","","","","",""
"null","","html-keyboard-response","406","895428","0.0-335.0","3B1NLC6UG0IBDCWGT28BPLDX864PGO","A2H1QUGX0SOUMH","3DFYDSXB2WMWAZWJRSN67LWQ0PPJUT","","","null","","","","","","","",""
"1153.5","","image-keyboard-response","407","896583","0.0-336.0","3B1NLC6UG0IBDCWGT28BPLDX864PGO","A2H1QUGX0SOUMH","3DFYDSXB2WMWAZWJRSN67LWQ0PPJUT","","img/set1/S4.jpg","74","4","random","74","true","random,structured_incentive,structured_normal","2,3,1,2","",""
"null","","html-keyboard-response","408","896937","0.0-337.0","3B1NLC6UG0IBDCWGT28BPLDX864PGO","A2H1QUGX0SOUMH","3DFYDSXB2WMWAZWJRSN67LWQ0PPJUT","","<img src=""img/set1/S4.jpg"" width=""540"" height = ""360"" style=""border:16px solid orange"">","null","","","","","","","",""
"null","","html-keyboard-response","409","896940","0.0-338.0","3B1NLC6UG0IBDCWGT28BPLDX864PGO","A2H1QUGX0SOUMH","3DFYDSXB2WMWAZWJRSN67LWQ0PPJUT","","","null","","","","","","","",""
"1314.3999999761581","","image-keyboard-response","410","898257","0.0-339.0","3B1NLC6UG0IBDCWGT28BPLDX864PGO","A2H1QUGX0SOUMH","3DFYDSXB2WMWAZWJRSN67LWQ0PPJUT","","img/set1/S1.jpg","68","1","random","83","false","random,structured_incentive,structured_normal","2,3,1,2","",""
"null","","html-keyboard-response","411","898609","0.0-340.0","3B1NLC6UG0IBDCWGT28BPLDX864PGO","A2H1QUGX0SOUMH","3DFYDSXB2WMWAZWJRSN67LWQ0PPJUT","","<img src=""img/set1/S1.jpg"" width=""540"" height = ""360"">","null","","","","","","","",""
"null","","html-keyboard-response","412","898612","0.0-341.0","3B1NLC6UG0IBDCWGT28BPLDX864PGO","A2H1QUGX0SOUMH","3DFYDSXB2WMWAZWJRSN67LWQ0PPJUT","","","null","","","","","","","",""
"749.6999999880791","","image-keyboard-response","413","899364","0.0-342.0","3B1NLC6UG0IBDCWGT28BPLDX864PGO","A2H1QUGX0SOUMH","3DFYDSXB2WMWAZWJRSN67LWQ0PPJUT","","img/set1/S1.jpg","72","1","random","83","false","random,structured_incentive,structured_normal","2,3,1,2","",""
"null","","html-keyboard-response","414","899718","0.0-343.0","3B1NLC6UG0IBDCWGT28BPLDX864PGO","A2H1QUGX0SOUMH","3DFYDSXB2WMWAZWJRSN67LWQ0PPJUT","","<img src=""img/set1/S1.jpg"" width=""540"" height = ""360"">","null","","","","","","","",""
"null","","html-keyboard-response","415","899720","0.0-344.0","3B1NLC6UG0IBDCWGT28BPLDX864PGO","A2H1QUGX0SOUMH","3DFYDSXB2WMWAZWJRSN67LWQ0PPJUT","","","null","","","","","","","",""
"722.1999999880791","","image-keyboard-response","416","900443","0.0-345.0","3B1NLC6UG0IBDCWGT28BPLDX864PGO","A2H1QUGX0SOUMH","3DFYDSXB2WMWAZWJRSN67LWQ0PPJUT","","img/set1/S4.jpg","74","4","random","74","true","random,structured_incentive,structured_normal","2,3,1,2","",""
"null","","html-keyboard-response","417","900798","0.0-346.0","3B1NLC6UG0IBDCWGT28BPLDX864PGO","A2H1QUGX0SOUMH","3DFYDSXB2WMWAZWJRSN67LWQ0PPJUT","","<img src=""img/set1/S4.jpg"" width=""540"" height = ""360"" style=""border:16px solid orange"">","null","","","","","","","",""
"null","","html-keyboard-response","418","900800","0.0-347.0","3B1NLC6UG0IBDCWGT28BPLDX864PGO","A2H1QUGX0SOUMH","3DFYDSXB2WMWAZWJRSN67LWQ0PPJUT","","","null","","","","","","","",""
"1132.1000000238419","","image-keyboard-response","419","901935","0.0-348.0","3B1NLC6UG0IBDCWGT28BPLDX864PGO","A2H1QUGX0SOUMH","3DFYDSXB2WMWAZWJRSN67LWQ0PPJUT","","img/set1/S2.jpg","68","2","random","68","true","random,structured_incentive,structured_normal","2,3,1,2","",""
"null","","html-keyboard-response","420","902288","0.0-349.0","3B1NLC6UG0IBDCWGT28BPLDX864PGO","A2H1QUGX0SOUMH","3DFYDSXB2WMWAZWJRSN67LWQ0PPJUT","","<img src=""img/set1/S2.jpg"" width=""540"" height = ""360"" style=""border:16px solid orange"">","null","","","","","","","",""
"null","","html-keyboard-response","421","902291","0.0-350.0","3B1NLC6UG0IBDCWGT28BPLDX864PGO","A2H1QUGX0SOUMH","3DFYDSXB2WMWAZWJRSN67LWQ0PPJUT","","","null","","","","","","","",""
"1094.3999999761581","","image-keyboard-response","422","903388","0.0-351.0","3B1NLC6UG0IBDCWGT28BPLDX864PGO","A2H1QUGX0SOUMH","3DFYDSXB2WMWAZWJRSN67LWQ0PPJUT","","img/set1/S3.jpg","83","3","random","72","false","random,structured_incentive,structured_normal","2,3,1,2","",""
"null","","html-keyboard-response","423","903743","0.0-352.0","3B1NLC6UG0IBDCWGT28BPLDX864PGO","A2H1QUGX0SOUMH","3DFYDSXB2WMWAZWJRSN67LWQ0PPJUT","","<img src=""img/set1/S3.jpg"" width=""540"" height = ""360"">","null","","","","","","","",""
"null","","html-keyboard-response","424","903746","0.0-353.0","3B1NLC6UG0IBDCWGT28BPLDX864PGO","A2H1QUGX0SOUMH","3DFYDSXB2WMWAZWJRSN67LWQ0PPJUT","","","null","","","","","","","",""
