"rt","url","trial_type","trial_index","time_elapsed","internal_node_id","assignmentID","mturkID","hitID","view_history","stimulus","key_press","state","test_part","correct_response","correct","order_block","order_chunk","bonus","responses"
"23248.10000000149","consent.html","external-html","0","23385","0.0-0.0","38YMOXR4MVLZ0S4BTBDK5O847PQW6A","A2I43BDUPAM00C","33Q5P9PUSP8QOKKNNN5S19YACNVCZX","","","","","","","","","","",""
"168230.3999999985","","instructions","1","191624","0.0-1.0","38YMOXR4MVLZ0S4BTBDK5O847PQW6A","A2I43BDUPAM00C","33Q5P9PUSP8QOKKNNN5S19YACNVCZX","[{""page_index"":0,""viewing_time"":5919.10000000149},{""page_index"":1,""viewing_time"":7155.69999999553},{""page_index"":2,""viewing_time"":17092},{""page_index"":3,""viewing_time"":50537.10000000149},{""page_index"":4,""viewing_time"":46106.60000000149},{""page_index"":5,""viewing_time"":18046.5},{""page_index"":6,""viewing_time"":10329.69999999553},{""page_index"":7,""viewing_time"":13042.5}]","","","","","","","","","",""
"982.6999999955297","","image-keyboard-response","2","192610","0.0-2.0-0.0","38YMOXR4MVLZ0S4BTBDK5O847PQW6A","A2I43BDUPAM00C","33Q5P9PUSP8QOKKNNN5S19YACNVCZX","","img/practice/S4.jpg","74","4","practice","74","true","","","",""
"null","","html-keyboard-response","3","192920","0.0-2.0-1.0","38YMOXR4MVLZ0S4BTBDK5O847PQW6A","A2I43BDUPAM00C","33Q5P9PUSP8QOKKNNN5S19YACNVCZX","","<img src=""img/practice/S4.jpg"" width=""540"" height = ""360"" style=""border:16px solid orange"">","null","","","","","","","",""
"null","","html-keyboard-response","4","192923","0.0-2.0-2.0","38YMOXR4MVLZ0S4BTBDK5O847PQW6A","A2I43BDUPAM00C","33Q5P9PUSP8QOKKNNN5S19YACNVCZX","","","null","","","","","","","",""
"894.3999999985099","","image-keyboard-response","5","193821","0.0-2.0-0.1","38YMOXR4MVLZ0S4BTBDK5O847PQW6A","A2I43BDUPAM00C","33Q5P9PUSP8QOKKNNN5S19YACNVCZX","","img/practice/S1.jpg","72","1","practice","83","false","","","",""
"null","","html-keyboard-response","6","194131","0.0-2.0-1.1","38YMOXR4MVLZ0S4BTBDK5O847PQW6A","A2I43BDUPAM00C","33Q5P9PUSP8QOKKNNN5S19YACNVCZX","","<img src=""img/practice/S1.jpg"" width=""540"" height = ""360"">","null","","","","","","","",""
"null","","html-keyboard-response","7","194136","0.0-2.0-2.1","38YMOXR4MVLZ0S4BTBDK5O847PQW6A","A2I43BDUPAM00C","33Q5P9PUSP8QOKKNNN5S19YACNVCZX","","","null","","","","","","","",""
"56.20000000298023","","image-keyboard-response","8","194195","0.0-2.0-0.2","38YMOXR4MVLZ0S4BTBDK5O847PQW6A","A2I43BDUPAM00C","33Q5P9PUSP8QOKKNNN5S19YACNVCZX","","img/practice/S2.jpg","74","2","practice","68","false","","","",""
"null","","html-keyboard-response","9","194503","0.0-2.0-1.2","38YMOXR4MVLZ0S4BTBDK5O847PQW6A","A2I43BDUPAM00C","33Q5P9PUSP8QOKKNNN5S19YACNVCZX","","<img src=""img/practice/S2.jpg"" width=""540"" height = ""360"">","null","","","","","","","",""
"null","","html-keyboard-response","10","194506","0.0-2.0-2.2","38YMOXR4MVLZ0S4BTBDK5O847PQW6A","A2I43BDUPAM00C","33Q5P9PUSP8QOKKNNN5S19YACNVCZX","","","null","","","","","","","",""
"437","","image-keyboard-response","11","194944","0.0-2.0-0.3","38YMOXR4MVLZ0S4BTBDK5O847PQW6A","A2I43BDUPAM00C","33Q5P9PUSP8QOKKNNN5S19YACNVCZX","","img/practice/S3.jpg","74","3","practice","72","false","","","",""
"null","","html-keyboard-response","12","195253","0.0-2.0-1.3","38YMOXR4MVLZ0S4BTBDK5O847PQW6A","A2I43BDUPAM00C","33Q5P9PUSP8QOKKNNN5S19YACNVCZX","","<img src=""img/practice/S3.jpg"" width=""540"" height = ""360"">","null","","","","","","","",""
"null","","html-keyboard-response","13","195255","0.0-2.0-2.3","38YMOXR4MVLZ0S4BTBDK5O847PQW6A","A2I43BDUPAM00C","33Q5P9PUSP8QOKKNNN5S19YACNVCZX","","","null","","","","","","","",""
"431.5","","image-keyboard-response","14","195689","0.0-2.0-0.4","38YMOXR4MVLZ0S4BTBDK5O847PQW6A","A2I43BDUPAM00C","33Q5P9PUSP8QOKKNNN5S19YACNVCZX","","img/practice/S3.jpg","83","3","practice","72","false","","","",""
"null","","html-keyboard-response","15","196002","0.0-2.0-1.4","38YMOXR4MVLZ0S4BTBDK5O847PQW6A","A2I43BDUPAM00C","33Q5P9PUSP8QOKKNNN5S19YACNVCZX","","<img src=""img/practice/S3.jpg"" width=""540"" height = ""360"">","null","","","","","","","",""
"null","","html-keyboard-response","16","196005","0.0-2.0-2.4","38YMOXR4MVLZ0S4BTBDK5O847PQW6A","A2I43BDUPAM00C","33Q5P9PUSP8QOKKNNN5S19YACNVCZX","","","null","","","","","","","",""
"533.5","","image-keyboard-response","17","196540","0.0-2.0-0.5","38YMOXR4MVLZ0S4BTBDK5O847PQW6A","A2I43BDUPAM00C","33Q5P9PUSP8QOKKNNN5S19YACNVCZX","","img/practice/S4.jpg","68","4","practice","74","false","","","",""
"null","","html-keyboard-response","18","196855","0.0-2.0-1.5","38YMOXR4MVLZ0S4BTBDK5O847PQW6A","A2I43BDUPAM00C","33Q5P9PUSP8QOKKNNN5S19YACNVCZX","","<img src=""img/practice/S4.jpg"" width=""540"" height = ""360"">","null","","","","","","","",""
"null","","html-keyboard-response","19","196858","0.0-2.0-2.5","38YMOXR4MVLZ0S4BTBDK5O847PQW6A","A2I43BDUPAM00C","33Q5P9PUSP8QOKKNNN5S19YACNVCZX","","","null","","","","","","","",""
"438","","image-keyboard-response","20","197298","0.0-2.0-0.6","38YMOXR4MVLZ0S4BTBDK5O847PQW6A","A2I43BDUPAM00C","33Q5P9PUSP8QOKKNNN5S19YACNVCZX","","img/practice/S1.jpg","72","1","practice","83","false","","","",""
"null","","html-keyboard-response","21","197601","0.0-2.0-1.6","38YMOXR4MVLZ0S4BTBDK5O847PQW6A","A2I43BDUPAM00C","33Q5P9PUSP8QOKKNNN5S19YACNVCZX","","<img src=""img/practice/S1.jpg"" width=""540"" height = ""360"">","null","","","","","","","",""
"null","","html-keyboard-response","22","197604","0.0-2.0-2.6","38YMOXR4MVLZ0S4BTBDK5O847PQW6A","A2I43BDUPAM00C","33Q5P9PUSP8QOKKNNN5S19YACNVCZX","","","null","","","","","","","",""
"481.6000000014901","","image-keyboard-response","23","198087","0.0-2.0-0.7","38YMOXR4MVLZ0S4BTBDK5O847PQW6A","A2I43BDUPAM00C","33Q5P9PUSP8QOKKNNN5S19YACNVCZX","","img/practice/S2.jpg","74","2","practice","68","false","","","",""
"null","","html-keyboard-response","24","198403","0.0-2.0-1.7","38YMOXR4MVLZ0S4BTBDK5O847PQW6A","A2I43BDUPAM00C","33Q5P9PUSP8QOKKNNN5S19YACNVCZX","","<img src=""img/practice/S2.jpg"" width=""540"" height = ""360"">","null","","","","","","","",""
"null","","html-keyboard-response","25","198405","0.0-2.0-2.7","38YMOXR4MVLZ0S4BTBDK5O847PQW6A","A2I43BDUPAM00C","33Q5P9PUSP8QOKKNNN5S19YACNVCZX","","","null","","","","","","","",""
"457.80000000447035","","image-keyboard-response","26","198864","0.0-2.0-0.8","38YMOXR4MVLZ0S4BTBDK5O847PQW6A","A2I43BDUPAM00C","33Q5P9PUSP8QOKKNNN5S19YACNVCZX","","img/practice/S1.jpg","72","1","practice","83","false","","","",""
"null","","html-keyboard-response","27","199184","0.0-2.0-1.8","38YMOXR4MVLZ0S4BTBDK5O847PQW6A","A2I43BDUPAM00C","33Q5P9PUSP8QOKKNNN5S19YACNVCZX","","<img src=""img/practice/S1.jpg"" width=""540"" height = ""360"">","null","","","","","","","",""
"null","","html-keyboard-response","28","199186","0.0-2.0-2.8","38YMOXR4MVLZ0S4BTBDK5O847PQW6A","A2I43BDUPAM00C","33Q5P9PUSP8QOKKNNN5S19YACNVCZX","","","null","","","","","","","",""
"427.5","","image-keyboard-response","29","199616","0.0-2.0-0.9","38YMOXR4MVLZ0S4BTBDK5O847PQW6A","A2I43BDUPAM00C","33Q5P9PUSP8QOKKNNN5S19YACNVCZX","","img/practice/S3.jpg","68","3","practice","72","false","","","",""
"null","","html-keyboard-response","30","199919","0.0-2.0-1.9","38YMOXR4MVLZ0S4BTBDK5O847PQW6A","A2I43BDUPAM00C","33Q5P9PUSP8QOKKNNN5S19YACNVCZX","","<img src=""img/practice/S3.jpg"" width=""540"" height = ""360"">","null","","","","","","","",""
"null","","html-keyboard-response","31","199921","0.0-2.0-2.9","38YMOXR4MVLZ0S4BTBDK5O847PQW6A","A2I43BDUPAM00C","33Q5P9PUSP8QOKKNNN5S19YACNVCZX","","","null","","","","","","","",""
"387.19999999552965","","image-keyboard-response","32","200310","0.0-2.0-0.10","38YMOXR4MVLZ0S4BTBDK5O847PQW6A","A2I43BDUPAM00C","33Q5P9PUSP8QOKKNNN5S19YACNVCZX","","img/practice/S4.jpg","83","4","practice","74","false","","","",""
"null","","html-keyboard-response","33","200626","0.0-2.0-1.10","38YMOXR4MVLZ0S4BTBDK5O847PQW6A","A2I43BDUPAM00C","33Q5P9PUSP8QOKKNNN5S19YACNVCZX","","<img src=""img/practice/S4.jpg"" width=""540"" height = ""360"">","null","","","","","","","",""
"null","","html-keyboard-response","34","200629","0.0-2.0-2.10","38YMOXR4MVLZ0S4BTBDK5O847PQW6A","A2I43BDUPAM00C","33Q5P9PUSP8QOKKNNN5S19YACNVCZX","","","null","","","","","","","",""
"457.30000000447035","","image-keyboard-response","35","201088","0.0-2.0-0.11","38YMOXR4MVLZ0S4BTBDK5O847PQW6A","A2I43BDUPAM00C","33Q5P9PUSP8QOKKNNN5S19YACNVCZX","","img/practice/S2.jpg","68","2","practice","68","true","","","",""
"null","","html-keyboard-response","36","201401","0.0-2.0-1.11","38YMOXR4MVLZ0S4BTBDK5O847PQW6A","A2I43BDUPAM00C","33Q5P9PUSP8QOKKNNN5S19YACNVCZX","","<img src=""img/practice/S2.jpg"" width=""540"" height = ""360"" style=""border:16px solid orange"">","null","","","","","","","",""
"null","","html-keyboard-response","37","201403","0.0-2.0-2.11","38YMOXR4MVLZ0S4BTBDK5O847PQW6A","A2I43BDUPAM00C","33Q5P9PUSP8QOKKNNN5S19YACNVCZX","","","null","","","","","","","",""
"1208","","image-keyboard-response","38","202613","0.0-2.0-0.12","38YMOXR4MVLZ0S4BTBDK5O847PQW6A","A2I43BDUPAM00C","33Q5P9PUSP8QOKKNNN5S19YACNVCZX","","img/practice/S2.jpg","68","2","practice","68","true","","","",""
"null","","html-keyboard-response","39","202929","0.0-2.0-1.12","38YMOXR4MVLZ0S4BTBDK5O847PQW6A","A2I43BDUPAM00C","33Q5P9PUSP8QOKKNNN5S19YACNVCZX","","<img src=""img/practice/S2.jpg"" width=""540"" height = ""360"" style=""border:16px solid orange"">","null","","","","","","","",""
"null","","html-keyboard-response","40","202932","0.0-2.0-2.12","38YMOXR4MVLZ0S4BTBDK5O847PQW6A","A2I43BDUPAM00C","33Q5P9PUSP8QOKKNNN5S19YACNVCZX","","","null","","","","","","","",""
"602.3000000044703","","image-keyboard-response","41","203536","0.0-2.0-0.13","38YMOXR4MVLZ0S4BTBDK5O847PQW6A","A2I43BDUPAM00C","33Q5P9PUSP8QOKKNNN5S19YACNVCZX","","img/practice/S3.jpg","68","3","practice","72","false","","","",""
"null","","html-keyboard-response","42","203852","0.0-2.0-1.13","38YMOXR4MVLZ0S4BTBDK5O847PQW6A","A2I43BDUPAM00C","33Q5P9PUSP8QOKKNNN5S19YACNVCZX","","<img src=""img/practice/S3.jpg"" width=""540"" height = ""360"">","null","","","","","","","",""
"null","","html-keyboard-response","43","203854","0.0-2.0-2.13","38YMOXR4MVLZ0S4BTBDK5O847PQW6A","A2I43BDUPAM00C","33Q5P9PUSP8QOKKNNN5S19YACNVCZX","","","null","","","","","","","",""
"124.79999999701977","","image-keyboard-response","44","203981","0.0-2.0-0.14","38YMOXR4MVLZ0S4BTBDK5O847PQW6A","A2I43BDUPAM00C","33Q5P9PUSP8QOKKNNN5S19YACNVCZX","","img/practice/S4.jpg","72","4","practice","74","false","","","",""
"null","","html-keyboard-response","45","204295","0.0-2.0-1.14","38YMOXR4MVLZ0S4BTBDK5O847PQW6A","A2I43BDUPAM00C","33Q5P9PUSP8QOKKNNN5S19YACNVCZX","","<img src=""img/practice/S4.jpg"" width=""540"" height = ""360"">","null","","","","","","","",""
"null","","html-keyboard-response","46","204297","0.0-2.0-2.14","38YMOXR4MVLZ0S4BTBDK5O847PQW6A","A2I43BDUPAM00C","33Q5P9PUSP8QOKKNNN5S19YACNVCZX","","","null","","","","","","","",""
"736.5","","image-keyboard-response","47","205036","0.0-2.0-0.15","38YMOXR4MVLZ0S4BTBDK5O847PQW6A","A2I43BDUPAM00C","33Q5P9PUSP8QOKKNNN5S19YACNVCZX","","img/practice/S1.jpg","72","1","practice","83","false","","","",""
"null","","html-keyboard-response","48","205344","0.0-2.0-1.15","38YMOXR4MVLZ0S4BTBDK5O847PQW6A","A2I43BDUPAM00C","33Q5P9PUSP8QOKKNNN5S19YACNVCZX","","<img src=""img/practice/S1.jpg"" width=""540"" height = ""360"">","null","","","","","","","",""
"null","","html-keyboard-response","49","205356","0.0-2.0-2.15","38YMOXR4MVLZ0S4BTBDK5O847PQW6A","A2I43BDUPAM00C","33Q5P9PUSP8QOKKNNN5S19YACNVCZX","","","null","","","","","","","",""
"415.8999999985099","","image-keyboard-response","50","205774","0.0-2.0-0.16","38YMOXR4MVLZ0S4BTBDK5O847PQW6A","A2I43BDUPAM00C","33Q5P9PUSP8QOKKNNN5S19YACNVCZX","","img/practice/S3.jpg","72","3","practice","72","true","","","",""
"null","","html-keyboard-response","51","206078","0.0-2.0-1.16","38YMOXR4MVLZ0S4BTBDK5O847PQW6A","A2I43BDUPAM00C","33Q5P9PUSP8QOKKNNN5S19YACNVCZX","","<img src=""img/practice/S3.jpg"" width=""540"" height = ""360"" style=""border:16px solid orange"">","null","","","","","","","",""
"null","","html-keyboard-response","52","206080","0.0-2.0-2.16","38YMOXR4MVLZ0S4BTBDK5O847PQW6A","A2I43BDUPAM00C","33Q5P9PUSP8QOKKNNN5S19YACNVCZX","","","null","","","","","","","",""
"706.1999999955297","","image-keyboard-response","53","206788","0.0-2.0-0.17","38YMOXR4MVLZ0S4BTBDK5O847PQW6A","A2I43BDUPAM00C","33Q5P9PUSP8QOKKNNN5S19YACNVCZX","","img/practice/S1.jpg","72","1","practice","83","false","","","",""
"null","","html-keyboard-response","54","207107","0.0-2.0-1.17","38YMOXR4MVLZ0S4BTBDK5O847PQW6A","A2I43BDUPAM00C","33Q5P9PUSP8QOKKNNN5S19YACNVCZX","","<img src=""img/practice/S1.jpg"" width=""540"" height = ""360"">","null","","","","","","","",""
"null","","html-keyboard-response","55","207110","0.0-2.0-2.17","38YMOXR4MVLZ0S4BTBDK5O847PQW6A","A2I43BDUPAM00C","33Q5P9PUSP8QOKKNNN5S19YACNVCZX","","","null","","","","","","","",""
"343.80000000447035","","image-keyboard-response","56","207455","0.0-2.0-0.18","38YMOXR4MVLZ0S4BTBDK5O847PQW6A","A2I43BDUPAM00C","33Q5P9PUSP8QOKKNNN5S19YACNVCZX","","img/practice/S4.jpg","72","4","practice","74","false","","","",""
"null","","html-keyboard-response","57","207766","0.0-2.0-1.18","38YMOXR4MVLZ0S4BTBDK5O847PQW6A","A2I43BDUPAM00C","33Q5P9PUSP8QOKKNNN5S19YACNVCZX","","<img src=""img/practice/S4.jpg"" width=""540"" height = ""360"">","null","","","","","","","",""
"null","","html-keyboard-response","58","207769","0.0-2.0-2.18","38YMOXR4MVLZ0S4BTBDK5O847PQW6A","A2I43BDUPAM00C","33Q5P9PUSP8QOKKNNN5S19YACNVCZX","","","null","","","","","","","",""
"396","","image-keyboard-response","59","208166","0.0-2.0-0.19","38YMOXR4MVLZ0S4BTBDK5O847PQW6A","A2I43BDUPAM00C","33Q5P9PUSP8QOKKNNN5S19YACNVCZX","","img/practice/S2.jpg","74","2","practice","68","false","","","",""
"null","","html-keyboard-response","60","208477","0.0-2.0-1.19","38YMOXR4MVLZ0S4BTBDK5O847PQW6A","A2I43BDUPAM00C","33Q5P9PUSP8QOKKNNN5S19YACNVCZX","","<img src=""img/practice/S2.jpg"" width=""540"" height = ""360"">","null","","","","","","","",""
"null","","html-keyboard-response","61","208479","0.0-2.0-2.19","38YMOXR4MVLZ0S4BTBDK5O847PQW6A","A2I43BDUPAM00C","33Q5P9PUSP8QOKKNNN5S19YACNVCZX","","","null","","","","","","","",""
"165.39999999850988","","image-keyboard-response","62","208647","0.0-2.0-0.20","38YMOXR4MVLZ0S4BTBDK5O847PQW6A","A2I43BDUPAM00C","33Q5P9PUSP8QOKKNNN5S19YACNVCZX","","img/practice/S3.jpg","72","3","practice","72","true","","","",""
"null","","html-keyboard-response","63","208966","0.0-2.0-1.20","38YMOXR4MVLZ0S4BTBDK5O847PQW6A","A2I43BDUPAM00C","33Q5P9PUSP8QOKKNNN5S19YACNVCZX","","<img src=""img/practice/S3.jpg"" width=""540"" height = ""360"" style=""border:16px solid orange"">","null","","","","","","","",""
"null","","html-keyboard-response","64","208968","0.0-2.0-2.20","38YMOXR4MVLZ0S4BTBDK5O847PQW6A","A2I43BDUPAM00C","33Q5P9PUSP8QOKKNNN5S19YACNVCZX","","","null","","","","","","","",""
"560","","image-keyboard-response","65","209530","0.0-2.0-0.21","38YMOXR4MVLZ0S4BTBDK5O847PQW6A","A2I43BDUPAM00C","33Q5P9PUSP8QOKKNNN5S19YACNVCZX","","img/practice/S2.jpg","68","2","practice","68","true","","","",""
"null","","html-keyboard-response","66","209833","0.0-2.0-1.21","38YMOXR4MVLZ0S4BTBDK5O847PQW6A","A2I43BDUPAM00C","33Q5P9PUSP8QOKKNNN5S19YACNVCZX","","<img src=""img/practice/S2.jpg"" width=""540"" height = ""360"" style=""border:16px solid orange"">","null","","","","","","","",""
"null","","html-keyboard-response","67","209835","0.0-2.0-2.21","38YMOXR4MVLZ0S4BTBDK5O847PQW6A","A2I43BDUPAM00C","33Q5P9PUSP8QOKKNNN5S19YACNVCZX","","","null","","","","","","","",""
"575.0999999940395","","image-keyboard-response","68","210412","0.0-2.0-0.22","38YMOXR4MVLZ0S4BTBDK5O847PQW6A","A2I43BDUPAM00C","33Q5P9PUSP8QOKKNNN5S19YACNVCZX","","img/practice/S4.jpg","83","4","practice","74","false","","","",""
"null","","html-keyboard-response","69","210723","0.0-2.0-1.22","38YMOXR4MVLZ0S4BTBDK5O847PQW6A","A2I43BDUPAM00C","33Q5P9PUSP8QOKKNNN5S19YACNVCZX","","<img src=""img/practice/S4.jpg"" width=""540"" height = ""360"">","null","","","","","","","",""
"null","","html-keyboard-response","70","210727","0.0-2.0-2.22","38YMOXR4MVLZ0S4BTBDK5O847PQW6A","A2I43BDUPAM00C","33Q5P9PUSP8QOKKNNN5S19YACNVCZX","","","null","","","","","","","",""
"966.7000000029802","","image-keyboard-response","71","211696","0.0-2.0-0.23","38YMOXR4MVLZ0S4BTBDK5O847PQW6A","A2I43BDUPAM00C","33Q5P9PUSP8QOKKNNN5S19YACNVCZX","","img/practice/S1.jpg","83","1","practice","83","true","","","",""
"null","","html-keyboard-response","72","212004","0.0-2.0-1.23","38YMOXR4MVLZ0S4BTBDK5O847PQW6A","A2I43BDUPAM00C","33Q5P9PUSP8QOKKNNN5S19YACNVCZX","","<img src=""img/practice/S1.jpg"" width=""540"" height = ""360"" style=""border:16px solid orange"">","null","","","","","","","",""
"null","","html-keyboard-response","73","212006","0.0-2.0-2.23","38YMOXR4MVLZ0S4BTBDK5O847PQW6A","A2I43BDUPAM00C","33Q5P9PUSP8QOKKNNN5S19YACNVCZX","","","null","","","","","","","",""
"4652.39999999851","","instructions","74","216660","0.0-3.0","38YMOXR4MVLZ0S4BTBDK5O847PQW6A","A2I43BDUPAM00C","33Q5P9PUSP8QOKKNNN5S19YACNVCZX","[{""page_index"":0,""viewing_time"":4652.10000000149}]","","","","","","","","","",""
"29964.29999999702","","instructions","75","246626","0.0-4.0","38YMOXR4MVLZ0S4BTBDK5O847PQW6A","A2I43BDUPAM00C","33Q5P9PUSP8QOKKNNN5S19YACNVCZX","[{""page_index"":0,""viewing_time"":29963.89999999851}]","","","","","","","","","",""
"5041.60000000149","","instructions","76","251669","0.0-5.0","38YMOXR4MVLZ0S4BTBDK5O847PQW6A","A2I43BDUPAM00C","33Q5P9PUSP8QOKKNNN5S19YACNVCZX","[{""page_index"":0,""viewing_time"":5041.30000000447}]","","","","","","","","","",""
"743.1000000014901","","image-keyboard-response","77","252414","0.0-6.0","38YMOXR4MVLZ0S4BTBDK5O847PQW6A","A2I43BDUPAM00C","33Q5P9PUSP8QOKKNNN5S19YACNVCZX","","img/set1/S1.jpg","72","1","structured_normal","83","false","structured_normal,random,structured_incentive","1,2,2,3","",""
"null","","html-keyboard-response","78","252774","0.0-7.0","38YMOXR4MVLZ0S4BTBDK5O847PQW6A","A2I43BDUPAM00C","33Q5P9PUSP8QOKKNNN5S19YACNVCZX","","<img src=""img/set1/S1.jpg"" width=""540"" height = ""360"">","null","","","","","","","",""
"null","","html-keyboard-response","79","252776","0.0-8.0","38YMOXR4MVLZ0S4BTBDK5O847PQW6A","A2I43BDUPAM00C","33Q5P9PUSP8QOKKNNN5S19YACNVCZX","","","null","","","","","","","",""
"449.3999999985099","","image-keyboard-response","80","253227","0.0-9.0","38YMOXR4MVLZ0S4BTBDK5O847PQW6A","A2I43BDUPAM00C","33Q5P9PUSP8QOKKNNN5S19YACNVCZX","","img/set1/S2.jpg","68","2","structured_normal","68","true","structured_normal,random,structured_incentive","1,2,2,3","",""
"null","","html-keyboard-response","81","253583","0.0-10.0","38YMOXR4MVLZ0S4BTBDK5O847PQW6A","A2I43BDUPAM00C","33Q5P9PUSP8QOKKNNN5S19YACNVCZX","","<img src=""img/set1/S2.jpg"" width=""540"" height = ""360"" style=""border:16px solid orange"">","null","","","","","","","",""
"null","","html-keyboard-response","82","253585","0.0-11.0","38YMOXR4MVLZ0S4BTBDK5O847PQW6A","A2I43BDUPAM00C","33Q5P9PUSP8QOKKNNN5S19YACNVCZX","","","null","","","","","","","",""
"448.1000000014901","","image-keyboard-response","83","254035","0.0-12.0","38YMOXR4MVLZ0S4BTBDK5O847PQW6A","A2I43BDUPAM00C","33Q5P9PUSP8QOKKNNN5S19YACNVCZX","","img/set1/S4.jpg","83","4","structured_normal","74","false","structured_normal,random,structured_incentive","1,2,2,3","",""
"null","","html-keyboard-response","84","254393","0.0-13.0","38YMOXR4MVLZ0S4BTBDK5O847PQW6A","A2I43BDUPAM00C","33Q5P9PUSP8QOKKNNN5S19YACNVCZX","","<img src=""img/set1/S4.jpg"" width=""540"" height = ""360"">","null","","","","","","","",""
"null","","html-keyboard-response","85","254395","0.0-14.0","38YMOXR4MVLZ0S4BTBDK5O847PQW6A","A2I43BDUPAM00C","33Q5P9PUSP8QOKKNNN5S19YACNVCZX","","","null","","","","","","","",""
"288.79999999701977","","image-keyboard-response","86","254686","0.0-15.0","38YMOXR4MVLZ0S4BTBDK5O847PQW6A","A2I43BDUPAM00C","33Q5P9PUSP8QOKKNNN5S19YACNVCZX","","img/set1/S1.jpg","68","1","structured_normal","83","false","structured_normal,random,structured_incentive","1,2,2,3","",""
"null","","html-keyboard-response","87","255049","0.0-16.0","38YMOXR4MVLZ0S4BTBDK5O847PQW6A","A2I43BDUPAM00C","33Q5P9PUSP8QOKKNNN5S19YACNVCZX","","<img src=""img/set1/S1.jpg"" width=""540"" height = ""360"">","null","","","","","","","",""
"null","","html-keyboard-response","88","255051","0.0-17.0","38YMOXR4MVLZ0S4BTBDK5O847PQW6A","A2I43BDUPAM00C","33Q5P9PUSP8QOKKNNN5S19YACNVCZX","","","null","","","","","","","",""
"144.39999999850988","","image-keyboard-response","89","255197","0.0-18.0","38YMOXR4MVLZ0S4BTBDK5O847PQW6A","A2I43BDUPAM00C","33Q5P9PUSP8QOKKNNN5S19YACNVCZX","","img/set1/S2.jpg","68","2","structured_normal","68","true","structured_normal,random,structured_incentive","1,2,2,3","",""
"null","","html-keyboard-response","90","255553","0.0-19.0","38YMOXR4MVLZ0S4BTBDK5O847PQW6A","A2I43BDUPAM00C","33Q5P9PUSP8QOKKNNN5S19YACNVCZX","","<img src=""img/set1/S2.jpg"" width=""540"" height = ""360"" style=""border:16px solid orange"">","null","","","","","","","",""
"null","","html-keyboard-response","91","255555","0.0-20.0","38YMOXR4MVLZ0S4BTBDK5O847PQW6A","A2I43BDUPAM00C","33Q5P9PUSP8QOKKNNN5S19YACNVCZX","","","null","","","","","","","",""
"583.8999999985099","","image-keyboard-response","92","256140","0.0-21.0","38YMOXR4MVLZ0S4BTBDK5O847PQW6A","A2I43BDUPAM00C","33Q5P9PUSP8QOKKNNN5S19YACNVCZX","","img/set1/S3.jpg","68","3","structured_normal","72","false","structured_normal,random,structured_incentive","1,2,2,3","",""
"null","","html-keyboard-response","93","256496","0.0-22.0","38YMOXR4MVLZ0S4BTBDK5O847PQW6A","A2I43BDUPAM00C","33Q5P9PUSP8QOKKNNN5S19YACNVCZX","","<img src=""img/set1/S3.jpg"" width=""540"" height = ""360"">","null","","","","","","","",""
"null","","html-keyboard-response","94","256498","0.0-23.0","38YMOXR4MVLZ0S4BTBDK5O847PQW6A","A2I43BDUPAM00C","33Q5P9PUSP8QOKKNNN5S19YACNVCZX","","","null","","","","","","","",""
"360.79999999701977","","image-keyboard-response","95","256860","0.0-24.0","38YMOXR4MVLZ0S4BTBDK5O847PQW6A","A2I43BDUPAM00C","33Q5P9PUSP8QOKKNNN5S19YACNVCZX","","img/set1/S4.jpg","68","4","structured_normal","74","false","structured_normal,random,structured_incentive","1,2,2,3","",""
"null","","html-keyboard-response","96","257218","0.0-25.0","38YMOXR4MVLZ0S4BTBDK5O847PQW6A","A2I43BDUPAM00C","33Q5P9PUSP8QOKKNNN5S19YACNVCZX","","<img src=""img/set1/S4.jpg"" width=""540"" height = ""360"">","null","","","","","","","",""
"null","","html-keyboard-response","97","257220","0.0-26.0","38YMOXR4MVLZ0S4BTBDK5O847PQW6A","A2I43BDUPAM00C","33Q5P9PUSP8QOKKNNN5S19YACNVCZX","","","null","","","","","","","",""
"76.69999999552965","","image-keyboard-response","98","257299","0.0-27.0","38YMOXR4MVLZ0S4BTBDK5O847PQW6A","A2I43BDUPAM00C","33Q5P9PUSP8QOKKNNN5S19YACNVCZX","","img/set1/S4.jpg","72","4","structured_normal","74","false","structured_normal,random,structured_incentive","1,2,2,3","",""
"null","","html-keyboard-response","99","257653","0.0-28.0","38YMOXR4MVLZ0S4BTBDK5O847PQW6A","A2I43BDUPAM00C","33Q5P9PUSP8QOKKNNN5S19YACNVCZX","","<img src=""img/set1/S4.jpg"" width=""540"" height = ""360"">","null","","","","","","","",""
"null","","html-keyboard-response","100","257655","0.0-29.0","38YMOXR4MVLZ0S4BTBDK5O847PQW6A","A2I43BDUPAM00C","33Q5P9PUSP8QOKKNNN5S19YACNVCZX","","","null","","","","","","","",""
"354.5","","image-keyboard-response","101","258011","0.0-30.0","38YMOXR4MVLZ0S4BTBDK5O847PQW6A","A2I43BDUPAM00C","33Q5P9PUSP8QOKKNNN5S19YACNVCZX","","img/set1/S4.jpg","72","4","structured_normal","74","false","structured_normal,random,structured_incentive","1,2,2,3","",""
"null","","html-keyboard-response","102","258367","0.0-31.0","38YMOXR4MVLZ0S4BTBDK5O847PQW6A","A2I43BDUPAM00C","33Q5P9PUSP8QOKKNNN5S19YACNVCZX","","<img src=""img/set1/S4.jpg"" width=""540"" height = ""360"">","null","","","","","","","",""
"null","","html-keyboard-response","103","258370","0.0-32.0","38YMOXR4MVLZ0S4BTBDK5O847PQW6A","A2I43BDUPAM00C","33Q5P9PUSP8QOKKNNN5S19YACNVCZX","","","null","","","","","","","",""
"488.19999999552965","","image-keyboard-response","104","258860","0.0-33.0","38YMOXR4MVLZ0S4BTBDK5O847PQW6A","A2I43BDUPAM00C","33Q5P9PUSP8QOKKNNN5S19YACNVCZX","","img/set1/S1.jpg","83","1","structured_normal","83","true","structured_normal,random,structured_incentive","1,2,2,3","",""
"null","","html-keyboard-response","105","259215","0.0-34.0","38YMOXR4MVLZ0S4BTBDK5O847PQW6A","A2I43BDUPAM00C","33Q5P9PUSP8QOKKNNN5S19YACNVCZX","","<img src=""img/set1/S1.jpg"" width=""540"" height = ""360"" style=""border:16px solid orange"">","null","","","","","","","",""
"null","","html-keyboard-response","106","259217","0.0-35.0","38YMOXR4MVLZ0S4BTBDK5O847PQW6A","A2I43BDUPAM00C","33Q5P9PUSP8QOKKNNN5S19YACNVCZX","","","null","","","","","","","",""
"461.5","","image-keyboard-response","107","259681","0.0-36.0","38YMOXR4MVLZ0S4BTBDK5O847PQW6A","A2I43BDUPAM00C","33Q5P9PUSP8QOKKNNN5S19YACNVCZX","","img/set1/S3.jpg","68","3","structured_normal","72","false","structured_normal,random,structured_incentive","1,2,2,3","",""
"null","","html-keyboard-response","108","260049","0.0-37.0","38YMOXR4MVLZ0S4BTBDK5O847PQW6A","A2I43BDUPAM00C","33Q5P9PUSP8QOKKNNN5S19YACNVCZX","","<img src=""img/set1/S3.jpg"" width=""540"" height = ""360"">","null","","","","","","","",""
"null","","html-keyboard-response","109","260061","0.0-38.0","38YMOXR4MVLZ0S4BTBDK5O847PQW6A","A2I43BDUPAM00C","33Q5P9PUSP8QOKKNNN5S19YACNVCZX","","","null","","","","","","","",""
"284","","image-keyboard-response","110","260347","0.0-39.0","38YMOXR4MVLZ0S4BTBDK5O847PQW6A","A2I43BDUPAM00C","33Q5P9PUSP8QOKKNNN5S19YACNVCZX","","img/set1/S4.jpg","83","4","structured_normal","74","false","structured_normal,random,structured_incentive","1,2,2,3","",""
"null","","html-keyboard-response","111","260701","0.0-40.0","38YMOXR4MVLZ0S4BTBDK5O847PQW6A","A2I43BDUPAM00C","33Q5P9PUSP8QOKKNNN5S19YACNVCZX","","<img src=""img/set1/S4.jpg"" width=""540"" height = ""360"">","null","","","","","","","",""
"null","","html-keyboard-response","112","260703","0.0-41.0","38YMOXR4MVLZ0S4BTBDK5O847PQW6A","A2I43BDUPAM00C","33Q5P9PUSP8QOKKNNN5S19YACNVCZX","","","null","","","","","","","",""
"26.399999998509884","","image-keyboard-response","113","260731","0.0-42.0","38YMOXR4MVLZ0S4BTBDK5O847PQW6A","A2I43BDUPAM00C","33Q5P9PUSP8QOKKNNN5S19YACNVCZX","","img/set1/S1.jpg","68","1","structured_normal","83","false","structured_normal,random,structured_incentive","1,2,2,3","",""
"null","","html-keyboard-response","114","261097","0.0-43.0","38YMOXR4MVLZ0S4BTBDK5O847PQW6A","A2I43BDUPAM00C","33Q5P9PUSP8QOKKNNN5S19YACNVCZX","","<img src=""img/set1/S1.jpg"" width=""540"" height = ""360"">","null","","","","","","","",""
"null","","html-keyboard-response","115","261099","0.0-44.0","38YMOXR4MVLZ0S4BTBDK5O847PQW6A","A2I43BDUPAM00C","33Q5P9PUSP8QOKKNNN5S19YACNVCZX","","","null","","","","","","","",""
"518.5","","image-keyboard-response","116","261619","0.0-45.0","38YMOXR4MVLZ0S4BTBDK5O847PQW6A","A2I43BDUPAM00C","33Q5P9PUSP8QOKKNNN5S19YACNVCZX","","img/set1/S2.jpg","83","2","structured_normal","68","false","structured_normal,random,structured_incentive","1,2,2,3","",""
"null","","html-keyboard-response","117","261978","0.0-46.0","38YMOXR4MVLZ0S4BTBDK5O847PQW6A","A2I43BDUPAM00C","33Q5P9PUSP8QOKKNNN5S19YACNVCZX","","<img src=""img/set1/S2.jpg"" width=""540"" height = ""360"">","null","","","","","","","",""
"null","","html-keyboard-response","118","261981","0.0-47.0","38YMOXR4MVLZ0S4BTBDK5O847PQW6A","A2I43BDUPAM00C","33Q5P9PUSP8QOKKNNN5S19YACNVCZX","","","null","","","","","","","",""
"548.5","","image-keyboard-response","119","262531","0.0-48.0","38YMOXR4MVLZ0S4BTBDK5O847PQW6A","A2I43BDUPAM00C","33Q5P9PUSP8QOKKNNN5S19YACNVCZX","","img/set1/S4.jpg","83","4","structured_normal","74","false","structured_normal,random,structured_incentive","1,2,2,3","",""
"null","","html-keyboard-response","120","262887","0.0-49.0","38YMOXR4MVLZ0S4BTBDK5O847PQW6A","A2I43BDUPAM00C","33Q5P9PUSP8QOKKNNN5S19YACNVCZX","","<img src=""img/set1/S4.jpg"" width=""540"" height = ""360"">","null","","","","","","","",""
"null","","html-keyboard-response","121","262890","0.0-50.0","38YMOXR4MVLZ0S4BTBDK5O847PQW6A","A2I43BDUPAM00C","33Q5P9PUSP8QOKKNNN5S19YACNVCZX","","","null","","","","","","","",""
"598.8999999985099","","image-keyboard-response","122","263491","0.0-51.0","38YMOXR4MVLZ0S4BTBDK5O847PQW6A","A2I43BDUPAM00C","33Q5P9PUSP8QOKKNNN5S19YACNVCZX","","img/set1/S1.jpg","68","1","structured_normal","83","false","structured_normal,random,structured_incentive","1,2,2,3","",""
"null","","html-keyboard-response","123","263854","0.0-52.0","38YMOXR4MVLZ0S4BTBDK5O847PQW6A","A2I43BDUPAM00C","33Q5P9PUSP8QOKKNNN5S19YACNVCZX","","<img src=""img/set1/S1.jpg"" width=""540"" height = ""360"">","null","","","","","","","",""
"null","","html-keyboard-response","124","263857","0.0-53.0","38YMOXR4MVLZ0S4BTBDK5O847PQW6A","A2I43BDUPAM00C","33Q5P9PUSP8QOKKNNN5S19YACNVCZX","","","null","","","","","","","",""
"363.70000000298023","","image-keyboard-response","125","264222","0.0-54.0","38YMOXR4MVLZ0S4BTBDK5O847PQW6A","A2I43BDUPAM00C","33Q5P9PUSP8QOKKNNN5S19YACNVCZX","","img/set1/S2.jpg","68","2","structured_normal","68","true","structured_normal,random,structured_incentive","1,2,2,3","",""
"null","","html-keyboard-response","126","264576","0.0-55.0","38YMOXR4MVLZ0S4BTBDK5O847PQW6A","A2I43BDUPAM00C","33Q5P9PUSP8QOKKNNN5S19YACNVCZX","","<img src=""img/set1/S2.jpg"" width=""540"" height = ""360"" style=""border:16px solid orange"">","null","","","","","","","",""
"null","","html-keyboard-response","127","264578","0.0-56.0","38YMOXR4MVLZ0S4BTBDK5O847PQW6A","A2I43BDUPAM00C","33Q5P9PUSP8QOKKNNN5S19YACNVCZX","","","null","","","","","","","",""
"547.8999999985099","","image-keyboard-response","128","265127","0.0-57.0","38YMOXR4MVLZ0S4BTBDK5O847PQW6A","A2I43BDUPAM00C","33Q5P9PUSP8QOKKNNN5S19YACNVCZX","","img/set1/S1.jpg","74","1","structured_normal","83","false","structured_normal,random,structured_incentive","1,2,2,3","",""
"null","","html-keyboard-response","129","265481","0.0-58.0","38YMOXR4MVLZ0S4BTBDK5O847PQW6A","A2I43BDUPAM00C","33Q5P9PUSP8QOKKNNN5S19YACNVCZX","","<img src=""img/set1/S1.jpg"" width=""540"" height = ""360"">","null","","","","","","","",""
"null","","html-keyboard-response","130","265483","0.0-59.0","38YMOXR4MVLZ0S4BTBDK5O847PQW6A","A2I43BDUPAM00C","33Q5P9PUSP8QOKKNNN5S19YACNVCZX","","","null","","","","","","","",""
"736.5","","image-keyboard-response","131","266221","0.0-60.0","38YMOXR4MVLZ0S4BTBDK5O847PQW6A","A2I43BDUPAM00C","33Q5P9PUSP8QOKKNNN5S19YACNVCZX","","img/set1/S2.jpg","72","2","structured_normal","68","false","structured_normal,random,structured_incentive","1,2,2,3","",""
"null","","html-keyboard-response","132","266580","0.0-61.0","38YMOXR4MVLZ0S4BTBDK5O847PQW6A","A2I43BDUPAM00C","33Q5P9PUSP8QOKKNNN5S19YACNVCZX","","<img src=""img/set1/S2.jpg"" width=""540"" height = ""360"">","null","","","","","","","",""
"null","","html-keyboard-response","133","266582","0.0-62.0","38YMOXR4MVLZ0S4BTBDK5O847PQW6A","A2I43BDUPAM00C","33Q5P9PUSP8QOKKNNN5S19YACNVCZX","","","null","","","","","","","",""
"718.3000000044703","","image-keyboard-response","134","267302","0.0-63.0","38YMOXR4MVLZ0S4BTBDK5O847PQW6A","A2I43BDUPAM00C","33Q5P9PUSP8QOKKNNN5S19YACNVCZX","","img/set1/S4.jpg","83","4","structured_normal","74","false","structured_normal,random,structured_incentive","1,2,2,3","",""
"null","","html-keyboard-response","135","267667","0.0-64.0","38YMOXR4MVLZ0S4BTBDK5O847PQW6A","A2I43BDUPAM00C","33Q5P9PUSP8QOKKNNN5S19YACNVCZX","","<img src=""img/set1/S4.jpg"" width=""540"" height = ""360"">","null","","","","","","","",""
"null","","html-keyboard-response","136","267669","0.0-65.0","38YMOXR4MVLZ0S4BTBDK5O847PQW6A","A2I43BDUPAM00C","33Q5P9PUSP8QOKKNNN5S19YACNVCZX","","","null","","","","","","","",""
"748.3000000044703","","image-keyboard-response","137","268419","0.0-66.0","38YMOXR4MVLZ0S4BTBDK5O847PQW6A","A2I43BDUPAM00C","33Q5P9PUSP8QOKKNNN5S19YACNVCZX","","img/set1/S1.jpg","72","1","structured_normal","83","false","structured_normal,random,structured_incentive","1,2,2,3","",""
"null","","html-keyboard-response","138","268788","0.0-67.0","38YMOXR4MVLZ0S4BTBDK5O847PQW6A","A2I43BDUPAM00C","33Q5P9PUSP8QOKKNNN5S19YACNVCZX","","<img src=""img/set1/S1.jpg"" width=""540"" height = ""360"">","null","","","","","","","",""
"null","","html-keyboard-response","139","268790","0.0-68.0","38YMOXR4MVLZ0S4BTBDK5O847PQW6A","A2I43BDUPAM00C","33Q5P9PUSP8QOKKNNN5S19YACNVCZX","","","null","","","","","","","",""
"826","","image-keyboard-response","140","269618","0.0-69.0","38YMOXR4MVLZ0S4BTBDK5O847PQW6A","A2I43BDUPAM00C","33Q5P9PUSP8QOKKNNN5S19YACNVCZX","","img/set1/S2.jpg","68","2","structured_normal","68","true","structured_normal,random,structured_incentive","1,2,2,3","",""
"null","","html-keyboard-response","141","269972","0.0-70.0","38YMOXR4MVLZ0S4BTBDK5O847PQW6A","A2I43BDUPAM00C","33Q5P9PUSP8QOKKNNN5S19YACNVCZX","","<img src=""img/set1/S2.jpg"" width=""540"" height = ""360"" style=""border:16px solid orange"">","null","","","","","","","",""
"null","","html-keyboard-response","142","269974","0.0-71.0","38YMOXR4MVLZ0S4BTBDK5O847PQW6A","A2I43BDUPAM00C","33Q5P9PUSP8QOKKNNN5S19YACNVCZX","","","null","","","","","","","",""
"520.7000000029802","","image-keyboard-response","143","270497","0.0-72.0","38YMOXR4MVLZ0S4BTBDK5O847PQW6A","A2I43BDUPAM00C","33Q5P9PUSP8QOKKNNN5S19YACNVCZX","","img/set1/S1.jpg","83","1","structured_normal","83","true","structured_normal,random,structured_incentive","1,2,2,3","",""
"null","","html-keyboard-response","144","270850","0.0-73.0","38YMOXR4MVLZ0S4BTBDK5O847PQW6A","A2I43BDUPAM00C","33Q5P9PUSP8QOKKNNN5S19YACNVCZX","","<img src=""img/set1/S1.jpg"" width=""540"" height = ""360"" style=""border:16px solid orange"">","null","","","","","","","",""
"null","","html-keyboard-response","145","270853","0.0-74.0","38YMOXR4MVLZ0S4BTBDK5O847PQW6A","A2I43BDUPAM00C","33Q5P9PUSP8QOKKNNN5S19YACNVCZX","","","null","","","","","","","",""
"777.6000000014901","","image-keyboard-response","146","271632","0.0-75.0","38YMOXR4MVLZ0S4BTBDK5O847PQW6A","A2I43BDUPAM00C","33Q5P9PUSP8QOKKNNN5S19YACNVCZX","","img/set1/S2.jpg","74","2","structured_normal","68","false","structured_normal,random,structured_incentive","1,2,2,3","",""
"null","","html-keyboard-response","147","272004","0.0-76.0","38YMOXR4MVLZ0S4BTBDK5O847PQW6A","A2I43BDUPAM00C","33Q5P9PUSP8QOKKNNN5S19YACNVCZX","","<img src=""img/set1/S2.jpg"" width=""540"" height = ""360"">","null","","","","","","","",""
"null","","html-keyboard-response","148","272006","0.0-77.0","38YMOXR4MVLZ0S4BTBDK5O847PQW6A","A2I43BDUPAM00C","33Q5P9PUSP8QOKKNNN5S19YACNVCZX","","","null","","","","","","","",""
"24.5","","image-keyboard-response","149","272033","0.0-78.0","38YMOXR4MVLZ0S4BTBDK5O847PQW6A","A2I43BDUPAM00C","33Q5P9PUSP8QOKKNNN5S19YACNVCZX","","img/set1/S3.jpg","74","3","structured_normal","72","false","structured_normal,random,structured_incentive","1,2,2,3","",""
"null","","html-keyboard-response","150","272389","0.0-79.0","38YMOXR4MVLZ0S4BTBDK5O847PQW6A","A2I43BDUPAM00C","33Q5P9PUSP8QOKKNNN5S19YACNVCZX","","<img src=""img/set1/S3.jpg"" width=""540"" height = ""360"">","null","","","","","","","",""
"null","","html-keyboard-response","151","272396","0.0-80.0","38YMOXR4MVLZ0S4BTBDK5O847PQW6A","A2I43BDUPAM00C","33Q5P9PUSP8QOKKNNN5S19YACNVCZX","","","null","","","","","","","",""
"567.1000000014901","","image-keyboard-response","152","272966","0.0-81.0","38YMOXR4MVLZ0S4BTBDK5O847PQW6A","A2I43BDUPAM00C","33Q5P9PUSP8QOKKNNN5S19YACNVCZX","","img/set1/S1.jpg","68","1","structured_normal","83","false","structured_normal,random,structured_incentive","1,2,2,3","",""
"null","","html-keyboard-response","153","273337","0.0-82.0","38YMOXR4MVLZ0S4BTBDK5O847PQW6A","A2I43BDUPAM00C","33Q5P9PUSP8QOKKNNN5S19YACNVCZX","","<img src=""img/set1/S1.jpg"" width=""540"" height = ""360"">","null","","","","","","","",""
"null","","html-keyboard-response","154","273339","0.0-83.0","38YMOXR4MVLZ0S4BTBDK5O847PQW6A","A2I43BDUPAM00C","33Q5P9PUSP8QOKKNNN5S19YACNVCZX","","","null","","","","","","","",""
"524.1000000014901","","image-keyboard-response","155","273865","0.0-84.0","38YMOXR4MVLZ0S4BTBDK5O847PQW6A","A2I43BDUPAM00C","33Q5P9PUSP8QOKKNNN5S19YACNVCZX","","img/set1/S2.jpg","68","2","structured_normal","68","true","structured_normal,random,structured_incentive","1,2,2,3","",""
"null","","html-keyboard-response","156","274235","0.0-85.0","38YMOXR4MVLZ0S4BTBDK5O847PQW6A","A2I43BDUPAM00C","33Q5P9PUSP8QOKKNNN5S19YACNVCZX","","<img src=""img/set1/S2.jpg"" width=""540"" height = ""360"" style=""border:16px solid orange"">","null","","","","","","","",""
"null","","html-keyboard-response","157","274238","0.0-86.0","38YMOXR4MVLZ0S4BTBDK5O847PQW6A","A2I43BDUPAM00C","33Q5P9PUSP8QOKKNNN5S19YACNVCZX","","","null","","","","","","","",""
"755.1999999955297","","image-keyboard-response","158","274995","0.0-87.0","38YMOXR4MVLZ0S4BTBDK5O847PQW6A","A2I43BDUPAM00C","33Q5P9PUSP8QOKKNNN5S19YACNVCZX","","img/set1/S4.jpg","72","4","structured_normal","74","false","structured_normal,random,structured_incentive","1,2,2,3","",""
"null","","html-keyboard-response","159","275350","0.0-88.0","38YMOXR4MVLZ0S4BTBDK5O847PQW6A","A2I43BDUPAM00C","33Q5P9PUSP8QOKKNNN5S19YACNVCZX","","<img src=""img/set1/S4.jpg"" width=""540"" height = ""360"">","null","","","","","","","",""
"null","","html-keyboard-response","160","275352","0.0-89.0","38YMOXR4MVLZ0S4BTBDK5O847PQW6A","A2I43BDUPAM00C","33Q5P9PUSP8QOKKNNN5S19YACNVCZX","","","null","","","","","","","",""
"553.9000000059605","","image-keyboard-response","161","275908","0.0-90.0","38YMOXR4MVLZ0S4BTBDK5O847PQW6A","A2I43BDUPAM00C","33Q5P9PUSP8QOKKNNN5S19YACNVCZX","","img/set1/S1.jpg","83","1","structured_normal","83","true","structured_normal,random,structured_incentive","1,2,2,3","",""
"null","","html-keyboard-response","162","276265","0.0-91.0","38YMOXR4MVLZ0S4BTBDK5O847PQW6A","A2I43BDUPAM00C","33Q5P9PUSP8QOKKNNN5S19YACNVCZX","","<img src=""img/set1/S1.jpg"" width=""540"" height = ""360"" style=""border:16px solid orange"">","null","","","","","","","",""
"null","","html-keyboard-response","163","276267","0.0-92.0","38YMOXR4MVLZ0S4BTBDK5O847PQW6A","A2I43BDUPAM00C","33Q5P9PUSP8QOKKNNN5S19YACNVCZX","","","null","","","","","","","",""
"485.79999999701977","","image-keyboard-response","164","276755","0.0-93.0","38YMOXR4MVLZ0S4BTBDK5O847PQW6A","A2I43BDUPAM00C","33Q5P9PUSP8QOKKNNN5S19YACNVCZX","","img/set1/S3.jpg","74","3","structured_normal","72","false","structured_normal,random,structured_incentive","1,2,2,3","",""
"null","","html-keyboard-response","165","277108","0.0-94.0","38YMOXR4MVLZ0S4BTBDK5O847PQW6A","A2I43BDUPAM00C","33Q5P9PUSP8QOKKNNN5S19YACNVCZX","","<img src=""img/set1/S3.jpg"" width=""540"" height = ""360"">","null","","","","","","","",""
"null","","html-keyboard-response","166","277111","0.0-95.0","38YMOXR4MVLZ0S4BTBDK5O847PQW6A","A2I43BDUPAM00C","33Q5P9PUSP8QOKKNNN5S19YACNVCZX","","","null","","","","","","","",""
"697.2999999970198","","image-keyboard-response","167","277810","0.0-96.0","38YMOXR4MVLZ0S4BTBDK5O847PQW6A","A2I43BDUPAM00C","33Q5P9PUSP8QOKKNNN5S19YACNVCZX","","img/set1/S1.jpg","68","1","structured_normal","83","false","structured_normal,random,structured_incentive","1,2,2,3","",""
"null","","html-keyboard-response","168","278175","0.0-97.0","38YMOXR4MVLZ0S4BTBDK5O847PQW6A","A2I43BDUPAM00C","33Q5P9PUSP8QOKKNNN5S19YACNVCZX","","<img src=""img/set1/S1.jpg"" width=""540"" height = ""360"">","null","","","","","","","",""
"null","","html-keyboard-response","169","278180","0.0-98.0","38YMOXR4MVLZ0S4BTBDK5O847PQW6A","A2I43BDUPAM00C","33Q5P9PUSP8QOKKNNN5S19YACNVCZX","","","null","","","","","","","",""
"620.6000000014901","","image-keyboard-response","170","278804","0.0-99.0","38YMOXR4MVLZ0S4BTBDK5O847PQW6A","A2I43BDUPAM00C","33Q5P9PUSP8QOKKNNN5S19YACNVCZX","","img/set1/S2.jpg","68","2","structured_normal","68","true","structured_normal,random,structured_incentive","1,2,2,3","",""
"null","","html-keyboard-response","171","279169","0.0-100.0","38YMOXR4MVLZ0S4BTBDK5O847PQW6A","A2I43BDUPAM00C","33Q5P9PUSP8QOKKNNN5S19YACNVCZX","","<img src=""img/set1/S2.jpg"" width=""540"" height = ""360"" style=""border:16px solid orange"">","null","","","","","","","",""
"null","","html-keyboard-response","172","279172","0.0-101.0","38YMOXR4MVLZ0S4BTBDK5O847PQW6A","A2I43BDUPAM00C","33Q5P9PUSP8QOKKNNN5S19YACNVCZX","","","null","","","","","","","",""
"746.8999999985099","","image-keyboard-response","173","279920","0.0-102.0","38YMOXR4MVLZ0S4BTBDK5O847PQW6A","A2I43BDUPAM00C","33Q5P9PUSP8QOKKNNN5S19YACNVCZX","","img/set1/S4.jpg","68","4","structured_normal","74","false","structured_normal,random,structured_incentive","1,2,2,3","",""
"null","","html-keyboard-response","174","280283","0.0-103.0","38YMOXR4MVLZ0S4BTBDK5O847PQW6A","A2I43BDUPAM00C","33Q5P9PUSP8QOKKNNN5S19YACNVCZX","","<img src=""img/set1/S4.jpg"" width=""540"" height = ""360"">","null","","","","","","","",""
"null","","html-keyboard-response","175","280285","0.0-104.0","38YMOXR4MVLZ0S4BTBDK5O847PQW6A","A2I43BDUPAM00C","33Q5P9PUSP8QOKKNNN5S19YACNVCZX","","","null","","","","","","","",""
"687.0999999940395","","image-keyboard-response","176","280975","0.0-105.0","38YMOXR4MVLZ0S4BTBDK5O847PQW6A","A2I43BDUPAM00C","33Q5P9PUSP8QOKKNNN5S19YACNVCZX","","img/set1/S3.jpg","83","3","structured_normal","72","false","structured_normal,random,structured_incentive","1,2,2,3","",""
"null","","html-keyboard-response","177","281331","0.0-106.0","38YMOXR4MVLZ0S4BTBDK5O847PQW6A","A2I43BDUPAM00C","33Q5P9PUSP8QOKKNNN5S19YACNVCZX","","<img src=""img/set1/S3.jpg"" width=""540"" height = ""360"">","null","","","","","","","",""
"null","","html-keyboard-response","178","281334","0.0-107.0","38YMOXR4MVLZ0S4BTBDK5O847PQW6A","A2I43BDUPAM00C","33Q5P9PUSP8QOKKNNN5S19YACNVCZX","","","null","","","","","","","",""
"568.8999999985099","","image-keyboard-response","179","281905","0.0-108.0","38YMOXR4MVLZ0S4BTBDK5O847PQW6A","A2I43BDUPAM00C","33Q5P9PUSP8QOKKNNN5S19YACNVCZX","","img/set1/S1.jpg","74","1","structured_normal","83","false","structured_normal,random,structured_incentive","1,2,2,3","",""
"null","","html-keyboard-response","180","282270","0.0-109.0","38YMOXR4MVLZ0S4BTBDK5O847PQW6A","A2I43BDUPAM00C","33Q5P9PUSP8QOKKNNN5S19YACNVCZX","","<img src=""img/set1/S1.jpg"" width=""540"" height = ""360"">","null","","","","","","","",""
"null","","html-keyboard-response","181","282273","0.0-110.0","38YMOXR4MVLZ0S4BTBDK5O847PQW6A","A2I43BDUPAM00C","33Q5P9PUSP8QOKKNNN5S19YACNVCZX","","","null","","","","","","","",""
"411","","image-keyboard-response","182","282686","0.0-111.0","38YMOXR4MVLZ0S4BTBDK5O847PQW6A","A2I43BDUPAM00C","33Q5P9PUSP8QOKKNNN5S19YACNVCZX","","img/set1/S2.jpg","72","2","structured_normal","68","false","structured_normal,random,structured_incentive","1,2,2,3","",""
"null","","html-keyboard-response","183","283047","0.0-112.0","38YMOXR4MVLZ0S4BTBDK5O847PQW6A","A2I43BDUPAM00C","33Q5P9PUSP8QOKKNNN5S19YACNVCZX","","<img src=""img/set1/S2.jpg"" width=""540"" height = ""360"">","null","","","","","","","",""
"null","","html-keyboard-response","184","283049","0.0-113.0","38YMOXR4MVLZ0S4BTBDK5O847PQW6A","A2I43BDUPAM00C","33Q5P9PUSP8QOKKNNN5S19YACNVCZX","","","null","","","","","","","",""
"386.79999999701977","","image-keyboard-response","185","283438","0.0-114.0","38YMOXR4MVLZ0S4BTBDK5O847PQW6A","A2I43BDUPAM00C","33Q5P9PUSP8QOKKNNN5S19YACNVCZX","","img/set1/S4.jpg","83","4","structured_normal","74","false","structured_normal,random,structured_incentive","1,2,2,3","",""
"null","","html-keyboard-response","186","283797","0.0-115.0","38YMOXR4MVLZ0S4BTBDK5O847PQW6A","A2I43BDUPAM00C","33Q5P9PUSP8QOKKNNN5S19YACNVCZX","","<img src=""img/set1/S4.jpg"" width=""540"" height = ""360"">","null","","","","","","","",""
"null","","html-keyboard-response","187","283799","0.0-116.0","38YMOXR4MVLZ0S4BTBDK5O847PQW6A","A2I43BDUPAM00C","33Q5P9PUSP8QOKKNNN5S19YACNVCZX","","","null","","","","","","","",""
"432.5","","image-keyboard-response","188","284233","0.0-117.0","38YMOXR4MVLZ0S4BTBDK5O847PQW6A","A2I43BDUPAM00C","33Q5P9PUSP8QOKKNNN5S19YACNVCZX","","img/set1/S3.jpg","68","3","structured_normal","72","false","structured_normal,random,structured_incentive","1,2,2,3","",""
"null","","html-keyboard-response","189","284586","0.0-118.0","38YMOXR4MVLZ0S4BTBDK5O847PQW6A","A2I43BDUPAM00C","33Q5P9PUSP8QOKKNNN5S19YACNVCZX","","<img src=""img/set1/S3.jpg"" width=""540"" height = ""360"">","null","","","","","","","",""
"null","","html-keyboard-response","190","284588","0.0-119.0","38YMOXR4MVLZ0S4BTBDK5O847PQW6A","A2I43BDUPAM00C","33Q5P9PUSP8QOKKNNN5S19YACNVCZX","","","null","","","","","","","",""
"488.29999999701977","","image-keyboard-response","191","285078","0.0-120.0","38YMOXR4MVLZ0S4BTBDK5O847PQW6A","A2I43BDUPAM00C","33Q5P9PUSP8QOKKNNN5S19YACNVCZX","","img/set1/S1.jpg","72","1","structured_normal","83","false","structured_normal,random,structured_incentive","1,2,2,3","",""
"null","","html-keyboard-response","192","285446","0.0-121.0","38YMOXR4MVLZ0S4BTBDK5O847PQW6A","A2I43BDUPAM00C","33Q5P9PUSP8QOKKNNN5S19YACNVCZX","","<img src=""img/set1/S1.jpg"" width=""540"" height = ""360"">","null","","","","","","","",""
"null","","html-keyboard-response","193","285449","0.0-122.0","38YMOXR4MVLZ0S4BTBDK5O847PQW6A","A2I43BDUPAM00C","33Q5P9PUSP8QOKKNNN5S19YACNVCZX","","","null","","","","","","","",""
"676.6000000014901","","image-keyboard-response","194","286127","0.0-123.0","38YMOXR4MVLZ0S4BTBDK5O847PQW6A","A2I43BDUPAM00C","33Q5P9PUSP8QOKKNNN5S19YACNVCZX","","img/set1/S2.jpg","74","2","structured_normal","68","false","structured_normal,random,structured_incentive","1,2,2,3","",""
"null","","html-keyboard-response","195","286485","0.0-124.0","38YMOXR4MVLZ0S4BTBDK5O847PQW6A","A2I43BDUPAM00C","33Q5P9PUSP8QOKKNNN5S19YACNVCZX","","<img src=""img/set1/S2.jpg"" width=""540"" height = ""360"">","null","","","","","","","",""
"null","","html-keyboard-response","196","286487","0.0-125.0","38YMOXR4MVLZ0S4BTBDK5O847PQW6A","A2I43BDUPAM00C","33Q5P9PUSP8QOKKNNN5S19YACNVCZX","","","null","","","","","","","",""
"863.8000000044703","","image-keyboard-response","197","287353","0.0-126.0","38YMOXR4MVLZ0S4BTBDK5O847PQW6A","A2I43BDUPAM00C","33Q5P9PUSP8QOKKNNN5S19YACNVCZX","","img/set1/S3.jpg","72","3","structured_normal","72","true","structured_normal,random,structured_incentive","1,2,2,3","",""
"null","","html-keyboard-response","198","287716","0.0-127.0","38YMOXR4MVLZ0S4BTBDK5O847PQW6A","A2I43BDUPAM00C","33Q5P9PUSP8QOKKNNN5S19YACNVCZX","","<img src=""img/set1/S3.jpg"" width=""540"" height = ""360"" style=""border:16px solid orange"">","null","","","","","","","",""
"null","","html-keyboard-response","199","287720","0.0-128.0","38YMOXR4MVLZ0S4BTBDK5O847PQW6A","A2I43BDUPAM00C","33Q5P9PUSP8QOKKNNN5S19YACNVCZX","","","null","","","","","","","",""
"670.9000000059605","","image-keyboard-response","200","288394","0.0-129.0","38YMOXR4MVLZ0S4BTBDK5O847PQW6A","A2I43BDUPAM00C","33Q5P9PUSP8QOKKNNN5S19YACNVCZX","","img/set1/S2.jpg","68","2","structured_normal","68","true","structured_normal,random,structured_incentive","1,2,2,3","",""
"null","","html-keyboard-response","201","288755","0.0-130.0","38YMOXR4MVLZ0S4BTBDK5O847PQW6A","A2I43BDUPAM00C","33Q5P9PUSP8QOKKNNN5S19YACNVCZX","","<img src=""img/set1/S2.jpg"" width=""540"" height = ""360"" style=""border:16px solid orange"">","null","","","","","","","",""
"null","","html-keyboard-response","202","288758","0.0-131.0","38YMOXR4MVLZ0S4BTBDK5O847PQW6A","A2I43BDUPAM00C","33Q5P9PUSP8QOKKNNN5S19YACNVCZX","","","null","","","","","","","",""
"699","","image-keyboard-response","203","289458","0.0-132.0","38YMOXR4MVLZ0S4BTBDK5O847PQW6A","A2I43BDUPAM00C","33Q5P9PUSP8QOKKNNN5S19YACNVCZX","","img/set1/S3.jpg","72","3","structured_normal","72","true","structured_normal,random,structured_incentive","1,2,2,3","",""
"null","","html-keyboard-response","204","289824","0.0-133.0","38YMOXR4MVLZ0S4BTBDK5O847PQW6A","A2I43BDUPAM00C","33Q5P9PUSP8QOKKNNN5S19YACNVCZX","","<img src=""img/set1/S3.jpg"" width=""540"" height = ""360"" style=""border:16px solid orange"">","null","","","","","","","",""
"null","","html-keyboard-response","205","289826","0.0-134.0","38YMOXR4MVLZ0S4BTBDK5O847PQW6A","A2I43BDUPAM00C","33Q5P9PUSP8QOKKNNN5S19YACNVCZX","","","null","","","","","","","",""
"704.8000000044703","","image-keyboard-response","206","290533","0.0-135.0","38YMOXR4MVLZ0S4BTBDK5O847PQW6A","A2I43BDUPAM00C","33Q5P9PUSP8QOKKNNN5S19YACNVCZX","","img/set1/S1.jpg","83","1","structured_normal","83","true","structured_normal,random,structured_incentive","1,2,2,3","",""
"null","","html-keyboard-response","207","290885","0.0-136.0","38YMOXR4MVLZ0S4BTBDK5O847PQW6A","A2I43BDUPAM00C","33Q5P9PUSP8QOKKNNN5S19YACNVCZX","","<img src=""img/set1/S1.jpg"" width=""540"" height = ""360"" style=""border:16px solid orange"">","null","","","","","","","",""
"null","","html-keyboard-response","208","290888","0.0-137.0","38YMOXR4MVLZ0S4BTBDK5O847PQW6A","A2I43BDUPAM00C","33Q5P9PUSP8QOKKNNN5S19YACNVCZX","","","null","","","","","","","",""
"944.7999999970198","","image-keyboard-response","209","291835","0.0-138.0","38YMOXR4MVLZ0S4BTBDK5O847PQW6A","A2I43BDUPAM00C","33Q5P9PUSP8QOKKNNN5S19YACNVCZX","","img/set1/S2.jpg","72","2","structured_normal","68","false","structured_normal,random,structured_incentive","1,2,2,3","",""
"null","","html-keyboard-response","210","292187","0.0-139.0","38YMOXR4MVLZ0S4BTBDK5O847PQW6A","A2I43BDUPAM00C","33Q5P9PUSP8QOKKNNN5S19YACNVCZX","","<img src=""img/set1/S2.jpg"" width=""540"" height = ""360"">","null","","","","","","","",""
"null","","html-keyboard-response","211","292190","0.0-140.0","38YMOXR4MVLZ0S4BTBDK5O847PQW6A","A2I43BDUPAM00C","33Q5P9PUSP8QOKKNNN5S19YACNVCZX","","","null","","","","","","","",""
"723","","image-keyboard-response","212","292915","0.0-141.0","38YMOXR4MVLZ0S4BTBDK5O847PQW6A","A2I43BDUPAM00C","33Q5P9PUSP8QOKKNNN5S19YACNVCZX","","img/set1/S4.jpg","74","4","structured_normal","74","true","structured_normal,random,structured_incentive","1,2,2,3","",""
"null","","html-keyboard-response","213","293282","0.0-142.0","38YMOXR4MVLZ0S4BTBDK5O847PQW6A","A2I43BDUPAM00C","33Q5P9PUSP8QOKKNNN5S19YACNVCZX","","<img src=""img/set1/S4.jpg"" width=""540"" height = ""360"" style=""border:16px solid orange"">","null","","","","","","","",""
"null","","html-keyboard-response","214","293284","0.0-143.0","38YMOXR4MVLZ0S4BTBDK5O847PQW6A","A2I43BDUPAM00C","33Q5P9PUSP8QOKKNNN5S19YACNVCZX","","","null","","","","","","","",""
"805","","image-keyboard-response","215","294091","0.0-144.0","38YMOXR4MVLZ0S4BTBDK5O847PQW6A","A2I43BDUPAM00C","33Q5P9PUSP8QOKKNNN5S19YACNVCZX","","img/set1/S3.jpg","72","3","structured_normal","72","true","structured_normal,random,structured_incentive","1,2,2,3","",""
"null","","html-keyboard-response","216","294457","0.0-145.0","38YMOXR4MVLZ0S4BTBDK5O847PQW6A","A2I43BDUPAM00C","33Q5P9PUSP8QOKKNNN5S19YACNVCZX","","<img src=""img/set1/S3.jpg"" width=""540"" height = ""360"" style=""border:16px solid orange"">","null","","","","","","","",""
"null","","html-keyboard-response","217","294460","0.0-146.0","38YMOXR4MVLZ0S4BTBDK5O847PQW6A","A2I43BDUPAM00C","33Q5P9PUSP8QOKKNNN5S19YACNVCZX","","","null","","","","","","","",""
"745.3999999985099","","image-keyboard-response","218","295207","0.0-147.0","38YMOXR4MVLZ0S4BTBDK5O847PQW6A","A2I43BDUPAM00C","33Q5P9PUSP8QOKKNNN5S19YACNVCZX","","img/set1/S4.jpg","74","4","structured_normal","74","true","structured_normal,random,structured_incentive","1,2,2,3","",""
"null","","html-keyboard-response","219","295565","0.0-148.0","38YMOXR4MVLZ0S4BTBDK5O847PQW6A","A2I43BDUPAM00C","33Q5P9PUSP8QOKKNNN5S19YACNVCZX","","<img src=""img/set1/S4.jpg"" width=""540"" height = ""360"" style=""border:16px solid orange"">","null","","","","","","","",""
"null","","html-keyboard-response","220","295567","0.0-149.0","38YMOXR4MVLZ0S4BTBDK5O847PQW6A","A2I43BDUPAM00C","33Q5P9PUSP8QOKKNNN5S19YACNVCZX","","","null","","","","","","","",""
"561.1000000014901","","image-keyboard-response","221","296130","0.0-150.0","38YMOXR4MVLZ0S4BTBDK5O847PQW6A","A2I43BDUPAM00C","33Q5P9PUSP8QOKKNNN5S19YACNVCZX","","img/set1/S3.jpg","72","3","structured_normal","72","true","structured_normal,random,structured_incentive","1,2,2,3","",""
"null","","html-keyboard-response","222","296497","0.0-151.0","38YMOXR4MVLZ0S4BTBDK5O847PQW6A","A2I43BDUPAM00C","33Q5P9PUSP8QOKKNNN5S19YACNVCZX","","<img src=""img/set1/S3.jpg"" width=""540"" height = ""360"" style=""border:16px solid orange"">","null","","","","","","","",""
"null","","html-keyboard-response","223","296500","0.0-152.0","38YMOXR4MVLZ0S4BTBDK5O847PQW6A","A2I43BDUPAM00C","33Q5P9PUSP8QOKKNNN5S19YACNVCZX","","","null","","","","","","","",""
"707.6000000014901","","image-keyboard-response","224","297209","0.0-153.0","38YMOXR4MVLZ0S4BTBDK5O847PQW6A","A2I43BDUPAM00C","33Q5P9PUSP8QOKKNNN5S19YACNVCZX","","img/set1/S4.jpg","74","4","structured_normal","74","true","structured_normal,random,structured_incentive","1,2,2,3","",""
"null","","html-keyboard-response","225","297575","0.0-154.0","38YMOXR4MVLZ0S4BTBDK5O847PQW6A","A2I43BDUPAM00C","33Q5P9PUSP8QOKKNNN5S19YACNVCZX","","<img src=""img/set1/S4.jpg"" width=""540"" height = ""360"" style=""border:16px solid orange"">","null","","","","","","","",""
"null","","html-keyboard-response","226","297577","0.0-155.0","38YMOXR4MVLZ0S4BTBDK5O847PQW6A","A2I43BDUPAM00C","33Q5P9PUSP8QOKKNNN5S19YACNVCZX","","","null","","","","","","","",""
"680.3000000044703","","image-keyboard-response","227","298259","0.0-156.0","38YMOXR4MVLZ0S4BTBDK5O847PQW6A","A2I43BDUPAM00C","33Q5P9PUSP8QOKKNNN5S19YACNVCZX","","img/set1/S2.jpg","68","2","structured_normal","68","true","structured_normal,random,structured_incentive","1,2,2,3","",""
"null","","html-keyboard-response","228","298627","0.0-157.0","38YMOXR4MVLZ0S4BTBDK5O847PQW6A","A2I43BDUPAM00C","33Q5P9PUSP8QOKKNNN5S19YACNVCZX","","<img src=""img/set1/S2.jpg"" width=""540"" height = ""360"" style=""border:16px solid orange"">","null","","","","","","","",""
"null","","html-keyboard-response","229","298628","0.0-158.0","38YMOXR4MVLZ0S4BTBDK5O847PQW6A","A2I43BDUPAM00C","33Q5P9PUSP8QOKKNNN5S19YACNVCZX","","","null","","","","","","","",""
"730.7000000029802","","image-keyboard-response","230","299360","0.0-159.0","38YMOXR4MVLZ0S4BTBDK5O847PQW6A","A2I43BDUPAM00C","33Q5P9PUSP8QOKKNNN5S19YACNVCZX","","img/set1/S3.jpg","74","3","structured_normal","72","false","structured_normal,random,structured_incentive","1,2,2,3","",""
"null","","html-keyboard-response","231","299724","0.0-160.0","38YMOXR4MVLZ0S4BTBDK5O847PQW6A","A2I43BDUPAM00C","33Q5P9PUSP8QOKKNNN5S19YACNVCZX","","<img src=""img/set1/S3.jpg"" width=""540"" height = ""360"">","null","","","","","","","",""
"null","","html-keyboard-response","232","299727","0.0-161.0","38YMOXR4MVLZ0S4BTBDK5O847PQW6A","A2I43BDUPAM00C","33Q5P9PUSP8QOKKNNN5S19YACNVCZX","","","null","","","","","","","",""
"55.099999994039536","","image-keyboard-response","233","299784","0.0-162.0","38YMOXR4MVLZ0S4BTBDK5O847PQW6A","A2I43BDUPAM00C","33Q5P9PUSP8QOKKNNN5S19YACNVCZX","","img/set1/S4.jpg","72","4","structured_normal","74","false","structured_normal,random,structured_incentive","1,2,2,3","",""
"null","","html-keyboard-response","234","300143","0.0-163.0","38YMOXR4MVLZ0S4BTBDK5O847PQW6A","A2I43BDUPAM00C","33Q5P9PUSP8QOKKNNN5S19YACNVCZX","","<img src=""img/set1/S4.jpg"" width=""540"" height = ""360"">","null","","","","","","","",""
"null","","html-keyboard-response","235","300146","0.0-164.0","38YMOXR4MVLZ0S4BTBDK5O847PQW6A","A2I43BDUPAM00C","33Q5P9PUSP8QOKKNNN5S19YACNVCZX","","","null","","","","","","","",""
"954.1999999955297","","image-keyboard-response","236","301102","0.0-165.0","38YMOXR4MVLZ0S4BTBDK5O847PQW6A","A2I43BDUPAM00C","33Q5P9PUSP8QOKKNNN5S19YACNVCZX","","img/set1/S2.jpg","74","2","structured_normal","68","false","structured_normal,random,structured_incentive","1,2,2,3","",""
"null","","html-keyboard-response","237","301459","0.0-166.0","38YMOXR4MVLZ0S4BTBDK5O847PQW6A","A2I43BDUPAM00C","33Q5P9PUSP8QOKKNNN5S19YACNVCZX","","<img src=""img/set1/S2.jpg"" width=""540"" height = ""360"">","null","","","","","","","",""
"null","","html-keyboard-response","238","301461","0.0-167.0","38YMOXR4MVLZ0S4BTBDK5O847PQW6A","A2I43BDUPAM00C","33Q5P9PUSP8QOKKNNN5S19YACNVCZX","","","null","","","","","","","",""
"792.3999999985099","","image-keyboard-response","239","302255","0.0-168.0","38YMOXR4MVLZ0S4BTBDK5O847PQW6A","A2I43BDUPAM00C","33Q5P9PUSP8QOKKNNN5S19YACNVCZX","","img/set1/S1.jpg","83","1","structured_normal","83","true","structured_normal,random,structured_incentive","1,2,2,3","",""
"null","","html-keyboard-response","240","302622","0.0-169.0","38YMOXR4MVLZ0S4BTBDK5O847PQW6A","A2I43BDUPAM00C","33Q5P9PUSP8QOKKNNN5S19YACNVCZX","","<img src=""img/set1/S1.jpg"" width=""540"" height = ""360"" style=""border:16px solid orange"">","null","","","","","","","",""
"null","","html-keyboard-response","241","302625","0.0-170.0","38YMOXR4MVLZ0S4BTBDK5O847PQW6A","A2I43BDUPAM00C","33Q5P9PUSP8QOKKNNN5S19YACNVCZX","","","null","","","","","","","",""
"744.8999999985099","","image-keyboard-response","242","303371","0.0-171.0","38YMOXR4MVLZ0S4BTBDK5O847PQW6A","A2I43BDUPAM00C","33Q5P9PUSP8QOKKNNN5S19YACNVCZX","","img/set1/S2.jpg","72","2","structured_normal","68","false","structured_normal,random,structured_incentive","1,2,2,3","",""
"null","","html-keyboard-response","243","303734","0.0-172.0","38YMOXR4MVLZ0S4BTBDK5O847PQW6A","A2I43BDUPAM00C","33Q5P9PUSP8QOKKNNN5S19YACNVCZX","","<img src=""img/set1/S2.jpg"" width=""540"" height = ""360"">","null","","","","","","","",""
"null","","html-keyboard-response","244","303738","0.0-173.0","38YMOXR4MVLZ0S4BTBDK5O847PQW6A","A2I43BDUPAM00C","33Q5P9PUSP8QOKKNNN5S19YACNVCZX","","","null","","","","","","","",""
"862.1000000014901","","image-keyboard-response","245","304603","0.0-174.0","38YMOXR4MVLZ0S4BTBDK5O847PQW6A","A2I43BDUPAM00C","33Q5P9PUSP8QOKKNNN5S19YACNVCZX","","img/set1/S4.jpg","74","4","structured_normal","74","true","structured_normal,random,structured_incentive","1,2,2,3","",""
"null","","html-keyboard-response","246","304971","0.0-175.0","38YMOXR4MVLZ0S4BTBDK5O847PQW6A","A2I43BDUPAM00C","33Q5P9PUSP8QOKKNNN5S19YACNVCZX","","<img src=""img/set1/S4.jpg"" width=""540"" height = ""360"" style=""border:16px solid orange"">","null","","","","","","","",""
"null","","html-keyboard-response","247","304973","0.0-176.0","38YMOXR4MVLZ0S4BTBDK5O847PQW6A","A2I43BDUPAM00C","33Q5P9PUSP8QOKKNNN5S19YACNVCZX","","","null","","","","","","","",""
"586.8999999985099","","image-keyboard-response","248","305562","0.0-177.0","38YMOXR4MVLZ0S4BTBDK5O847PQW6A","A2I43BDUPAM00C","33Q5P9PUSP8QOKKNNN5S19YACNVCZX","","img/set1/S4.jpg","74","4","structured_normal","74","true","structured_normal,random,structured_incentive","1,2,2,3","",""
"null","","html-keyboard-response","249","305917","0.0-178.0","38YMOXR4MVLZ0S4BTBDK5O847PQW6A","A2I43BDUPAM00C","33Q5P9PUSP8QOKKNNN5S19YACNVCZX","","<img src=""img/set1/S4.jpg"" width=""540"" height = ""360"" style=""border:16px solid orange"">","null","","","","","","","",""
"null","","html-keyboard-response","250","305919","0.0-179.0","38YMOXR4MVLZ0S4BTBDK5O847PQW6A","A2I43BDUPAM00C","33Q5P9PUSP8QOKKNNN5S19YACNVCZX","","","null","","","","","","","",""
"548.8999999985099","","image-keyboard-response","251","306470","0.0-180.0","38YMOXR4MVLZ0S4BTBDK5O847PQW6A","A2I43BDUPAM00C","33Q5P9PUSP8QOKKNNN5S19YACNVCZX","","img/set1/S2.jpg","72","2","structured_normal","68","false","structured_normal,random,structured_incentive","1,2,2,3","",""
"null","","html-keyboard-response","252","306827","0.0-181.0","38YMOXR4MVLZ0S4BTBDK5O847PQW6A","A2I43BDUPAM00C","33Q5P9PUSP8QOKKNNN5S19YACNVCZX","","<img src=""img/set1/S2.jpg"" width=""540"" height = ""360"">","null","","","","","","","",""
"null","","html-keyboard-response","253","306830","0.0-182.0","38YMOXR4MVLZ0S4BTBDK5O847PQW6A","A2I43BDUPAM00C","33Q5P9PUSP8QOKKNNN5S19YACNVCZX","","","null","","","","","","","",""
"676.6999999955297","","image-keyboard-response","254","307508","0.0-183.0","38YMOXR4MVLZ0S4BTBDK5O847PQW6A","A2I43BDUPAM00C","33Q5P9PUSP8QOKKNNN5S19YACNVCZX","","img/set1/S4.jpg","74","4","structured_normal","74","true","structured_normal,random,structured_incentive","1,2,2,3","",""
"null","","html-keyboard-response","255","307862","0.0-184.0","38YMOXR4MVLZ0S4BTBDK5O847PQW6A","A2I43BDUPAM00C","33Q5P9PUSP8QOKKNNN5S19YACNVCZX","","<img src=""img/set1/S4.jpg"" width=""540"" height = ""360"" style=""border:16px solid orange"">","null","","","","","","","",""
"null","","html-keyboard-response","256","307864","0.0-185.0","38YMOXR4MVLZ0S4BTBDK5O847PQW6A","A2I43BDUPAM00C","33Q5P9PUSP8QOKKNNN5S19YACNVCZX","","","null","","","","","","","",""
"545","","image-keyboard-response","257","308411","0.0-186.0","38YMOXR4MVLZ0S4BTBDK5O847PQW6A","A2I43BDUPAM00C","33Q5P9PUSP8QOKKNNN5S19YACNVCZX","","img/set1/S2.jpg","68","2","structured_normal","68","true","structured_normal,random,structured_incentive","1,2,2,3","",""
"null","","html-keyboard-response","258","308772","0.0-187.0","38YMOXR4MVLZ0S4BTBDK5O847PQW6A","A2I43BDUPAM00C","33Q5P9PUSP8QOKKNNN5S19YACNVCZX","","<img src=""img/set1/S2.jpg"" width=""540"" height = ""360"" style=""border:16px solid orange"">","null","","","","","","","",""
"null","","html-keyboard-response","259","308775","0.0-188.0","38YMOXR4MVLZ0S4BTBDK5O847PQW6A","A2I43BDUPAM00C","33Q5P9PUSP8QOKKNNN5S19YACNVCZX","","","null","","","","","","","",""
"719.3000000044703","","image-keyboard-response","260","309496","0.0-189.0","38YMOXR4MVLZ0S4BTBDK5O847PQW6A","A2I43BDUPAM00C","33Q5P9PUSP8QOKKNNN5S19YACNVCZX","","img/set1/S4.jpg","74","4","structured_normal","74","true","structured_normal,random,structured_incentive","1,2,2,3","",""
"null","","html-keyboard-response","261","309852","0.0-190.0","38YMOXR4MVLZ0S4BTBDK5O847PQW6A","A2I43BDUPAM00C","33Q5P9PUSP8QOKKNNN5S19YACNVCZX","","<img src=""img/set1/S4.jpg"" width=""540"" height = ""360"" style=""border:16px solid orange"">","null","","","","","","","",""
"null","","html-keyboard-response","262","309858","0.0-191.0","38YMOXR4MVLZ0S4BTBDK5O847PQW6A","A2I43BDUPAM00C","33Q5P9PUSP8QOKKNNN5S19YACNVCZX","","","null","","","","","","","",""
"437.79999999701977","","image-keyboard-response","263","310298","0.0-192.0","38YMOXR4MVLZ0S4BTBDK5O847PQW6A","A2I43BDUPAM00C","33Q5P9PUSP8QOKKNNN5S19YACNVCZX","","img/set1/S2.jpg","68","2","structured_normal","68","true","structured_normal,random,structured_incentive","1,2,2,3","",""
"null","","html-keyboard-response","264","310668","0.0-193.0","38YMOXR4MVLZ0S4BTBDK5O847PQW6A","A2I43BDUPAM00C","33Q5P9PUSP8QOKKNNN5S19YACNVCZX","","<img src=""img/set1/S2.jpg"" width=""540"" height = ""360"" style=""border:16px solid orange"">","null","","","","","","","",""
"null","","html-keyboard-response","265","310670","0.0-194.0","38YMOXR4MVLZ0S4BTBDK5O847PQW6A","A2I43BDUPAM00C","33Q5P9PUSP8QOKKNNN5S19YACNVCZX","","","null","","","","","","","",""
"707.7000000029802","","image-keyboard-response","266","311379","0.0-195.0","38YMOXR4MVLZ0S4BTBDK5O847PQW6A","A2I43BDUPAM00C","33Q5P9PUSP8QOKKNNN5S19YACNVCZX","","img/set1/S1.jpg","83","1","structured_normal","83","true","structured_normal,random,structured_incentive","1,2,2,3","",""
"null","","html-keyboard-response","267","311735","0.0-196.0","38YMOXR4MVLZ0S4BTBDK5O847PQW6A","A2I43BDUPAM00C","33Q5P9PUSP8QOKKNNN5S19YACNVCZX","","<img src=""img/set1/S1.jpg"" width=""540"" height = ""360"" style=""border:16px solid orange"">","null","","","","","","","",""
"null","","html-keyboard-response","268","311739","0.0-197.0","38YMOXR4MVLZ0S4BTBDK5O847PQW6A","A2I43BDUPAM00C","33Q5P9PUSP8QOKKNNN5S19YACNVCZX","","","null","","","","","","","",""
"813.1000000014901","","image-keyboard-response","269","312555","0.0-198.0","38YMOXR4MVLZ0S4BTBDK5O847PQW6A","A2I43BDUPAM00C","33Q5P9PUSP8QOKKNNN5S19YACNVCZX","","img/set1/S3.jpg","72","3","structured_normal","72","true","structured_normal,random,structured_incentive","1,2,2,3","",""
"null","","html-keyboard-response","270","312920","0.0-199.0","38YMOXR4MVLZ0S4BTBDK5O847PQW6A","A2I43BDUPAM00C","33Q5P9PUSP8QOKKNNN5S19YACNVCZX","","<img src=""img/set1/S3.jpg"" width=""540"" height = ""360"" style=""border:16px solid orange"">","null","","","","","","","",""
"null","","html-keyboard-response","271","312923","0.0-200.0","38YMOXR4MVLZ0S4BTBDK5O847PQW6A","A2I43BDUPAM00C","33Q5P9PUSP8QOKKNNN5S19YACNVCZX","","","null","","","","","","","",""
"811.3000000044703","","image-keyboard-response","272","313737","0.0-201.0","38YMOXR4MVLZ0S4BTBDK5O847PQW6A","A2I43BDUPAM00C","33Q5P9PUSP8QOKKNNN5S19YACNVCZX","","img/set1/S4.jpg","74","4","structured_normal","74","true","structured_normal,random,structured_incentive","1,2,2,3","",""
"null","","html-keyboard-response","273","314109","0.0-202.0","38YMOXR4MVLZ0S4BTBDK5O847PQW6A","A2I43BDUPAM00C","33Q5P9PUSP8QOKKNNN5S19YACNVCZX","","<img src=""img/set1/S4.jpg"" width=""540"" height = ""360"" style=""border:16px solid orange"">","null","","","","","","","",""
"null","","html-keyboard-response","274","314111","0.0-203.0","38YMOXR4MVLZ0S4BTBDK5O847PQW6A","A2I43BDUPAM00C","33Q5P9PUSP8QOKKNNN5S19YACNVCZX","","","null","","","","","","","",""
"622.7999999970198","","image-keyboard-response","275","314736","0.0-204.0","38YMOXR4MVLZ0S4BTBDK5O847PQW6A","A2I43BDUPAM00C","33Q5P9PUSP8QOKKNNN5S19YACNVCZX","","img/set1/S4.jpg","74","4","structured_normal","74","true","structured_normal,random,structured_incentive","1,2,2,3","",""
"null","","html-keyboard-response","276","315099","0.0-205.0","38YMOXR4MVLZ0S4BTBDK5O847PQW6A","A2I43BDUPAM00C","33Q5P9PUSP8QOKKNNN5S19YACNVCZX","","<img src=""img/set1/S4.jpg"" width=""540"" height = ""360"" style=""border:16px solid orange"">","null","","","","","","","",""
"null","","html-keyboard-response","277","315101","0.0-206.0","38YMOXR4MVLZ0S4BTBDK5O847PQW6A","A2I43BDUPAM00C","33Q5P9PUSP8QOKKNNN5S19YACNVCZX","","","null","","","","","","","",""
"661.6000000014901","","image-keyboard-response","278","315765","0.0-207.0","38YMOXR4MVLZ0S4BTBDK5O847PQW6A","A2I43BDUPAM00C","33Q5P9PUSP8QOKKNNN5S19YACNVCZX","","img/set1/S1.jpg","83","1","structured_normal","83","true","structured_normal,random,structured_incentive","1,2,2,3","",""
"null","","html-keyboard-response","279","316134","0.0-208.0","38YMOXR4MVLZ0S4BTBDK5O847PQW6A","A2I43BDUPAM00C","33Q5P9PUSP8QOKKNNN5S19YACNVCZX","","<img src=""img/set1/S1.jpg"" width=""540"" height = ""360"" style=""border:16px solid orange"">","null","","","","","","","",""
"null","","html-keyboard-response","280","316136","0.0-209.0","38YMOXR4MVLZ0S4BTBDK5O847PQW6A","A2I43BDUPAM00C","33Q5P9PUSP8QOKKNNN5S19YACNVCZX","","","null","","","","","","","",""
"550.5","","image-keyboard-response","281","316689","0.0-210.0","38YMOXR4MVLZ0S4BTBDK5O847PQW6A","A2I43BDUPAM00C","33Q5P9PUSP8QOKKNNN5S19YACNVCZX","","img/set1/S2.jpg","68","2","structured_normal","68","true","structured_normal,random,structured_incentive","1,2,2,3","",""
"null","","html-keyboard-response","282","317046","0.0-211.0","38YMOXR4MVLZ0S4BTBDK5O847PQW6A","A2I43BDUPAM00C","33Q5P9PUSP8QOKKNNN5S19YACNVCZX","","<img src=""img/set1/S2.jpg"" width=""540"" height = ""360"" style=""border:16px solid orange"">","null","","","","","","","",""
"null","","html-keyboard-response","283","317048","0.0-212.0","38YMOXR4MVLZ0S4BTBDK5O847PQW6A","A2I43BDUPAM00C","33Q5P9PUSP8QOKKNNN5S19YACNVCZX","","","null","","","","","","","",""
"753.7000000029802","","image-keyboard-response","284","317804","0.0-213.0","38YMOXR4MVLZ0S4BTBDK5O847PQW6A","A2I43BDUPAM00C","33Q5P9PUSP8QOKKNNN5S19YACNVCZX","","img/set1/S1.jpg","83","1","structured_normal","83","true","structured_normal,random,structured_incentive","1,2,2,3","",""
"null","","html-keyboard-response","285","318156","0.0-214.0","38YMOXR4MVLZ0S4BTBDK5O847PQW6A","A2I43BDUPAM00C","33Q5P9PUSP8QOKKNNN5S19YACNVCZX","","<img src=""img/set1/S1.jpg"" width=""540"" height = ""360"" style=""border:16px solid orange"">","null","","","","","","","",""
"null","","html-keyboard-response","286","318159","0.0-215.0","38YMOXR4MVLZ0S4BTBDK5O847PQW6A","A2I43BDUPAM00C","33Q5P9PUSP8QOKKNNN5S19YACNVCZX","","","null","","","","","","","",""
"723.7000000029802","","image-keyboard-response","287","318884","0.0-216.0","38YMOXR4MVLZ0S4BTBDK5O847PQW6A","A2I43BDUPAM00C","33Q5P9PUSP8QOKKNNN5S19YACNVCZX","","img/set1/S2.jpg","68","2","structured_normal","68","true","structured_normal,random,structured_incentive","1,2,2,3","",""
"null","","html-keyboard-response","288","319241","0.0-217.0","38YMOXR4MVLZ0S4BTBDK5O847PQW6A","A2I43BDUPAM00C","33Q5P9PUSP8QOKKNNN5S19YACNVCZX","","<img src=""img/set1/S2.jpg"" width=""540"" height = ""360"" style=""border:16px solid orange"">","null","","","","","","","",""
"null","","html-keyboard-response","289","319243","0.0-218.0","38YMOXR4MVLZ0S4BTBDK5O847PQW6A","A2I43BDUPAM00C","33Q5P9PUSP8QOKKNNN5S19YACNVCZX","","","null","","","","","","","",""
"729.3999999985099","","image-keyboard-response","290","319974","0.0-219.0","38YMOXR4MVLZ0S4BTBDK5O847PQW6A","A2I43BDUPAM00C","33Q5P9PUSP8QOKKNNN5S19YACNVCZX","","img/set1/S3.jpg","72","3","structured_normal","72","true","structured_normal,random,structured_incentive","1,2,2,3","",""
"null","","html-keyboard-response","291","320329","0.0-220.0","38YMOXR4MVLZ0S4BTBDK5O847PQW6A","A2I43BDUPAM00C","33Q5P9PUSP8QOKKNNN5S19YACNVCZX","","<img src=""img/set1/S3.jpg"" width=""540"" height = ""360"" style=""border:16px solid orange"">","null","","","","","","","",""
"null","","html-keyboard-response","292","320331","0.0-221.0","38YMOXR4MVLZ0S4BTBDK5O847PQW6A","A2I43BDUPAM00C","33Q5P9PUSP8QOKKNNN5S19YACNVCZX","","","null","","","","","","","",""
"702.3000000044703","","image-keyboard-response","293","321036","0.0-222.0","38YMOXR4MVLZ0S4BTBDK5O847PQW6A","A2I43BDUPAM00C","33Q5P9PUSP8QOKKNNN5S19YACNVCZX","","img/set1/S1.jpg","83","1","structured_normal","83","true","structured_normal,random,structured_incentive","1,2,2,3","",""
"null","","html-keyboard-response","294","321402","0.0-223.0","38YMOXR4MVLZ0S4BTBDK5O847PQW6A","A2I43BDUPAM00C","33Q5P9PUSP8QOKKNNN5S19YACNVCZX","","<img src=""img/set1/S1.jpg"" width=""540"" height = ""360"" style=""border:16px solid orange"">","null","","","","","","","",""
"null","","html-keyboard-response","295","321404","0.0-224.0","38YMOXR4MVLZ0S4BTBDK5O847PQW6A","A2I43BDUPAM00C","33Q5P9PUSP8QOKKNNN5S19YACNVCZX","","","null","","","","","","","",""
"784.7999999970198","","image-keyboard-response","296","322191","0.0-225.0","38YMOXR4MVLZ0S4BTBDK5O847PQW6A","A2I43BDUPAM00C","33Q5P9PUSP8QOKKNNN5S19YACNVCZX","","img/set1/S2.jpg","68","2","structured_normal","68","true","structured_normal,random,structured_incentive","1,2,2,3","",""
"null","","html-keyboard-response","297","322543","0.0-226.0","38YMOXR4MVLZ0S4BTBDK5O847PQW6A","A2I43BDUPAM00C","33Q5P9PUSP8QOKKNNN5S19YACNVCZX","","<img src=""img/set1/S2.jpg"" width=""540"" height = ""360"" style=""border:16px solid orange"">","null","","","","","","","",""
"null","","html-keyboard-response","298","322546","0.0-227.0","38YMOXR4MVLZ0S4BTBDK5O847PQW6A","A2I43BDUPAM00C","33Q5P9PUSP8QOKKNNN5S19YACNVCZX","","","null","","","","","","","",""
"745","","image-keyboard-response","299","323293","0.0-228.0","38YMOXR4MVLZ0S4BTBDK5O847PQW6A","A2I43BDUPAM00C","33Q5P9PUSP8QOKKNNN5S19YACNVCZX","","img/set1/S4.jpg","74","4","structured_normal","74","true","structured_normal,random,structured_incentive","1,2,2,3","",""
"null","","html-keyboard-response","300","323647","0.0-229.0","38YMOXR4MVLZ0S4BTBDK5O847PQW6A","A2I43BDUPAM00C","33Q5P9PUSP8QOKKNNN5S19YACNVCZX","","<img src=""img/set1/S4.jpg"" width=""540"" height = ""360"" style=""border:16px solid orange"">","null","","","","","","","",""
"null","","html-keyboard-response","301","323649","0.0-230.0","38YMOXR4MVLZ0S4BTBDK5O847PQW6A","A2I43BDUPAM00C","33Q5P9PUSP8QOKKNNN5S19YACNVCZX","","","null","","","","","","","",""
"622.7000000029802","","image-keyboard-response","302","324273","0.0-231.0","38YMOXR4MVLZ0S4BTBDK5O847PQW6A","A2I43BDUPAM00C","33Q5P9PUSP8QOKKNNN5S19YACNVCZX","","img/set1/S3.jpg","72","3","structured_normal","72","true","structured_normal,random,structured_incentive","1,2,2,3","",""
"null","","html-keyboard-response","303","324637","0.0-232.0","38YMOXR4MVLZ0S4BTBDK5O847PQW6A","A2I43BDUPAM00C","33Q5P9PUSP8QOKKNNN5S19YACNVCZX","","<img src=""img/set1/S3.jpg"" width=""540"" height = ""360"" style=""border:16px solid orange"">","null","","","","","","","",""
"null","","html-keyboard-response","304","324640","0.0-233.0","38YMOXR4MVLZ0S4BTBDK5O847PQW6A","A2I43BDUPAM00C","33Q5P9PUSP8QOKKNNN5S19YACNVCZX","","","null","","","","","","","",""
"515.7999999970198","","image-keyboard-response","305","325157","0.0-234.0","38YMOXR4MVLZ0S4BTBDK5O847PQW6A","A2I43BDUPAM00C","33Q5P9PUSP8QOKKNNN5S19YACNVCZX","","img/set1/S3.jpg","72","3","structured_normal","72","true","structured_normal,random,structured_incentive","1,2,2,3","",""
"null","","html-keyboard-response","306","325515","0.0-235.0","38YMOXR4MVLZ0S4BTBDK5O847PQW6A","A2I43BDUPAM00C","33Q5P9PUSP8QOKKNNN5S19YACNVCZX","","<img src=""img/set1/S3.jpg"" width=""540"" height = ""360"" style=""border:16px solid orange"">","null","","","","","","","",""
"null","","html-keyboard-response","307","325518","0.0-236.0","38YMOXR4MVLZ0S4BTBDK5O847PQW6A","A2I43BDUPAM00C","33Q5P9PUSP8QOKKNNN5S19YACNVCZX","","","null","","","","","","","",""
"456.40000000596046","","image-keyboard-response","308","325976","0.0-237.0","38YMOXR4MVLZ0S4BTBDK5O847PQW6A","A2I43BDUPAM00C","33Q5P9PUSP8QOKKNNN5S19YACNVCZX","","img/set1/S3.jpg","72","3","structured_normal","72","true","structured_normal,random,structured_incentive","1,2,2,3","",""
"null","","html-keyboard-response","309","326343","0.0-238.0","38YMOXR4MVLZ0S4BTBDK5O847PQW6A","A2I43BDUPAM00C","33Q5P9PUSP8QOKKNNN5S19YACNVCZX","","<img src=""img/set1/S3.jpg"" width=""540"" height = ""360"" style=""border:16px solid orange"">","null","","","","","","","",""
"null","","html-keyboard-response","310","326350","0.0-239.0","38YMOXR4MVLZ0S4BTBDK5O847PQW6A","A2I43BDUPAM00C","33Q5P9PUSP8QOKKNNN5S19YACNVCZX","","","null","","","","","","","",""
"1000.5","","image-keyboard-response","311","327352","0.0-240.0","38YMOXR4MVLZ0S4BTBDK5O847PQW6A","A2I43BDUPAM00C","33Q5P9PUSP8QOKKNNN5S19YACNVCZX","","img/set1/S2.jpg","68","2","structured_normal","68","true","structured_normal,random,structured_incentive","1,2,2,3","",""
"null","","html-keyboard-response","312","327724","0.0-241.0","38YMOXR4MVLZ0S4BTBDK5O847PQW6A","A2I43BDUPAM00C","33Q5P9PUSP8QOKKNNN5S19YACNVCZX","","<img src=""img/set1/S2.jpg"" width=""540"" height = ""360"" style=""border:16px solid orange"">","null","","","","","","","",""
"null","","html-keyboard-response","313","327729","0.0-242.0","38YMOXR4MVLZ0S4BTBDK5O847PQW6A","A2I43BDUPAM00C","33Q5P9PUSP8QOKKNNN5S19YACNVCZX","","","null","","","","","","","",""
"619.2000000029802","","image-keyboard-response","314","328350","0.0-243.0","38YMOXR4MVLZ0S4BTBDK5O847PQW6A","A2I43BDUPAM00C","33Q5P9PUSP8QOKKNNN5S19YACNVCZX","","img/set1/S3.jpg","72","3","structured_normal","72","true","structured_normal,random,structured_incentive","1,2,2,3","",""
"null","","html-keyboard-response","315","328710","0.0-244.0","38YMOXR4MVLZ0S4BTBDK5O847PQW6A","A2I43BDUPAM00C","33Q5P9PUSP8QOKKNNN5S19YACNVCZX","","<img src=""img/set1/S3.jpg"" width=""540"" height = ""360"" style=""border:16px solid orange"">","null","","","","","","","",""
"null","","html-keyboard-response","316","328713","0.0-245.0","38YMOXR4MVLZ0S4BTBDK5O847PQW6A","A2I43BDUPAM00C","33Q5P9PUSP8QOKKNNN5S19YACNVCZX","","","null","","","","","","","",""
"616","","image-keyboard-response","317","329331","0.0-246.0","38YMOXR4MVLZ0S4BTBDK5O847PQW6A","A2I43BDUPAM00C","33Q5P9PUSP8QOKKNNN5S19YACNVCZX","","img/set1/S4.jpg","74","4","structured_normal","74","true","structured_normal,random,structured_incentive","1,2,2,3","",""
"null","","html-keyboard-response","318","329700","0.0-247.0","38YMOXR4MVLZ0S4BTBDK5O847PQW6A","A2I43BDUPAM00C","33Q5P9PUSP8QOKKNNN5S19YACNVCZX","","<img src=""img/set1/S4.jpg"" width=""540"" height = ""360"" style=""border:16px solid orange"">","null","","","","","","","",""
"null","","html-keyboard-response","319","329702","0.0-248.0","38YMOXR4MVLZ0S4BTBDK5O847PQW6A","A2I43BDUPAM00C","33Q5P9PUSP8QOKKNNN5S19YACNVCZX","","","null","","","","","","","",""
"819.1000000014901","","image-keyboard-response","320","330523","0.0-249.0","38YMOXR4MVLZ0S4BTBDK5O847PQW6A","A2I43BDUPAM00C","33Q5P9PUSP8QOKKNNN5S19YACNVCZX","","img/set1/S3.jpg","72","3","structured_normal","72","true","structured_normal,random,structured_incentive","1,2,2,3","",""
"null","","html-keyboard-response","321","330878","0.0-250.0","38YMOXR4MVLZ0S4BTBDK5O847PQW6A","A2I43BDUPAM00C","33Q5P9PUSP8QOKKNNN5S19YACNVCZX","","<img src=""img/set1/S3.jpg"" width=""540"" height = ""360"" style=""border:16px solid orange"">","null","","","","","","","",""
"null","","html-keyboard-response","322","330880","0.0-251.0","38YMOXR4MVLZ0S4BTBDK5O847PQW6A","A2I43BDUPAM00C","33Q5P9PUSP8QOKKNNN5S19YACNVCZX","","","null","","","","","","","",""
"427.1000000014901","","image-keyboard-response","323","331309","0.0-252.0","38YMOXR4MVLZ0S4BTBDK5O847PQW6A","A2I43BDUPAM00C","33Q5P9PUSP8QOKKNNN5S19YACNVCZX","","img/set1/S3.jpg","72","3","structured_normal","72","true","structured_normal,random,structured_incentive","1,2,2,3","",""
"null","","html-keyboard-response","324","331665","0.0-253.0","38YMOXR4MVLZ0S4BTBDK5O847PQW6A","A2I43BDUPAM00C","33Q5P9PUSP8QOKKNNN5S19YACNVCZX","","<img src=""img/set1/S3.jpg"" width=""540"" height = ""360"" style=""border:16px solid orange"">","null","","","","","","","",""
"null","","html-keyboard-response","325","331667","0.0-254.0","38YMOXR4MVLZ0S4BTBDK5O847PQW6A","A2I43BDUPAM00C","33Q5P9PUSP8QOKKNNN5S19YACNVCZX","","","null","","","","","","","",""
"571.2999999970198","","image-keyboard-response","326","332241","0.0-255.0","38YMOXR4MVLZ0S4BTBDK5O847PQW6A","A2I43BDUPAM00C","33Q5P9PUSP8QOKKNNN5S19YACNVCZX","","img/set1/S2.jpg","68","2","structured_normal","68","true","structured_normal,random,structured_incentive","1,2,2,3","",""
"null","","html-keyboard-response","327","332603","0.0-256.0","38YMOXR4MVLZ0S4BTBDK5O847PQW6A","A2I43BDUPAM00C","33Q5P9PUSP8QOKKNNN5S19YACNVCZX","","<img src=""img/set1/S2.jpg"" width=""540"" height = ""360"" style=""border:16px solid orange"">","null","","","","","","","",""
"null","","html-keyboard-response","328","332607","0.0-257.0","38YMOXR4MVLZ0S4BTBDK5O847PQW6A","A2I43BDUPAM00C","33Q5P9PUSP8QOKKNNN5S19YACNVCZX","","","null","","","","","","","",""
"526.1999999955297","","image-keyboard-response","329","333135","0.0-258.0","38YMOXR4MVLZ0S4BTBDK5O847PQW6A","A2I43BDUPAM00C","33Q5P9PUSP8QOKKNNN5S19YACNVCZX","","img/set1/S1.jpg","83","1","structured_normal","83","true","structured_normal,random,structured_incentive","1,2,2,3","",""
"null","","html-keyboard-response","330","333489","0.0-259.0","38YMOXR4MVLZ0S4BTBDK5O847PQW6A","A2I43BDUPAM00C","33Q5P9PUSP8QOKKNNN5S19YACNVCZX","","<img src=""img/set1/S1.jpg"" width=""540"" height = ""360"" style=""border:16px solid orange"">","null","","","","","","","",""
"null","","html-keyboard-response","331","333491","0.0-260.0","38YMOXR4MVLZ0S4BTBDK5O847PQW6A","A2I43BDUPAM00C","33Q5P9PUSP8QOKKNNN5S19YACNVCZX","","","null","","","","","","","",""
"637","","image-keyboard-response","332","334130","0.0-261.0","38YMOXR4MVLZ0S4BTBDK5O847PQW6A","A2I43BDUPAM00C","33Q5P9PUSP8QOKKNNN5S19YACNVCZX","","img/set1/S3.jpg","72","3","structured_normal","72","true","structured_normal,random,structured_incentive","1,2,2,3","",""
"null","","html-keyboard-response","333","334495","0.0-262.0","38YMOXR4MVLZ0S4BTBDK5O847PQW6A","A2I43BDUPAM00C","33Q5P9PUSP8QOKKNNN5S19YACNVCZX","","<img src=""img/set1/S3.jpg"" width=""540"" height = ""360"" style=""border:16px solid orange"">","null","","","","","","","",""
"null","","html-keyboard-response","334","334497","0.0-263.0","38YMOXR4MVLZ0S4BTBDK5O847PQW6A","A2I43BDUPAM00C","33Q5P9PUSP8QOKKNNN5S19YACNVCZX","","","null","","","","","","","",""
"707.6000000014901","","image-keyboard-response","335","335207","0.0-264.0","38YMOXR4MVLZ0S4BTBDK5O847PQW6A","A2I43BDUPAM00C","33Q5P9PUSP8QOKKNNN5S19YACNVCZX","","img/set1/S1.jpg","83","1","structured_normal","83","true","structured_normal,random,structured_incentive","1,2,2,3","",""
"null","","html-keyboard-response","336","335563","0.0-265.0","38YMOXR4MVLZ0S4BTBDK5O847PQW6A","A2I43BDUPAM00C","33Q5P9PUSP8QOKKNNN5S19YACNVCZX","","<img src=""img/set1/S1.jpg"" width=""540"" height = ""360"" style=""border:16px solid orange"">","null","","","","","","","",""
"null","","html-keyboard-response","337","335565","0.0-266.0","38YMOXR4MVLZ0S4BTBDK5O847PQW6A","A2I43BDUPAM00C","33Q5P9PUSP8QOKKNNN5S19YACNVCZX","","","null","","","","","","","",""
"612","","image-keyboard-response","338","336179","0.0-267.0","38YMOXR4MVLZ0S4BTBDK5O847PQW6A","A2I43BDUPAM00C","33Q5P9PUSP8QOKKNNN5S19YACNVCZX","","img/set1/S2.jpg","68","2","structured_normal","68","true","structured_normal,random,structured_incentive","1,2,2,3","",""
"null","","html-keyboard-response","339","336539","0.0-268.0","38YMOXR4MVLZ0S4BTBDK5O847PQW6A","A2I43BDUPAM00C","33Q5P9PUSP8QOKKNNN5S19YACNVCZX","","<img src=""img/set1/S2.jpg"" width=""540"" height = ""360"" style=""border:16px solid orange"">","null","","","","","","","",""
"null","","html-keyboard-response","340","336541","0.0-269.0","38YMOXR4MVLZ0S4BTBDK5O847PQW6A","A2I43BDUPAM00C","33Q5P9PUSP8QOKKNNN5S19YACNVCZX","","","null","","","","","","","",""
"559.8000000044703","","image-keyboard-response","341","337102","0.0-270.0","38YMOXR4MVLZ0S4BTBDK5O847PQW6A","A2I43BDUPAM00C","33Q5P9PUSP8QOKKNNN5S19YACNVCZX","","img/set1/S1.jpg","83","1","structured_normal","83","true","structured_normal,random,structured_incentive","1,2,2,3","",""
"null","","html-keyboard-response","342","337469","0.0-271.0","38YMOXR4MVLZ0S4BTBDK5O847PQW6A","A2I43BDUPAM00C","33Q5P9PUSP8QOKKNNN5S19YACNVCZX","","<img src=""img/set1/S1.jpg"" width=""540"" height = ""360"" style=""border:16px solid orange"">","null","","","","","","","",""
"null","","html-keyboard-response","343","337471","0.0-272.0","38YMOXR4MVLZ0S4BTBDK5O847PQW6A","A2I43BDUPAM00C","33Q5P9PUSP8QOKKNNN5S19YACNVCZX","","","null","","","","","","","",""
"742.8000000044703","","image-keyboard-response","344","338216","0.0-273.0","38YMOXR4MVLZ0S4BTBDK5O847PQW6A","A2I43BDUPAM00C","33Q5P9PUSP8QOKKNNN5S19YACNVCZX","","img/set1/S2.jpg","68","2","structured_normal","68","true","structured_normal,random,structured_incentive","1,2,2,3","",""
"null","","html-keyboard-response","345","338577","0.0-274.0","38YMOXR4MVLZ0S4BTBDK5O847PQW6A","A2I43BDUPAM00C","33Q5P9PUSP8QOKKNNN5S19YACNVCZX","","<img src=""img/set1/S2.jpg"" width=""540"" height = ""360"" style=""border:16px solid orange"">","null","","","","","","","",""
"null","","html-keyboard-response","346","338579","0.0-275.0","38YMOXR4MVLZ0S4BTBDK5O847PQW6A","A2I43BDUPAM00C","33Q5P9PUSP8QOKKNNN5S19YACNVCZX","","","null","","","","","","","",""
"641","","image-keyboard-response","347","339222","0.0-276.0","38YMOXR4MVLZ0S4BTBDK5O847PQW6A","A2I43BDUPAM00C","33Q5P9PUSP8QOKKNNN5S19YACNVCZX","","img/set1/S3.jpg","72","3","structured_normal","72","true","structured_normal,random,structured_incentive","1,2,2,3","",""
"null","","html-keyboard-response","348","339575","0.0-277.0","38YMOXR4MVLZ0S4BTBDK5O847PQW6A","A2I43BDUPAM00C","33Q5P9PUSP8QOKKNNN5S19YACNVCZX","","<img src=""img/set1/S3.jpg"" width=""540"" height = ""360"" style=""border:16px solid orange"">","null","","","","","","","",""
"null","","html-keyboard-response","349","339578","0.0-278.0","38YMOXR4MVLZ0S4BTBDK5O847PQW6A","A2I43BDUPAM00C","33Q5P9PUSP8QOKKNNN5S19YACNVCZX","","","null","","","","","","","",""
"600.5","","image-keyboard-response","350","340180","0.0-279.0","38YMOXR4MVLZ0S4BTBDK5O847PQW6A","A2I43BDUPAM00C","33Q5P9PUSP8QOKKNNN5S19YACNVCZX","","img/set1/S4.jpg","74","4","structured_normal","74","true","structured_normal,random,structured_incentive","1,2,2,3","",""
"null","","html-keyboard-response","351","340534","0.0-280.0","38YMOXR4MVLZ0S4BTBDK5O847PQW6A","A2I43BDUPAM00C","33Q5P9PUSP8QOKKNNN5S19YACNVCZX","","<img src=""img/set1/S4.jpg"" width=""540"" height = ""360"" style=""border:16px solid orange"">","null","","","","","","","",""
"null","","html-keyboard-response","352","340537","0.0-281.0","38YMOXR4MVLZ0S4BTBDK5O847PQW6A","A2I43BDUPAM00C","33Q5P9PUSP8QOKKNNN5S19YACNVCZX","","","null","","","","","","","",""
"633.7000000029802","","image-keyboard-response","353","341172","0.0-282.0","38YMOXR4MVLZ0S4BTBDK5O847PQW6A","A2I43BDUPAM00C","33Q5P9PUSP8QOKKNNN5S19YACNVCZX","","img/set1/S1.jpg","68","1","structured_normal","83","false","structured_normal,random,structured_incentive","1,2,2,3","",""
"null","","html-keyboard-response","354","341533","0.0-283.0","38YMOXR4MVLZ0S4BTBDK5O847PQW6A","A2I43BDUPAM00C","33Q5P9PUSP8QOKKNNN5S19YACNVCZX","","<img src=""img/set1/S1.jpg"" width=""540"" height = ""360"">","null","","","","","","","",""
"null","","html-keyboard-response","355","341536","0.0-284.0","38YMOXR4MVLZ0S4BTBDK5O847PQW6A","A2I43BDUPAM00C","33Q5P9PUSP8QOKKNNN5S19YACNVCZX","","","null","","","","","","","",""
"14.5","","image-keyboard-response","356","341552","0.0-285.0","38YMOXR4MVLZ0S4BTBDK5O847PQW6A","A2I43BDUPAM00C","33Q5P9PUSP8QOKKNNN5S19YACNVCZX","","img/set1/S2.jpg","83","2","structured_normal","68","false","structured_normal,random,structured_incentive","1,2,2,3","",""
"null","","html-keyboard-response","357","341912","0.0-286.0","38YMOXR4MVLZ0S4BTBDK5O847PQW6A","A2I43BDUPAM00C","33Q5P9PUSP8QOKKNNN5S19YACNVCZX","","<img src=""img/set1/S2.jpg"" width=""540"" height = ""360"">","null","","","","","","","",""
"null","","html-keyboard-response","358","341915","0.0-287.0","38YMOXR4MVLZ0S4BTBDK5O847PQW6A","A2I43BDUPAM00C","33Q5P9PUSP8QOKKNNN5S19YACNVCZX","","","null","","","","","","","",""
"722.3999999985099","","image-keyboard-response","359","342639","0.0-288.0","38YMOXR4MVLZ0S4BTBDK5O847PQW6A","A2I43BDUPAM00C","33Q5P9PUSP8QOKKNNN5S19YACNVCZX","","img/set1/S4.jpg","74","4","structured_normal","74","true","structured_normal,random,structured_incentive","1,2,2,3","",""
"null","","html-keyboard-response","360","342993","0.0-289.0","38YMOXR4MVLZ0S4BTBDK5O847PQW6A","A2I43BDUPAM00C","33Q5P9PUSP8QOKKNNN5S19YACNVCZX","","<img src=""img/set1/S4.jpg"" width=""540"" height = ""360"" style=""border:16px solid orange"">","null","","","","","","","",""
"null","","html-keyboard-response","361","342997","0.0-290.0","38YMOXR4MVLZ0S4BTBDK5O847PQW6A","A2I43BDUPAM00C","33Q5P9PUSP8QOKKNNN5S19YACNVCZX","","","null","","","","","","","",""
"685.1000000014901","","image-keyboard-response","362","343685","0.0-291.0","38YMOXR4MVLZ0S4BTBDK5O847PQW6A","A2I43BDUPAM00C","33Q5P9PUSP8QOKKNNN5S19YACNVCZX","","img/set1/S3.jpg","72","3","structured_normal","72","true","structured_normal,random,structured_incentive","1,2,2,3","",""
"null","","html-keyboard-response","363","344052","0.0-292.0","38YMOXR4MVLZ0S4BTBDK5O847PQW6A","A2I43BDUPAM00C","33Q5P9PUSP8QOKKNNN5S19YACNVCZX","","<img src=""img/set1/S3.jpg"" width=""540"" height = ""360"" style=""border:16px solid orange"">","null","","","","","","","",""
"null","","html-keyboard-response","364","344055","0.0-293.0","38YMOXR4MVLZ0S4BTBDK5O847PQW6A","A2I43BDUPAM00C","33Q5P9PUSP8QOKKNNN5S19YACNVCZX","","","null","","","","","","","",""
"707.1000000014901","","image-keyboard-response","365","344764","0.0-294.0","38YMOXR4MVLZ0S4BTBDK5O847PQW6A","A2I43BDUPAM00C","33Q5P9PUSP8QOKKNNN5S19YACNVCZX","","img/set1/S4.jpg","74","4","structured_normal","74","true","structured_normal,random,structured_incentive","1,2,2,3","",""
"null","","html-keyboard-response","366","345127","0.0-295.0","38YMOXR4MVLZ0S4BTBDK5O847PQW6A","A2I43BDUPAM00C","33Q5P9PUSP8QOKKNNN5S19YACNVCZX","","<img src=""img/set1/S4.jpg"" width=""540"" height = ""360"" style=""border:16px solid orange"">","null","","","","","","","",""
"null","","html-keyboard-response","367","345129","0.0-296.0","38YMOXR4MVLZ0S4BTBDK5O847PQW6A","A2I43BDUPAM00C","33Q5P9PUSP8QOKKNNN5S19YACNVCZX","","","null","","","","","","","",""
"516.7000000029802","","image-keyboard-response","368","345648","0.0-297.0","38YMOXR4MVLZ0S4BTBDK5O847PQW6A","A2I43BDUPAM00C","33Q5P9PUSP8QOKKNNN5S19YACNVCZX","","img/set1/S4.jpg","74","4","structured_normal","74","true","structured_normal,random,structured_incentive","1,2,2,3","",""
"null","","html-keyboard-response","369","346013","0.0-298.0","38YMOXR4MVLZ0S4BTBDK5O847PQW6A","A2I43BDUPAM00C","33Q5P9PUSP8QOKKNNN5S19YACNVCZX","","<img src=""img/set1/S4.jpg"" width=""540"" height = ""360"" style=""border:16px solid orange"">","null","","","","","","","",""
"null","","html-keyboard-response","370","346015","0.0-299.0","38YMOXR4MVLZ0S4BTBDK5O847PQW6A","A2I43BDUPAM00C","33Q5P9PUSP8QOKKNNN5S19YACNVCZX","","","null","","","","","","","",""
"445.70000000298023","","image-keyboard-response","371","346463","0.0-300.0","38YMOXR4MVLZ0S4BTBDK5O847PQW6A","A2I43BDUPAM00C","33Q5P9PUSP8QOKKNNN5S19YACNVCZX","","img/set1/S4.jpg","74","4","structured_normal","74","true","structured_normal,random,structured_incentive","1,2,2,3","",""
"null","","html-keyboard-response","372","346825","0.0-301.0","38YMOXR4MVLZ0S4BTBDK5O847PQW6A","A2I43BDUPAM00C","33Q5P9PUSP8QOKKNNN5S19YACNVCZX","","<img src=""img/set1/S4.jpg"" width=""540"" height = ""360"" style=""border:16px solid orange"">","null","","","","","","","",""
"null","","html-keyboard-response","373","346827","0.0-302.0","38YMOXR4MVLZ0S4BTBDK5O847PQW6A","A2I43BDUPAM00C","33Q5P9PUSP8QOKKNNN5S19YACNVCZX","","","null","","","","","","","",""
"482.70000000298023","","image-keyboard-response","374","347312","0.0-303.0","38YMOXR4MVLZ0S4BTBDK5O847PQW6A","A2I43BDUPAM00C","33Q5P9PUSP8QOKKNNN5S19YACNVCZX","","img/set1/S4.jpg","74","4","structured_normal","74","true","structured_normal,random,structured_incentive","1,2,2,3","",""
"null","","html-keyboard-response","375","347670","0.0-304.0","38YMOXR4MVLZ0S4BTBDK5O847PQW6A","A2I43BDUPAM00C","33Q5P9PUSP8QOKKNNN5S19YACNVCZX","","<img src=""img/set1/S4.jpg"" width=""540"" height = ""360"" style=""border:16px solid orange"">","null","","","","","","","",""
"null","","html-keyboard-response","376","347673","0.0-305.0","38YMOXR4MVLZ0S4BTBDK5O847PQW6A","A2I43BDUPAM00C","33Q5P9PUSP8QOKKNNN5S19YACNVCZX","","","null","","","","","","","",""
"635.5","","image-keyboard-response","377","348310","0.0-306.0","38YMOXR4MVLZ0S4BTBDK5O847PQW6A","A2I43BDUPAM00C","33Q5P9PUSP8QOKKNNN5S19YACNVCZX","","img/set1/S3.jpg","72","3","structured_normal","72","true","structured_normal,random,structured_incentive","1,2,2,3","",""
"null","","html-keyboard-response","378","348666","0.0-307.0","38YMOXR4MVLZ0S4BTBDK5O847PQW6A","A2I43BDUPAM00C","33Q5P9PUSP8QOKKNNN5S19YACNVCZX","","<img src=""img/set1/S3.jpg"" width=""540"" height = ""360"" style=""border:16px solid orange"">","null","","","","","","","",""
"null","","html-keyboard-response","379","348668","0.0-308.0","38YMOXR4MVLZ0S4BTBDK5O847PQW6A","A2I43BDUPAM00C","33Q5P9PUSP8QOKKNNN5S19YACNVCZX","","","null","","","","","","","",""
"433.3999999985099","","image-keyboard-response","380","349103","0.0-309.0","38YMOXR4MVLZ0S4BTBDK5O847PQW6A","A2I43BDUPAM00C","33Q5P9PUSP8QOKKNNN5S19YACNVCZX","","img/set1/S3.jpg","72","3","structured_normal","72","true","structured_normal,random,structured_incentive","1,2,2,3","",""
"null","","html-keyboard-response","381","349476","0.0-310.0","38YMOXR4MVLZ0S4BTBDK5O847PQW6A","A2I43BDUPAM00C","33Q5P9PUSP8QOKKNNN5S19YACNVCZX","","<img src=""img/set1/S3.jpg"" width=""540"" height = ""360"" style=""border:16px solid orange"">","null","","","","","","","",""
"null","","html-keyboard-response","382","349479","0.0-311.0","38YMOXR4MVLZ0S4BTBDK5O847PQW6A","A2I43BDUPAM00C","33Q5P9PUSP8QOKKNNN5S19YACNVCZX","","","null","","","","","","","",""
"455.40000000596046","","image-keyboard-response","383","349936","0.0-312.0","38YMOXR4MVLZ0S4BTBDK5O847PQW6A","A2I43BDUPAM00C","33Q5P9PUSP8QOKKNNN5S19YACNVCZX","","img/set1/S3.jpg","72","3","structured_normal","72","true","structured_normal,random,structured_incentive","1,2,2,3","",""
"null","","html-keyboard-response","384","350295","0.0-313.0","38YMOXR4MVLZ0S4BTBDK5O847PQW6A","A2I43BDUPAM00C","33Q5P9PUSP8QOKKNNN5S19YACNVCZX","","<img src=""img/set1/S3.jpg"" width=""540"" height = ""360"" style=""border:16px solid orange"">","null","","","","","","","",""
"null","","html-keyboard-response","385","350297","0.0-314.0","38YMOXR4MVLZ0S4BTBDK5O847PQW6A","A2I43BDUPAM00C","33Q5P9PUSP8QOKKNNN5S19YACNVCZX","","","null","","","","","","","",""
"682.3000000044703","","image-keyboard-response","386","350981","0.0-315.0","38YMOXR4MVLZ0S4BTBDK5O847PQW6A","A2I43BDUPAM00C","33Q5P9PUSP8QOKKNNN5S19YACNVCZX","","img/set1/S4.jpg","74","4","structured_normal","74","true","structured_normal,random,structured_incentive","1,2,2,3","",""
"null","","html-keyboard-response","387","351341","0.0-316.0","38YMOXR4MVLZ0S4BTBDK5O847PQW6A","A2I43BDUPAM00C","33Q5P9PUSP8QOKKNNN5S19YACNVCZX","","<img src=""img/set1/S4.jpg"" width=""540"" height = ""360"" style=""border:16px solid orange"">","null","","","","","","","",""
"null","","html-keyboard-response","388","351344","0.0-317.0","38YMOXR4MVLZ0S4BTBDK5O847PQW6A","A2I43BDUPAM00C","33Q5P9PUSP8QOKKNNN5S19YACNVCZX","","","null","","","","","","","",""
"397.1000000014901","","image-keyboard-response","389","351744","0.0-318.0","38YMOXR4MVLZ0S4BTBDK5O847PQW6A","A2I43BDUPAM00C","33Q5P9PUSP8QOKKNNN5S19YACNVCZX","","img/set1/S4.jpg","74","4","structured_normal","74","true","structured_normal,random,structured_incentive","1,2,2,3","",""
"null","","html-keyboard-response","390","352107","0.0-319.0","38YMOXR4MVLZ0S4BTBDK5O847PQW6A","A2I43BDUPAM00C","33Q5P9PUSP8QOKKNNN5S19YACNVCZX","","<img src=""img/set1/S4.jpg"" width=""540"" height = ""360"" style=""border:16px solid orange"">","null","","","","","","","",""
"null","","html-keyboard-response","391","352110","0.0-320.0","38YMOXR4MVLZ0S4BTBDK5O847PQW6A","A2I43BDUPAM00C","33Q5P9PUSP8QOKKNNN5S19YACNVCZX","","","null","","","","","","","",""
"472.29999999701977","","image-keyboard-response","392","352584","0.0-321.0","38YMOXR4MVLZ0S4BTBDK5O847PQW6A","A2I43BDUPAM00C","33Q5P9PUSP8QOKKNNN5S19YACNVCZX","","img/set1/S4.jpg","74","4","structured_normal","74","true","structured_normal,random,structured_incentive","1,2,2,3","",""
"null","","html-keyboard-response","393","352948","0.0-322.0","38YMOXR4MVLZ0S4BTBDK5O847PQW6A","A2I43BDUPAM00C","33Q5P9PUSP8QOKKNNN5S19YACNVCZX","","<img src=""img/set1/S4.jpg"" width=""540"" height = ""360"" style=""border:16px solid orange"">","null","","","","","","","",""
"null","","html-keyboard-response","394","352951","0.0-323.0","38YMOXR4MVLZ0S4BTBDK5O847PQW6A","A2I43BDUPAM00C","33Q5P9PUSP8QOKKNNN5S19YACNVCZX","","","null","","","","","","","",""
"418.5","","image-keyboard-response","395","353372","0.0-324.0","38YMOXR4MVLZ0S4BTBDK5O847PQW6A","A2I43BDUPAM00C","33Q5P9PUSP8QOKKNNN5S19YACNVCZX","","img/set1/S4.jpg","74","4","structured_normal","74","true","structured_normal,random,structured_incentive","1,2,2,3","",""
"null","","html-keyboard-response","396","353741","0.0-325.0","38YMOXR4MVLZ0S4BTBDK5O847PQW6A","A2I43BDUPAM00C","33Q5P9PUSP8QOKKNNN5S19YACNVCZX","","<img src=""img/set1/S4.jpg"" width=""540"" height = ""360"" style=""border:16px solid orange"">","null","","","","","","","",""
"null","","html-keyboard-response","397","353744","0.0-326.0","38YMOXR4MVLZ0S4BTBDK5O847PQW6A","A2I43BDUPAM00C","33Q5P9PUSP8QOKKNNN5S19YACNVCZX","","","null","","","","","","","",""
"413.8999999985099","","image-keyboard-response","398","354159","0.0-327.0","38YMOXR4MVLZ0S4BTBDK5O847PQW6A","A2I43BDUPAM00C","33Q5P9PUSP8QOKKNNN5S19YACNVCZX","","img/set1/S3.jpg","72","3","structured_normal","72","true","structured_normal,random,structured_incentive","1,2,2,3","",""
"null","","html-keyboard-response","399","354532","0.0-328.0","38YMOXR4MVLZ0S4BTBDK5O847PQW6A","A2I43BDUPAM00C","33Q5P9PUSP8QOKKNNN5S19YACNVCZX","","<img src=""img/set1/S3.jpg"" width=""540"" height = ""360"" style=""border:16px solid orange"">","null","","","","","","","",""
"null","","html-keyboard-response","400","354534","0.0-329.0","38YMOXR4MVLZ0S4BTBDK5O847PQW6A","A2I43BDUPAM00C","33Q5P9PUSP8QOKKNNN5S19YACNVCZX","","","null","","","","","","","",""
"638.2000000029802","","image-keyboard-response","401","355174","0.0-330.0","38YMOXR4MVLZ0S4BTBDK5O847PQW6A","A2I43BDUPAM00C","33Q5P9PUSP8QOKKNNN5S19YACNVCZX","","img/set1/S1.jpg","83","1","structured_normal","83","true","structured_normal,random,structured_incentive","1,2,2,3","",""
"null","","html-keyboard-response","402","355545","0.0-331.0","38YMOXR4MVLZ0S4BTBDK5O847PQW6A","A2I43BDUPAM00C","33Q5P9PUSP8QOKKNNN5S19YACNVCZX","","<img src=""img/set1/S1.jpg"" width=""540"" height = ""360"" style=""border:16px solid orange"">","null","","","","","","","",""
"null","","html-keyboard-response","403","355548","0.0-332.0","38YMOXR4MVLZ0S4BTBDK5O847PQW6A","A2I43BDUPAM00C","33Q5P9PUSP8QOKKNNN5S19YACNVCZX","","","null","","","","","","","",""
"630","","image-keyboard-response","404","356180","0.0-333.0","38YMOXR4MVLZ0S4BTBDK5O847PQW6A","A2I43BDUPAM00C","33Q5P9PUSP8QOKKNNN5S19YACNVCZX","","img/set1/S3.jpg","72","3","structured_normal","72","true","structured_normal,random,structured_incentive","1,2,2,3","",""
"null","","html-keyboard-response","405","356542","0.0-334.0","38YMOXR4MVLZ0S4BTBDK5O847PQW6A","A2I43BDUPAM00C","33Q5P9PUSP8QOKKNNN5S19YACNVCZX","","<img src=""img/set1/S3.jpg"" width=""540"" height = ""360"" style=""border:16px solid orange"">","null","","","","","","","",""
"null","","html-keyboard-response","406","356544","0.0-335.0","38YMOXR4MVLZ0S4BTBDK5O847PQW6A","A2I43BDUPAM00C","33Q5P9PUSP8QOKKNNN5S19YACNVCZX","","","null","","","","","","","",""
"567.7000000029802","","image-keyboard-response","407","357114","0.0-336.0","38YMOXR4MVLZ0S4BTBDK5O847PQW6A","A2I43BDUPAM00C","33Q5P9PUSP8QOKKNNN5S19YACNVCZX","","img/set1/S1.jpg","83","1","structured_normal","83","true","structured_normal,random,structured_incentive","1,2,2,3","",""
"null","","html-keyboard-response","408","357477","0.0-337.0","38YMOXR4MVLZ0S4BTBDK5O847PQW6A","A2I43BDUPAM00C","33Q5P9PUSP8QOKKNNN5S19YACNVCZX","","<img src=""img/set1/S1.jpg"" width=""540"" height = ""360"" style=""border:16px solid orange"">","null","","","","","","","",""
"null","","html-keyboard-response","409","357479","0.0-338.0","38YMOXR4MVLZ0S4BTBDK5O847PQW6A","A2I43BDUPAM00C","33Q5P9PUSP8QOKKNNN5S19YACNVCZX","","","null","","","","","","","",""
"627.1999999955297","","image-keyboard-response","410","358108","0.0-339.0","38YMOXR4MVLZ0S4BTBDK5O847PQW6A","A2I43BDUPAM00C","33Q5P9PUSP8QOKKNNN5S19YACNVCZX","","img/set1/S2.jpg","68","2","structured_normal","68","true","structured_normal,random,structured_incentive","1,2,2,3","",""
"null","","html-keyboard-response","411","358462","0.0-340.0","38YMOXR4MVLZ0S4BTBDK5O847PQW6A","A2I43BDUPAM00C","33Q5P9PUSP8QOKKNNN5S19YACNVCZX","","<img src=""img/set1/S2.jpg"" width=""540"" height = ""360"" style=""border:16px solid orange"">","null","","","","","","","",""
"null","","html-keyboard-response","412","358466","0.0-341.0","38YMOXR4MVLZ0S4BTBDK5O847PQW6A","A2I43BDUPAM00C","33Q5P9PUSP8QOKKNNN5S19YACNVCZX","","","null","","","","","","","",""
"720.2999999970198","","image-keyboard-response","413","359188","0.0-342.0","38YMOXR4MVLZ0S4BTBDK5O847PQW6A","A2I43BDUPAM00C","33Q5P9PUSP8QOKKNNN5S19YACNVCZX","","img/set1/S3.jpg","72","3","structured_normal","72","true","structured_normal,random,structured_incentive","1,2,2,3","",""
