"rt","url","trial_type","trial_index","time_elapsed","internal_node_id","assignmentID","mturkID","hitID","view_history","stimulus","key_press","state","test_part","correct_response","correct","order_block","order_chunk","bonus","responses"
"761400.1000000238","consent.html","external-html","0","761510","0.0-0.0","34Q075JO1YZBLG2TUY8I3X8JY9W10G","A2I4PRZ9IZMKON","39N6W9XWRD9306QNTNZSDTAN4LJGYK","","","","","","","","","","",""
"67490.5","","instructions","1","829002","0.0-1.0","34Q075JO1YZBLG2TUY8I3X8JY9W10G","A2I4PRZ9IZMKON","39N6W9XWRD9306QNTNZSDTAN4LJGYK","[{""page_index"":0,""viewing_time"":9853.799999952316},{""page_index"":1,""viewing_time"":4591.200000047684},{""page_index"":2,""viewing_time"":6289.799999952316},{""page_index"":3,""viewing_time"":11091.100000023842},{""page_index"":4,""viewing_time"":7701.5},{""page_index"":5,""viewing_time"":11785.5},{""page_index"":6,""viewing_time"":7640.399999976158},{""page_index"":7,""viewing_time"":8536.300000071526}]","","","","","","","","","",""
"null","","image-keyboard-response","2","831505","0.0-2.0-0.0","34Q075JO1YZBLG2TUY8I3X8JY9W10G","A2I4PRZ9IZMKON","39N6W9XWRD9306QNTNZSDTAN4LJGYK","","img/practice/S2.jpg","null","2","practice","68","false","","","",""
"null","","html-keyboard-response","3","831807","0.0-2.0-1.0","34Q075JO1YZBLG2TUY8I3X8JY9W10G","A2I4PRZ9IZMKON","39N6W9XWRD9306QNTNZSDTAN4LJGYK","","<img src=""img/practice/S2.jpg"" width=""540"" height = ""360"">","null","","","","","","","",""
"null","","html-keyboard-response","4","831811","0.0-2.0-2.0","34Q075JO1YZBLG2TUY8I3X8JY9W10G","A2I4PRZ9IZMKON","39N6W9XWRD9306QNTNZSDTAN4LJGYK","","","null","","","","","","","",""
"889.6999999284744","","image-keyboard-response","5","832703","0.0-2.0-0.1","34Q075JO1YZBLG2TUY8I3X8JY9W10G","A2I4PRZ9IZMKON","39N6W9XWRD9306QNTNZSDTAN4LJGYK","","img/practice/S3.jpg","74","3","practice","72","false","","","",""
"null","","html-keyboard-response","6","833007","0.0-2.0-1.1","34Q075JO1YZBLG2TUY8I3X8JY9W10G","A2I4PRZ9IZMKON","39N6W9XWRD9306QNTNZSDTAN4LJGYK","","<img src=""img/practice/S3.jpg"" width=""540"" height = ""360"">","null","","","","","","","",""
"null","","html-keyboard-response","7","833010","0.0-2.0-2.1","34Q075JO1YZBLG2TUY8I3X8JY9W10G","A2I4PRZ9IZMKON","39N6W9XWRD9306QNTNZSDTAN4LJGYK","","","null","","","","","","","",""
"828.1000000238419","","image-keyboard-response","8","833840","0.0-2.0-0.2","34Q075JO1YZBLG2TUY8I3X8JY9W10G","A2I4PRZ9IZMKON","39N6W9XWRD9306QNTNZSDTAN4LJGYK","","img/practice/S1.jpg","72","1","practice","83","false","","","",""
"null","","html-keyboard-response","9","834142","0.0-2.0-1.2","34Q075JO1YZBLG2TUY8I3X8JY9W10G","A2I4PRZ9IZMKON","39N6W9XWRD9306QNTNZSDTAN4LJGYK","","<img src=""img/practice/S1.jpg"" width=""540"" height = ""360"">","null","","","","","","","",""
"null","","html-keyboard-response","10","834144","0.0-2.0-2.2","34Q075JO1YZBLG2TUY8I3X8JY9W10G","A2I4PRZ9IZMKON","39N6W9XWRD9306QNTNZSDTAN4LJGYK","","","null","","","","","","","",""
"881.6000000238419","","image-keyboard-response","11","835027","0.0-2.0-0.3","34Q075JO1YZBLG2TUY8I3X8JY9W10G","A2I4PRZ9IZMKON","39N6W9XWRD9306QNTNZSDTAN4LJGYK","","img/practice/S4.jpg","68","4","practice","74","false","","","",""
"null","","html-keyboard-response","12","835329","0.0-2.0-1.3","34Q075JO1YZBLG2TUY8I3X8JY9W10G","A2I4PRZ9IZMKON","39N6W9XWRD9306QNTNZSDTAN4LJGYK","","<img src=""img/practice/S4.jpg"" width=""540"" height = ""360"">","null","","","","","","","",""
"null","","html-keyboard-response","13","835331","0.0-2.0-2.3","34Q075JO1YZBLG2TUY8I3X8JY9W10G","A2I4PRZ9IZMKON","39N6W9XWRD9306QNTNZSDTAN4LJGYK","","","null","","","","","","","",""
"2320.7999999523163","","image-keyboard-response","14","837654","0.0-2.0-0.4","34Q075JO1YZBLG2TUY8I3X8JY9W10G","A2I4PRZ9IZMKON","39N6W9XWRD9306QNTNZSDTAN4LJGYK","","img/practice/S4.jpg","68","4","practice","74","false","","","",""
"null","","html-keyboard-response","15","837960","0.0-2.0-1.4","34Q075JO1YZBLG2TUY8I3X8JY9W10G","A2I4PRZ9IZMKON","39N6W9XWRD9306QNTNZSDTAN4LJGYK","","<img src=""img/practice/S4.jpg"" width=""540"" height = ""360"">","null","","","","","","","",""
"null","","html-keyboard-response","16","837962","0.0-2.0-2.4","34Q075JO1YZBLG2TUY8I3X8JY9W10G","A2I4PRZ9IZMKON","39N6W9XWRD9306QNTNZSDTAN4LJGYK","","","null","","","","","","","",""
"126.30000007152557","","image-keyboard-response","17","838090","0.0-2.0-0.5","34Q075JO1YZBLG2TUY8I3X8JY9W10G","A2I4PRZ9IZMKON","39N6W9XWRD9306QNTNZSDTAN4LJGYK","","img/practice/S1.jpg","83","1","practice","83","true","","","",""
"null","","html-keyboard-response","18","838391","0.0-2.0-1.5","34Q075JO1YZBLG2TUY8I3X8JY9W10G","A2I4PRZ9IZMKON","39N6W9XWRD9306QNTNZSDTAN4LJGYK","","<img src=""img/practice/S1.jpg"" width=""540"" height = ""360"" style=""border:16px solid orange"">","null","","","","","","","",""
"null","","html-keyboard-response","19","838393","0.0-2.0-2.5","34Q075JO1YZBLG2TUY8I3X8JY9W10G","A2I4PRZ9IZMKON","39N6W9XWRD9306QNTNZSDTAN4LJGYK","","","null","","","","","","","",""
"1425.5","","image-keyboard-response","20","839820","0.0-2.0-0.6","34Q075JO1YZBLG2TUY8I3X8JY9W10G","A2I4PRZ9IZMKON","39N6W9XWRD9306QNTNZSDTAN4LJGYK","","img/practice/S3.jpg","68","3","practice","72","false","","","",""
"null","","html-keyboard-response","21","840123","0.0-2.0-1.6","34Q075JO1YZBLG2TUY8I3X8JY9W10G","A2I4PRZ9IZMKON","39N6W9XWRD9306QNTNZSDTAN4LJGYK","","<img src=""img/practice/S3.jpg"" width=""540"" height = ""360"">","null","","","","","","","",""
"null","","html-keyboard-response","22","840126","0.0-2.0-2.6","34Q075JO1YZBLG2TUY8I3X8JY9W10G","A2I4PRZ9IZMKON","39N6W9XWRD9306QNTNZSDTAN4LJGYK","","","null","","","","","","","",""
"692.3999999761581","","image-keyboard-response","23","840820","0.0-2.0-0.7","34Q075JO1YZBLG2TUY8I3X8JY9W10G","A2I4PRZ9IZMKON","39N6W9XWRD9306QNTNZSDTAN4LJGYK","","img/practice/S2.jpg","72","2","practice","68","false","","","",""
"null","","html-keyboard-response","24","841129","0.0-2.0-1.7","34Q075JO1YZBLG2TUY8I3X8JY9W10G","A2I4PRZ9IZMKON","39N6W9XWRD9306QNTNZSDTAN4LJGYK","","<img src=""img/practice/S2.jpg"" width=""540"" height = ""360"">","null","","","","","","","",""
"null","","html-keyboard-response","25","841132","0.0-2.0-2.7","34Q075JO1YZBLG2TUY8I3X8JY9W10G","A2I4PRZ9IZMKON","39N6W9XWRD9306QNTNZSDTAN4LJGYK","","","null","","","","","","","",""
"11.899999976158142","","image-keyboard-response","26","841145","0.0-2.0-0.8","34Q075JO1YZBLG2TUY8I3X8JY9W10G","A2I4PRZ9IZMKON","39N6W9XWRD9306QNTNZSDTAN4LJGYK","","img/practice/S1.jpg","74","1","practice","83","false","","","",""
"null","","html-keyboard-response","27","841448","0.0-2.0-1.8","34Q075JO1YZBLG2TUY8I3X8JY9W10G","A2I4PRZ9IZMKON","39N6W9XWRD9306QNTNZSDTAN4LJGYK","","<img src=""img/practice/S1.jpg"" width=""540"" height = ""360"">","null","","","","","","","",""
"null","","html-keyboard-response","28","841451","0.0-2.0-2.8","34Q075JO1YZBLG2TUY8I3X8JY9W10G","A2I4PRZ9IZMKON","39N6W9XWRD9306QNTNZSDTAN4LJGYK","","","null","","","","","","","",""
"588.5","","image-keyboard-response","29","842042","0.0-2.0-0.9","34Q075JO1YZBLG2TUY8I3X8JY9W10G","A2I4PRZ9IZMKON","39N6W9XWRD9306QNTNZSDTAN4LJGYK","","img/practice/S3.jpg","68","3","practice","72","false","","","",""
"null","","html-keyboard-response","30","842349","0.0-2.0-1.9","34Q075JO1YZBLG2TUY8I3X8JY9W10G","A2I4PRZ9IZMKON","39N6W9XWRD9306QNTNZSDTAN4LJGYK","","<img src=""img/practice/S3.jpg"" width=""540"" height = ""360"">","null","","","","","","","",""
"null","","html-keyboard-response","31","842352","0.0-2.0-2.9","34Q075JO1YZBLG2TUY8I3X8JY9W10G","A2I4PRZ9IZMKON","39N6W9XWRD9306QNTNZSDTAN4LJGYK","","","null","","","","","","","",""
"552.2000000476837","","image-keyboard-response","32","842906","0.0-2.0-0.10","34Q075JO1YZBLG2TUY8I3X8JY9W10G","A2I4PRZ9IZMKON","39N6W9XWRD9306QNTNZSDTAN4LJGYK","","img/practice/S4.jpg","72","4","practice","74","false","","","",""
"null","","html-keyboard-response","33","843208","0.0-2.0-1.10","34Q075JO1YZBLG2TUY8I3X8JY9W10G","A2I4PRZ9IZMKON","39N6W9XWRD9306QNTNZSDTAN4LJGYK","","<img src=""img/practice/S4.jpg"" width=""540"" height = ""360"">","null","","","","","","","",""
"null","","html-keyboard-response","34","843210","0.0-2.0-2.10","34Q075JO1YZBLG2TUY8I3X8JY9W10G","A2I4PRZ9IZMKON","39N6W9XWRD9306QNTNZSDTAN4LJGYK","","","null","","","","","","","",""
"549.7000000476837","","image-keyboard-response","35","843762","0.0-2.0-0.11","34Q075JO1YZBLG2TUY8I3X8JY9W10G","A2I4PRZ9IZMKON","39N6W9XWRD9306QNTNZSDTAN4LJGYK","","img/practice/S2.jpg","74","2","practice","68","false","","","",""
"null","","html-keyboard-response","36","844079","0.0-2.0-1.11","34Q075JO1YZBLG2TUY8I3X8JY9W10G","A2I4PRZ9IZMKON","39N6W9XWRD9306QNTNZSDTAN4LJGYK","","<img src=""img/practice/S2.jpg"" width=""540"" height = ""360"">","null","","","","","","","",""
"null","","html-keyboard-response","37","844081","0.0-2.0-2.11","34Q075JO1YZBLG2TUY8I3X8JY9W10G","A2I4PRZ9IZMKON","39N6W9XWRD9306QNTNZSDTAN4LJGYK","","","null","","","","","","","",""
"1697","","image-keyboard-response","38","845780","0.0-2.0-0.12","34Q075JO1YZBLG2TUY8I3X8JY9W10G","A2I4PRZ9IZMKON","39N6W9XWRD9306QNTNZSDTAN4LJGYK","","img/practice/S3.jpg","68","3","practice","72","false","","","",""
"null","","html-keyboard-response","39","846083","0.0-2.0-1.12","34Q075JO1YZBLG2TUY8I3X8JY9W10G","A2I4PRZ9IZMKON","39N6W9XWRD9306QNTNZSDTAN4LJGYK","","<img src=""img/practice/S3.jpg"" width=""540"" height = ""360"">","null","","","","","","","",""
"null","","html-keyboard-response","40","846085","0.0-2.0-2.12","34Q075JO1YZBLG2TUY8I3X8JY9W10G","A2I4PRZ9IZMKON","39N6W9XWRD9306QNTNZSDTAN4LJGYK","","","null","","","","","","","",""
"788.3999999761581","","image-keyboard-response","41","846876","0.0-2.0-0.13","34Q075JO1YZBLG2TUY8I3X8JY9W10G","A2I4PRZ9IZMKON","39N6W9XWRD9306QNTNZSDTAN4LJGYK","","img/practice/S2.jpg","68","2","practice","68","true","","","",""
"null","","html-keyboard-response","42","847178","0.0-2.0-1.13","34Q075JO1YZBLG2TUY8I3X8JY9W10G","A2I4PRZ9IZMKON","39N6W9XWRD9306QNTNZSDTAN4LJGYK","","<img src=""img/practice/S2.jpg"" width=""540"" height = ""360"" style=""border:16px solid orange"">","null","","","","","","","",""
"null","","html-keyboard-response","43","847180","0.0-2.0-2.13","34Q075JO1YZBLG2TUY8I3X8JY9W10G","A2I4PRZ9IZMKON","39N6W9XWRD9306QNTNZSDTAN4LJGYK","","","null","","","","","","","",""
"721.3999999761581","","image-keyboard-response","44","847903","0.0-2.0-0.14","34Q075JO1YZBLG2TUY8I3X8JY9W10G","A2I4PRZ9IZMKON","39N6W9XWRD9306QNTNZSDTAN4LJGYK","","img/practice/S4.jpg","72","4","practice","74","false","","","",""
"null","","html-keyboard-response","45","848205","0.0-2.0-1.14","34Q075JO1YZBLG2TUY8I3X8JY9W10G","A2I4PRZ9IZMKON","39N6W9XWRD9306QNTNZSDTAN4LJGYK","","<img src=""img/practice/S4.jpg"" width=""540"" height = ""360"">","null","","","","","","","",""
"null","","html-keyboard-response","46","848208","0.0-2.0-2.14","34Q075JO1YZBLG2TUY8I3X8JY9W10G","A2I4PRZ9IZMKON","39N6W9XWRD9306QNTNZSDTAN4LJGYK","","","null","","","","","","","",""
"746.6000000238419","","image-keyboard-response","47","848956","0.0-2.0-0.15","34Q075JO1YZBLG2TUY8I3X8JY9W10G","A2I4PRZ9IZMKON","39N6W9XWRD9306QNTNZSDTAN4LJGYK","","img/practice/S1.jpg","72","1","practice","83","false","","","",""
"null","","html-keyboard-response","48","849259","0.0-2.0-1.15","34Q075JO1YZBLG2TUY8I3X8JY9W10G","A2I4PRZ9IZMKON","39N6W9XWRD9306QNTNZSDTAN4LJGYK","","<img src=""img/practice/S1.jpg"" width=""540"" height = ""360"">","null","","","","","","","",""
"null","","html-keyboard-response","49","849262","0.0-2.0-2.15","34Q075JO1YZBLG2TUY8I3X8JY9W10G","A2I4PRZ9IZMKON","39N6W9XWRD9306QNTNZSDTAN4LJGYK","","","null","","","","","","","",""
"817.5","","image-keyboard-response","50","850081","0.0-2.0-0.16","34Q075JO1YZBLG2TUY8I3X8JY9W10G","A2I4PRZ9IZMKON","39N6W9XWRD9306QNTNZSDTAN4LJGYK","","img/practice/S2.jpg","68","2","practice","68","true","","","",""
"null","","html-keyboard-response","51","850384","0.0-2.0-1.16","34Q075JO1YZBLG2TUY8I3X8JY9W10G","A2I4PRZ9IZMKON","39N6W9XWRD9306QNTNZSDTAN4LJGYK","","<img src=""img/practice/S2.jpg"" width=""540"" height = ""360"" style=""border:16px solid orange"">","null","","","","","","","",""
"null","","html-keyboard-response","52","850386","0.0-2.0-2.16","34Q075JO1YZBLG2TUY8I3X8JY9W10G","A2I4PRZ9IZMKON","39N6W9XWRD9306QNTNZSDTAN4LJGYK","","","null","","","","","","","",""
"511.5","","image-keyboard-response","53","850900","0.0-2.0-0.17","34Q075JO1YZBLG2TUY8I3X8JY9W10G","A2I4PRZ9IZMKON","39N6W9XWRD9306QNTNZSDTAN4LJGYK","","img/practice/S1.jpg","72","1","practice","83","false","","","",""
"null","","html-keyboard-response","54","851209","0.0-2.0-1.17","34Q075JO1YZBLG2TUY8I3X8JY9W10G","A2I4PRZ9IZMKON","39N6W9XWRD9306QNTNZSDTAN4LJGYK","","<img src=""img/practice/S1.jpg"" width=""540"" height = ""360"">","null","","","","","","","",""
"null","","html-keyboard-response","55","851211","0.0-2.0-2.17","34Q075JO1YZBLG2TUY8I3X8JY9W10G","A2I4PRZ9IZMKON","39N6W9XWRD9306QNTNZSDTAN4LJGYK","","","null","","","","","","","",""
"1021.8000000715256","","image-keyboard-response","56","852235","0.0-2.0-0.18","34Q075JO1YZBLG2TUY8I3X8JY9W10G","A2I4PRZ9IZMKON","39N6W9XWRD9306QNTNZSDTAN4LJGYK","","img/practice/S4.jpg","83","4","practice","74","false","","","",""
"null","","html-keyboard-response","57","852536","0.0-2.0-1.18","34Q075JO1YZBLG2TUY8I3X8JY9W10G","A2I4PRZ9IZMKON","39N6W9XWRD9306QNTNZSDTAN4LJGYK","","<img src=""img/practice/S4.jpg"" width=""540"" height = ""360"">","null","","","","","","","",""
"null","","html-keyboard-response","58","852539","0.0-2.0-2.18","34Q075JO1YZBLG2TUY8I3X8JY9W10G","A2I4PRZ9IZMKON","39N6W9XWRD9306QNTNZSDTAN4LJGYK","","","null","","","","","","","",""
"945","","image-keyboard-response","59","853486","0.0-2.0-0.19","34Q075JO1YZBLG2TUY8I3X8JY9W10G","A2I4PRZ9IZMKON","39N6W9XWRD9306QNTNZSDTAN4LJGYK","","img/practice/S3.jpg","83","3","practice","72","false","","","",""
"null","","html-keyboard-response","60","853787","0.0-2.0-1.19","34Q075JO1YZBLG2TUY8I3X8JY9W10G","A2I4PRZ9IZMKON","39N6W9XWRD9306QNTNZSDTAN4LJGYK","","<img src=""img/practice/S3.jpg"" width=""540"" height = ""360"">","null","","","","","","","",""
"null","","html-keyboard-response","61","853790","0.0-2.0-2.19","34Q075JO1YZBLG2TUY8I3X8JY9W10G","A2I4PRZ9IZMKON","39N6W9XWRD9306QNTNZSDTAN4LJGYK","","","null","","","","","","","",""
"709.7000000476837","","image-keyboard-response","62","854502","0.0-2.0-0.20","34Q075JO1YZBLG2TUY8I3X8JY9W10G","A2I4PRZ9IZMKON","39N6W9XWRD9306QNTNZSDTAN4LJGYK","","img/practice/S2.jpg","83","2","practice","68","false","","","",""
"null","","html-keyboard-response","63","854805","0.0-2.0-1.20","34Q075JO1YZBLG2TUY8I3X8JY9W10G","A2I4PRZ9IZMKON","39N6W9XWRD9306QNTNZSDTAN4LJGYK","","<img src=""img/practice/S2.jpg"" width=""540"" height = ""360"">","null","","","","","","","",""
"null","","html-keyboard-response","64","854807","0.0-2.0-2.20","34Q075JO1YZBLG2TUY8I3X8JY9W10G","A2I4PRZ9IZMKON","39N6W9XWRD9306QNTNZSDTAN4LJGYK","","","null","","","","","","","",""
"747.1000000238419","","image-keyboard-response","65","855556","0.0-2.0-0.21","34Q075JO1YZBLG2TUY8I3X8JY9W10G","A2I4PRZ9IZMKON","39N6W9XWRD9306QNTNZSDTAN4LJGYK","","img/practice/S1.jpg","83","1","practice","83","true","","","",""
"null","","html-keyboard-response","66","855859","0.0-2.0-1.21","34Q075JO1YZBLG2TUY8I3X8JY9W10G","A2I4PRZ9IZMKON","39N6W9XWRD9306QNTNZSDTAN4LJGYK","","<img src=""img/practice/S1.jpg"" width=""540"" height = ""360"" style=""border:16px solid orange"">","null","","","","","","","",""
"null","","html-keyboard-response","67","855861","0.0-2.0-2.21","34Q075JO1YZBLG2TUY8I3X8JY9W10G","A2I4PRZ9IZMKON","39N6W9XWRD9306QNTNZSDTAN4LJGYK","","","null","","","","","","","",""
"880.6000000238419","","image-keyboard-response","68","856744","0.0-2.0-0.22","34Q075JO1YZBLG2TUY8I3X8JY9W10G","A2I4PRZ9IZMKON","39N6W9XWRD9306QNTNZSDTAN4LJGYK","","img/practice/S3.jpg","72","3","practice","72","true","","","",""
"null","","html-keyboard-response","69","857047","0.0-2.0-1.22","34Q075JO1YZBLG2TUY8I3X8JY9W10G","A2I4PRZ9IZMKON","39N6W9XWRD9306QNTNZSDTAN4LJGYK","","<img src=""img/practice/S3.jpg"" width=""540"" height = ""360"" style=""border:16px solid orange"">","null","","","","","","","",""
"null","","html-keyboard-response","70","857051","0.0-2.0-2.22","34Q075JO1YZBLG2TUY8I3X8JY9W10G","A2I4PRZ9IZMKON","39N6W9XWRD9306QNTNZSDTAN4LJGYK","","","null","","","","","","","",""
"917.1000000238419","","image-keyboard-response","71","857970","0.0-2.0-0.23","34Q075JO1YZBLG2TUY8I3X8JY9W10G","A2I4PRZ9IZMKON","39N6W9XWRD9306QNTNZSDTAN4LJGYK","","img/practice/S4.jpg","74","4","practice","74","true","","","",""
"null","","html-keyboard-response","72","858272","0.0-2.0-1.23","34Q075JO1YZBLG2TUY8I3X8JY9W10G","A2I4PRZ9IZMKON","39N6W9XWRD9306QNTNZSDTAN4LJGYK","","<img src=""img/practice/S4.jpg"" width=""540"" height = ""360"" style=""border:16px solid orange"">","null","","","","","","","",""
"null","","html-keyboard-response","73","858274","0.0-2.0-2.23","34Q075JO1YZBLG2TUY8I3X8JY9W10G","A2I4PRZ9IZMKON","39N6W9XWRD9306QNTNZSDTAN4LJGYK","","","null","","","","","","","",""
"1995.5999999046326","","instructions","74","860271","0.0-3.0","34Q075JO1YZBLG2TUY8I3X8JY9W10G","A2I4PRZ9IZMKON","39N6W9XWRD9306QNTNZSDTAN4LJGYK","[{""page_index"":0,""viewing_time"":1995.2999999523163}]","","","","","","","","","",""
"35635.60000002384","","instructions","75","895907","0.0-4.0","34Q075JO1YZBLG2TUY8I3X8JY9W10G","A2I4PRZ9IZMKON","39N6W9XWRD9306QNTNZSDTAN4LJGYK","[{""page_index"":0,""viewing_time"":35635}]","","","","","","","","","",""
"6670.799999952316","","instructions","76","902579","0.0-5.0","34Q075JO1YZBLG2TUY8I3X8JY9W10G","A2I4PRZ9IZMKON","39N6W9XWRD9306QNTNZSDTAN4LJGYK","[{""page_index"":0,""viewing_time"":6670.299999952316}]","","","","","","","","","",""
"1211.4000000953674","","image-keyboard-response","77","903792","0.0-6.0","34Q075JO1YZBLG2TUY8I3X8JY9W10G","A2I4PRZ9IZMKON","39N6W9XWRD9306QNTNZSDTAN4LJGYK","","img/set1/S4.jpg","83","4","structured_normal","74","false","structured_normal,structured_incentive,random","1,2,2,3","",""
"null","","html-keyboard-response","78","904146","0.0-7.0","34Q075JO1YZBLG2TUY8I3X8JY9W10G","A2I4PRZ9IZMKON","39N6W9XWRD9306QNTNZSDTAN4LJGYK","","<img src=""img/set1/S4.jpg"" width=""540"" height = ""360"">","null","","","","","","","",""
"null","","html-keyboard-response","79","904149","0.0-8.0","34Q075JO1YZBLG2TUY8I3X8JY9W10G","A2I4PRZ9IZMKON","39N6W9XWRD9306QNTNZSDTAN4LJGYK","","","null","","","","","","","",""
"978.7000000476837","","image-keyboard-response","80","905130","0.0-9.0","34Q075JO1YZBLG2TUY8I3X8JY9W10G","A2I4PRZ9IZMKON","39N6W9XWRD9306QNTNZSDTAN4LJGYK","","img/set1/S3.jpg","83","3","structured_normal","72","false","structured_normal,structured_incentive,random","1,2,2,3","",""
"null","","html-keyboard-response","81","905482","0.0-10.0","34Q075JO1YZBLG2TUY8I3X8JY9W10G","A2I4PRZ9IZMKON","39N6W9XWRD9306QNTNZSDTAN4LJGYK","","<img src=""img/set1/S3.jpg"" width=""540"" height = ""360"">","null","","","","","","","",""
"null","","html-keyboard-response","82","905485","0.0-11.0","34Q075JO1YZBLG2TUY8I3X8JY9W10G","A2I4PRZ9IZMKON","39N6W9XWRD9306QNTNZSDTAN4LJGYK","","","null","","","","","","","",""
"734.7000000476837","","image-keyboard-response","83","906222","0.0-12.0","34Q075JO1YZBLG2TUY8I3X8JY9W10G","A2I4PRZ9IZMKON","39N6W9XWRD9306QNTNZSDTAN4LJGYK","","img/set1/S1.jpg","83","1","structured_normal","83","true","structured_normal,structured_incentive,random","1,2,2,3","",""
"null","","html-keyboard-response","84","906575","0.0-13.0","34Q075JO1YZBLG2TUY8I3X8JY9W10G","A2I4PRZ9IZMKON","39N6W9XWRD9306QNTNZSDTAN4LJGYK","","<img src=""img/set1/S1.jpg"" width=""540"" height = ""360"" style=""border:16px solid orange"">","null","","","","","","","",""
"null","","html-keyboard-response","85","906578","0.0-14.0","34Q075JO1YZBLG2TUY8I3X8JY9W10G","A2I4PRZ9IZMKON","39N6W9XWRD9306QNTNZSDTAN4LJGYK","","","null","","","","","","","",""
"898","","image-keyboard-response","86","907478","0.0-15.0","34Q075JO1YZBLG2TUY8I3X8JY9W10G","A2I4PRZ9IZMKON","39N6W9XWRD9306QNTNZSDTAN4LJGYK","","img/set1/S2.jpg","68","2","structured_normal","68","true","structured_normal,structured_incentive,random","1,2,2,3","",""
"null","","html-keyboard-response","87","907831","0.0-16.0","34Q075JO1YZBLG2TUY8I3X8JY9W10G","A2I4PRZ9IZMKON","39N6W9XWRD9306QNTNZSDTAN4LJGYK","","<img src=""img/set1/S2.jpg"" width=""540"" height = ""360"" style=""border:16px solid orange"">","null","","","","","","","",""
"null","","html-keyboard-response","88","907834","0.0-17.0","34Q075JO1YZBLG2TUY8I3X8JY9W10G","A2I4PRZ9IZMKON","39N6W9XWRD9306QNTNZSDTAN4LJGYK","","","null","","","","","","","",""
"730.7000000476837","","image-keyboard-response","89","908566","0.0-18.0","34Q075JO1YZBLG2TUY8I3X8JY9W10G","A2I4PRZ9IZMKON","39N6W9XWRD9306QNTNZSDTAN4LJGYK","","img/set1/S1.jpg","83","1","structured_normal","83","true","structured_normal,structured_incentive,random","1,2,2,3","",""
"null","","html-keyboard-response","90","908918","0.0-19.0","34Q075JO1YZBLG2TUY8I3X8JY9W10G","A2I4PRZ9IZMKON","39N6W9XWRD9306QNTNZSDTAN4LJGYK","","<img src=""img/set1/S1.jpg"" width=""540"" height = ""360"" style=""border:16px solid orange"">","null","","","","","","","",""
"null","","html-keyboard-response","91","908921","0.0-20.0","34Q075JO1YZBLG2TUY8I3X8JY9W10G","A2I4PRZ9IZMKON","39N6W9XWRD9306QNTNZSDTAN4LJGYK","","","null","","","","","","","",""
"440.39999997615814","","image-keyboard-response","92","909363","0.0-21.0","34Q075JO1YZBLG2TUY8I3X8JY9W10G","A2I4PRZ9IZMKON","39N6W9XWRD9306QNTNZSDTAN4LJGYK","","img/set1/S2.jpg","68","2","structured_normal","68","true","structured_normal,structured_incentive,random","1,2,2,3","",""
"null","","html-keyboard-response","93","909721","0.0-22.0","34Q075JO1YZBLG2TUY8I3X8JY9W10G","A2I4PRZ9IZMKON","39N6W9XWRD9306QNTNZSDTAN4LJGYK","","<img src=""img/set1/S2.jpg"" width=""540"" height = ""360"" style=""border:16px solid orange"">","null","","","","","","","",""
"null","","html-keyboard-response","94","909724","0.0-23.0","34Q075JO1YZBLG2TUY8I3X8JY9W10G","A2I4PRZ9IZMKON","39N6W9XWRD9306QNTNZSDTAN4LJGYK","","","null","","","","","","","",""
"476.89999997615814","","image-keyboard-response","95","910202","0.0-24.0","34Q075JO1YZBLG2TUY8I3X8JY9W10G","A2I4PRZ9IZMKON","39N6W9XWRD9306QNTNZSDTAN4LJGYK","","img/set1/S1.jpg","83","1","structured_normal","83","true","structured_normal,structured_incentive,random","1,2,2,3","",""
"null","","html-keyboard-response","96","910555","0.0-25.0","34Q075JO1YZBLG2TUY8I3X8JY9W10G","A2I4PRZ9IZMKON","39N6W9XWRD9306QNTNZSDTAN4LJGYK","","<img src=""img/set1/S1.jpg"" width=""540"" height = ""360"" style=""border:16px solid orange"">","null","","","","","","","",""
"null","","html-keyboard-response","97","910558","0.0-26.0","34Q075JO1YZBLG2TUY8I3X8JY9W10G","A2I4PRZ9IZMKON","39N6W9XWRD9306QNTNZSDTAN4LJGYK","","","null","","","","","","","",""
"676.1999999284744","","image-keyboard-response","98","911235","0.0-27.0","34Q075JO1YZBLG2TUY8I3X8JY9W10G","A2I4PRZ9IZMKON","39N6W9XWRD9306QNTNZSDTAN4LJGYK","","img/set1/S3.jpg","72","3","structured_normal","72","true","structured_normal,structured_incentive,random","1,2,2,3","",""
"null","","html-keyboard-response","99","911588","0.0-28.0","34Q075JO1YZBLG2TUY8I3X8JY9W10G","A2I4PRZ9IZMKON","39N6W9XWRD9306QNTNZSDTAN4LJGYK","","<img src=""img/set1/S3.jpg"" width=""540"" height = ""360"" style=""border:16px solid orange"">","null","","","","","","","",""
"null","","html-keyboard-response","100","911591","0.0-29.0","34Q075JO1YZBLG2TUY8I3X8JY9W10G","A2I4PRZ9IZMKON","39N6W9XWRD9306QNTNZSDTAN4LJGYK","","","null","","","","","","","",""
"1061.7999999523163","","image-keyboard-response","101","912654","0.0-30.0","34Q075JO1YZBLG2TUY8I3X8JY9W10G","A2I4PRZ9IZMKON","39N6W9XWRD9306QNTNZSDTAN4LJGYK","","img/set1/S1.jpg","68","1","structured_normal","83","false","structured_normal,structured_incentive,random","1,2,2,3","",""
"null","","html-keyboard-response","102","913007","0.0-31.0","34Q075JO1YZBLG2TUY8I3X8JY9W10G","A2I4PRZ9IZMKON","39N6W9XWRD9306QNTNZSDTAN4LJGYK","","<img src=""img/set1/S1.jpg"" width=""540"" height = ""360"">","null","","","","","","","",""
"null","","html-keyboard-response","103","913009","0.0-32.0","34Q075JO1YZBLG2TUY8I3X8JY9W10G","A2I4PRZ9IZMKON","39N6W9XWRD9306QNTNZSDTAN4LJGYK","","","null","","","","","","","",""
"992.0999999046326","","image-keyboard-response","104","914002","0.0-33.0","34Q075JO1YZBLG2TUY8I3X8JY9W10G","A2I4PRZ9IZMKON","39N6W9XWRD9306QNTNZSDTAN4LJGYK","","img/set1/S2.jpg","68","2","structured_normal","68","true","structured_normal,structured_incentive,random","1,2,2,3","",""
"null","","html-keyboard-response","105","914354","0.0-34.0","34Q075JO1YZBLG2TUY8I3X8JY9W10G","A2I4PRZ9IZMKON","39N6W9XWRD9306QNTNZSDTAN4LJGYK","","<img src=""img/set1/S2.jpg"" width=""540"" height = ""360"" style=""border:16px solid orange"">","null","","","","","","","",""
"null","","html-keyboard-response","106","914357","0.0-35.0","34Q075JO1YZBLG2TUY8I3X8JY9W10G","A2I4PRZ9IZMKON","39N6W9XWRD9306QNTNZSDTAN4LJGYK","","","null","","","","","","","",""
"740.1000000238419","","image-keyboard-response","107","915099","0.0-36.0","34Q075JO1YZBLG2TUY8I3X8JY9W10G","A2I4PRZ9IZMKON","39N6W9XWRD9306QNTNZSDTAN4LJGYK","","img/set1/S3.jpg","72","3","structured_normal","72","true","structured_normal,structured_incentive,random","1,2,2,3","",""
"null","","html-keyboard-response","108","915452","0.0-37.0","34Q075JO1YZBLG2TUY8I3X8JY9W10G","A2I4PRZ9IZMKON","39N6W9XWRD9306QNTNZSDTAN4LJGYK","","<img src=""img/set1/S3.jpg"" width=""540"" height = ""360"" style=""border:16px solid orange"">","null","","","","","","","",""
"null","","html-keyboard-response","109","915454","0.0-38.0","34Q075JO1YZBLG2TUY8I3X8JY9W10G","A2I4PRZ9IZMKON","39N6W9XWRD9306QNTNZSDTAN4LJGYK","","","null","","","","","","","",""
"976.6000000238419","","image-keyboard-response","110","916433","0.0-39.0","34Q075JO1YZBLG2TUY8I3X8JY9W10G","A2I4PRZ9IZMKON","39N6W9XWRD9306QNTNZSDTAN4LJGYK","","img/set1/S3.jpg","72","3","structured_normal","72","true","structured_normal,structured_incentive,random","1,2,2,3","",""
"null","","html-keyboard-response","111","916786","0.0-40.0","34Q075JO1YZBLG2TUY8I3X8JY9W10G","A2I4PRZ9IZMKON","39N6W9XWRD9306QNTNZSDTAN4LJGYK","","<img src=""img/set1/S3.jpg"" width=""540"" height = ""360"" style=""border:16px solid orange"">","null","","","","","","","",""
"null","","html-keyboard-response","112","916789","0.0-41.0","34Q075JO1YZBLG2TUY8I3X8JY9W10G","A2I4PRZ9IZMKON","39N6W9XWRD9306QNTNZSDTAN4LJGYK","","","null","","","","","","","",""
"469.3000000715256","","image-keyboard-response","113","917260","0.0-42.0","34Q075JO1YZBLG2TUY8I3X8JY9W10G","A2I4PRZ9IZMKON","39N6W9XWRD9306QNTNZSDTAN4LJGYK","","img/set1/S3.jpg","72","3","structured_normal","72","true","structured_normal,structured_incentive,random","1,2,2,3","",""
"null","","html-keyboard-response","114","917614","0.0-43.0","34Q075JO1YZBLG2TUY8I3X8JY9W10G","A2I4PRZ9IZMKON","39N6W9XWRD9306QNTNZSDTAN4LJGYK","","<img src=""img/set1/S3.jpg"" width=""540"" height = ""360"" style=""border:16px solid orange"">","null","","","","","","","",""
"null","","html-keyboard-response","115","917617","0.0-44.0","34Q075JO1YZBLG2TUY8I3X8JY9W10G","A2I4PRZ9IZMKON","39N6W9XWRD9306QNTNZSDTAN4LJGYK","","","null","","","","","","","",""
"480.6999999284744","","image-keyboard-response","116","918099","0.0-45.0","34Q075JO1YZBLG2TUY8I3X8JY9W10G","A2I4PRZ9IZMKON","39N6W9XWRD9306QNTNZSDTAN4LJGYK","","img/set1/S3.jpg","72","3","structured_normal","72","true","structured_normal,structured_incentive,random","1,2,2,3","",""
"null","","html-keyboard-response","117","918452","0.0-46.0","34Q075JO1YZBLG2TUY8I3X8JY9W10G","A2I4PRZ9IZMKON","39N6W9XWRD9306QNTNZSDTAN4LJGYK","","<img src=""img/set1/S3.jpg"" width=""540"" height = ""360"" style=""border:16px solid orange"">","null","","","","","","","",""
"null","","html-keyboard-response","118","918455","0.0-47.0","34Q075JO1YZBLG2TUY8I3X8JY9W10G","A2I4PRZ9IZMKON","39N6W9XWRD9306QNTNZSDTAN4LJGYK","","","null","","","","","","","",""
"1059.2999999523163","","image-keyboard-response","119","919516","0.0-48.0","34Q075JO1YZBLG2TUY8I3X8JY9W10G","A2I4PRZ9IZMKON","39N6W9XWRD9306QNTNZSDTAN4LJGYK","","img/set1/S1.jpg","83","1","structured_normal","83","true","structured_normal,structured_incentive,random","1,2,2,3","",""
"null","","html-keyboard-response","120","919868","0.0-49.0","34Q075JO1YZBLG2TUY8I3X8JY9W10G","A2I4PRZ9IZMKON","39N6W9XWRD9306QNTNZSDTAN4LJGYK","","<img src=""img/set1/S1.jpg"" width=""540"" height = ""360"" style=""border:16px solid orange"">","null","","","","","","","",""
"null","","html-keyboard-response","121","919871","0.0-50.0","34Q075JO1YZBLG2TUY8I3X8JY9W10G","A2I4PRZ9IZMKON","39N6W9XWRD9306QNTNZSDTAN4LJGYK","","","null","","","","","","","",""
"519.3000000715256","","image-keyboard-response","122","920392","0.0-51.0","34Q075JO1YZBLG2TUY8I3X8JY9W10G","A2I4PRZ9IZMKON","39N6W9XWRD9306QNTNZSDTAN4LJGYK","","img/set1/S2.jpg","68","2","structured_normal","68","true","structured_normal,structured_incentive,random","1,2,2,3","",""
"null","","html-keyboard-response","123","920753","0.0-52.0","34Q075JO1YZBLG2TUY8I3X8JY9W10G","A2I4PRZ9IZMKON","39N6W9XWRD9306QNTNZSDTAN4LJGYK","","<img src=""img/set1/S2.jpg"" width=""540"" height = ""360"" style=""border:16px solid orange"">","null","","","","","","","",""
"null","","html-keyboard-response","124","920755","0.0-53.0","34Q075JO1YZBLG2TUY8I3X8JY9W10G","A2I4PRZ9IZMKON","39N6W9XWRD9306QNTNZSDTAN4LJGYK","","","null","","","","","","","",""
"653","","image-keyboard-response","125","921409","0.0-54.0","34Q075JO1YZBLG2TUY8I3X8JY9W10G","A2I4PRZ9IZMKON","39N6W9XWRD9306QNTNZSDTAN4LJGYK","","img/set1/S1.jpg","83","1","structured_normal","83","true","structured_normal,structured_incentive,random","1,2,2,3","",""
"null","","html-keyboard-response","126","921765","0.0-55.0","34Q075JO1YZBLG2TUY8I3X8JY9W10G","A2I4PRZ9IZMKON","39N6W9XWRD9306QNTNZSDTAN4LJGYK","","<img src=""img/set1/S1.jpg"" width=""540"" height = ""360"" style=""border:16px solid orange"">","null","","","","","","","",""
"null","","html-keyboard-response","127","921767","0.0-56.0","34Q075JO1YZBLG2TUY8I3X8JY9W10G","A2I4PRZ9IZMKON","39N6W9XWRD9306QNTNZSDTAN4LJGYK","","","null","","","","","","","",""
"729.5","","image-keyboard-response","128","922499","0.0-57.0","34Q075JO1YZBLG2TUY8I3X8JY9W10G","A2I4PRZ9IZMKON","39N6W9XWRD9306QNTNZSDTAN4LJGYK","","img/set1/S3.jpg","72","3","structured_normal","72","true","structured_normal,structured_incentive,random","1,2,2,3","",""
"null","","html-keyboard-response","129","922851","0.0-58.0","34Q075JO1YZBLG2TUY8I3X8JY9W10G","A2I4PRZ9IZMKON","39N6W9XWRD9306QNTNZSDTAN4LJGYK","","<img src=""img/set1/S3.jpg"" width=""540"" height = ""360"" style=""border:16px solid orange"">","null","","","","","","","",""
"null","","html-keyboard-response","130","922854","0.0-59.0","34Q075JO1YZBLG2TUY8I3X8JY9W10G","A2I4PRZ9IZMKON","39N6W9XWRD9306QNTNZSDTAN4LJGYK","","","null","","","","","","","",""
"629.7999999523163","","image-keyboard-response","131","923485","0.0-60.0","34Q075JO1YZBLG2TUY8I3X8JY9W10G","A2I4PRZ9IZMKON","39N6W9XWRD9306QNTNZSDTAN4LJGYK","","img/set1/S4.jpg","74","4","structured_normal","74","true","structured_normal,structured_incentive,random","1,2,2,3","",""
"null","","html-keyboard-response","132","923838","0.0-61.0","34Q075JO1YZBLG2TUY8I3X8JY9W10G","A2I4PRZ9IZMKON","39N6W9XWRD9306QNTNZSDTAN4LJGYK","","<img src=""img/set1/S4.jpg"" width=""540"" height = ""360"" style=""border:16px solid orange"">","null","","","","","","","",""
"null","","html-keyboard-response","133","923841","0.0-62.0","34Q075JO1YZBLG2TUY8I3X8JY9W10G","A2I4PRZ9IZMKON","39N6W9XWRD9306QNTNZSDTAN4LJGYK","","","null","","","","","","","",""
"470.7999999523163","","image-keyboard-response","134","924314","0.0-63.0","34Q075JO1YZBLG2TUY8I3X8JY9W10G","A2I4PRZ9IZMKON","39N6W9XWRD9306QNTNZSDTAN4LJGYK","","img/set1/S4.jpg","74","4","structured_normal","74","true","structured_normal,structured_incentive,random","1,2,2,3","",""
"null","","html-keyboard-response","135","924666","0.0-64.0","34Q075JO1YZBLG2TUY8I3X8JY9W10G","A2I4PRZ9IZMKON","39N6W9XWRD9306QNTNZSDTAN4LJGYK","","<img src=""img/set1/S4.jpg"" width=""540"" height = ""360"" style=""border:16px solid orange"">","null","","","","","","","",""
"null","","html-keyboard-response","136","924670","0.0-65.0","34Q075JO1YZBLG2TUY8I3X8JY9W10G","A2I4PRZ9IZMKON","39N6W9XWRD9306QNTNZSDTAN4LJGYK","","","null","","","","","","","",""
"417.2999999523163","","image-keyboard-response","137","925088","0.0-66.0","34Q075JO1YZBLG2TUY8I3X8JY9W10G","A2I4PRZ9IZMKON","39N6W9XWRD9306QNTNZSDTAN4LJGYK","","img/set1/S4.jpg","74","4","structured_normal","74","true","structured_normal,structured_incentive,random","1,2,2,3","",""
"null","","html-keyboard-response","138","925441","0.0-67.0","34Q075JO1YZBLG2TUY8I3X8JY9W10G","A2I4PRZ9IZMKON","39N6W9XWRD9306QNTNZSDTAN4LJGYK","","<img src=""img/set1/S4.jpg"" width=""540"" height = ""360"" style=""border:16px solid orange"">","null","","","","","","","",""
"null","","html-keyboard-response","139","925443","0.0-68.0","34Q075JO1YZBLG2TUY8I3X8JY9W10G","A2I4PRZ9IZMKON","39N6W9XWRD9306QNTNZSDTAN4LJGYK","","","null","","","","","","","",""
"738.5","","image-keyboard-response","140","926184","0.0-69.0","34Q075JO1YZBLG2TUY8I3X8JY9W10G","A2I4PRZ9IZMKON","39N6W9XWRD9306QNTNZSDTAN4LJGYK","","img/set1/S1.jpg","68","1","structured_normal","83","false","structured_normal,structured_incentive,random","1,2,2,3","",""
"null","","html-keyboard-response","141","926537","0.0-70.0","34Q075JO1YZBLG2TUY8I3X8JY9W10G","A2I4PRZ9IZMKON","39N6W9XWRD9306QNTNZSDTAN4LJGYK","","<img src=""img/set1/S1.jpg"" width=""540"" height = ""360"">","null","","","","","","","",""
"null","","html-keyboard-response","142","926539","0.0-71.0","34Q075JO1YZBLG2TUY8I3X8JY9W10G","A2I4PRZ9IZMKON","39N6W9XWRD9306QNTNZSDTAN4LJGYK","","","null","","","","","","","",""
"77.39999997615814","","image-keyboard-response","143","926618","0.0-72.0","34Q075JO1YZBLG2TUY8I3X8JY9W10G","A2I4PRZ9IZMKON","39N6W9XWRD9306QNTNZSDTAN4LJGYK","","img/set1/S3.jpg","83","3","structured_normal","72","false","structured_normal,structured_incentive,random","1,2,2,3","",""
"null","","html-keyboard-response","144","926972","0.0-73.0","34Q075JO1YZBLG2TUY8I3X8JY9W10G","A2I4PRZ9IZMKON","39N6W9XWRD9306QNTNZSDTAN4LJGYK","","<img src=""img/set1/S3.jpg"" width=""540"" height = ""360"">","null","","","","","","","",""
"null","","html-keyboard-response","145","926975","0.0-74.0","34Q075JO1YZBLG2TUY8I3X8JY9W10G","A2I4PRZ9IZMKON","39N6W9XWRD9306QNTNZSDTAN4LJGYK","","","null","","","","","","","",""
"917","","image-keyboard-response","146","927894","0.0-75.0","34Q075JO1YZBLG2TUY8I3X8JY9W10G","A2I4PRZ9IZMKON","39N6W9XWRD9306QNTNZSDTAN4LJGYK","","img/set1/S4.jpg","74","4","structured_normal","74","true","structured_normal,structured_incentive,random","1,2,2,3","",""
"null","","html-keyboard-response","147","928247","0.0-76.0","34Q075JO1YZBLG2TUY8I3X8JY9W10G","A2I4PRZ9IZMKON","39N6W9XWRD9306QNTNZSDTAN4LJGYK","","<img src=""img/set1/S4.jpg"" width=""540"" height = ""360"" style=""border:16px solid orange"">","null","","","","","","","",""
"null","","html-keyboard-response","148","928250","0.0-77.0","34Q075JO1YZBLG2TUY8I3X8JY9W10G","A2I4PRZ9IZMKON","39N6W9XWRD9306QNTNZSDTAN4LJGYK","","","null","","","","","","","",""
"734.3000000715256","","image-keyboard-response","149","928986","0.0-78.0","34Q075JO1YZBLG2TUY8I3X8JY9W10G","A2I4PRZ9IZMKON","39N6W9XWRD9306QNTNZSDTAN4LJGYK","","img/set1/S2.jpg","68","2","structured_normal","68","true","structured_normal,structured_incentive,random","1,2,2,3","",""
"null","","html-keyboard-response","150","929338","0.0-79.0","34Q075JO1YZBLG2TUY8I3X8JY9W10G","A2I4PRZ9IZMKON","39N6W9XWRD9306QNTNZSDTAN4LJGYK","","<img src=""img/set1/S2.jpg"" width=""540"" height = ""360"" style=""border:16px solid orange"">","null","","","","","","","",""
"null","","html-keyboard-response","151","929341","0.0-80.0","34Q075JO1YZBLG2TUY8I3X8JY9W10G","A2I4PRZ9IZMKON","39N6W9XWRD9306QNTNZSDTAN4LJGYK","","","null","","","","","","","",""
"547.0999999046326","","image-keyboard-response","152","929891","0.0-81.0","34Q075JO1YZBLG2TUY8I3X8JY9W10G","A2I4PRZ9IZMKON","39N6W9XWRD9306QNTNZSDTAN4LJGYK","","img/set1/S1.jpg","83","1","structured_normal","83","true","structured_normal,structured_incentive,random","1,2,2,3","",""
"null","","html-keyboard-response","153","930244","0.0-82.0","34Q075JO1YZBLG2TUY8I3X8JY9W10G","A2I4PRZ9IZMKON","39N6W9XWRD9306QNTNZSDTAN4LJGYK","","<img src=""img/set1/S1.jpg"" width=""540"" height = ""360"" style=""border:16px solid orange"">","null","","","","","","","",""
"null","","html-keyboard-response","154","930247","0.0-83.0","34Q075JO1YZBLG2TUY8I3X8JY9W10G","A2I4PRZ9IZMKON","39N6W9XWRD9306QNTNZSDTAN4LJGYK","","","null","","","","","","","",""
"805.8999999761581","","image-keyboard-response","155","931055","0.0-84.0","34Q075JO1YZBLG2TUY8I3X8JY9W10G","A2I4PRZ9IZMKON","39N6W9XWRD9306QNTNZSDTAN4LJGYK","","img/set1/S3.jpg","72","3","structured_normal","72","true","structured_normal,structured_incentive,random","1,2,2,3","",""
"null","","html-keyboard-response","156","931408","0.0-85.0","34Q075JO1YZBLG2TUY8I3X8JY9W10G","A2I4PRZ9IZMKON","39N6W9XWRD9306QNTNZSDTAN4LJGYK","","<img src=""img/set1/S3.jpg"" width=""540"" height = ""360"" style=""border:16px solid orange"">","null","","","","","","","",""
"null","","html-keyboard-response","157","931410","0.0-86.0","34Q075JO1YZBLG2TUY8I3X8JY9W10G","A2I4PRZ9IZMKON","39N6W9XWRD9306QNTNZSDTAN4LJGYK","","","null","","","","","","","",""
"436.40000009536743","","image-keyboard-response","158","931848","0.0-87.0","34Q075JO1YZBLG2TUY8I3X8JY9W10G","A2I4PRZ9IZMKON","39N6W9XWRD9306QNTNZSDTAN4LJGYK","","img/set1/S3.jpg","72","3","structured_normal","72","true","structured_normal,structured_incentive,random","1,2,2,3","",""
"null","","html-keyboard-response","159","932216","0.0-88.0","34Q075JO1YZBLG2TUY8I3X8JY9W10G","A2I4PRZ9IZMKON","39N6W9XWRD9306QNTNZSDTAN4LJGYK","","<img src=""img/set1/S3.jpg"" width=""540"" height = ""360"" style=""border:16px solid orange"">","null","","","","","","","",""
"null","","html-keyboard-response","160","932218","0.0-89.0","34Q075JO1YZBLG2TUY8I3X8JY9W10G","A2I4PRZ9IZMKON","39N6W9XWRD9306QNTNZSDTAN4LJGYK","","","null","","","","","","","",""
"784","","image-keyboard-response","161","933005","0.0-90.0","34Q075JO1YZBLG2TUY8I3X8JY9W10G","A2I4PRZ9IZMKON","39N6W9XWRD9306QNTNZSDTAN4LJGYK","","img/set1/S4.jpg","74","4","structured_normal","74","true","structured_normal,structured_incentive,random","1,2,2,3","",""
"null","","html-keyboard-response","162","933357","0.0-91.0","34Q075JO1YZBLG2TUY8I3X8JY9W10G","A2I4PRZ9IZMKON","39N6W9XWRD9306QNTNZSDTAN4LJGYK","","<img src=""img/set1/S4.jpg"" width=""540"" height = ""360"" style=""border:16px solid orange"">","null","","","","","","","",""
"null","","html-keyboard-response","163","933360","0.0-92.0","34Q075JO1YZBLG2TUY8I3X8JY9W10G","A2I4PRZ9IZMKON","39N6W9XWRD9306QNTNZSDTAN4LJGYK","","","null","","","","","","","",""
"484.39999997615814","","image-keyboard-response","164","933846","0.0-93.0","34Q075JO1YZBLG2TUY8I3X8JY9W10G","A2I4PRZ9IZMKON","39N6W9XWRD9306QNTNZSDTAN4LJGYK","","img/set1/S4.jpg","74","4","structured_normal","74","true","structured_normal,structured_incentive,random","1,2,2,3","",""
"null","","html-keyboard-response","165","934210","0.0-94.0","34Q075JO1YZBLG2TUY8I3X8JY9W10G","A2I4PRZ9IZMKON","39N6W9XWRD9306QNTNZSDTAN4LJGYK","","<img src=""img/set1/S4.jpg"" width=""540"" height = ""360"" style=""border:16px solid orange"">","null","","","","","","","",""
"null","","html-keyboard-response","166","934212","0.0-95.0","34Q075JO1YZBLG2TUY8I3X8JY9W10G","A2I4PRZ9IZMKON","39N6W9XWRD9306QNTNZSDTAN4LJGYK","","","null","","","","","","","",""
"421.5","","image-keyboard-response","167","934634","0.0-96.0","34Q075JO1YZBLG2TUY8I3X8JY9W10G","A2I4PRZ9IZMKON","39N6W9XWRD9306QNTNZSDTAN4LJGYK","","img/set1/S4.jpg","74","4","structured_normal","74","true","structured_normal,structured_incentive,random","1,2,2,3","",""
"null","","html-keyboard-response","168","934987","0.0-97.0","34Q075JO1YZBLG2TUY8I3X8JY9W10G","A2I4PRZ9IZMKON","39N6W9XWRD9306QNTNZSDTAN4LJGYK","","<img src=""img/set1/S4.jpg"" width=""540"" height = ""360"" style=""border:16px solid orange"">","null","","","","","","","",""
"null","","html-keyboard-response","169","934989","0.0-98.0","34Q075JO1YZBLG2TUY8I3X8JY9W10G","A2I4PRZ9IZMKON","39N6W9XWRD9306QNTNZSDTAN4LJGYK","","","null","","","","","","","",""
"387.5","","image-keyboard-response","170","935378","0.0-99.0","34Q075JO1YZBLG2TUY8I3X8JY9W10G","A2I4PRZ9IZMKON","39N6W9XWRD9306QNTNZSDTAN4LJGYK","","img/set1/S4.jpg","74","4","structured_normal","74","true","structured_normal,structured_incentive,random","1,2,2,3","",""
"null","","html-keyboard-response","171","935731","0.0-100.0","34Q075JO1YZBLG2TUY8I3X8JY9W10G","A2I4PRZ9IZMKON","39N6W9XWRD9306QNTNZSDTAN4LJGYK","","<img src=""img/set1/S4.jpg"" width=""540"" height = ""360"" style=""border:16px solid orange"">","null","","","","","","","",""
"null","","html-keyboard-response","172","935734","0.0-101.0","34Q075JO1YZBLG2TUY8I3X8JY9W10G","A2I4PRZ9IZMKON","39N6W9XWRD9306QNTNZSDTAN4LJGYK","","","null","","","","","","","",""
"765.8000000715256","","image-keyboard-response","173","936501","0.0-102.0","34Q075JO1YZBLG2TUY8I3X8JY9W10G","A2I4PRZ9IZMKON","39N6W9XWRD9306QNTNZSDTAN4LJGYK","","img/set1/S1.jpg","68","1","structured_normal","83","false","structured_normal,structured_incentive,random","1,2,2,3","",""
"null","","html-keyboard-response","174","936855","0.0-103.0","34Q075JO1YZBLG2TUY8I3X8JY9W10G","A2I4PRZ9IZMKON","39N6W9XWRD9306QNTNZSDTAN4LJGYK","","<img src=""img/set1/S1.jpg"" width=""540"" height = ""360"">","null","","","","","","","",""
"null","","html-keyboard-response","175","936857","0.0-104.0","34Q075JO1YZBLG2TUY8I3X8JY9W10G","A2I4PRZ9IZMKON","39N6W9XWRD9306QNTNZSDTAN4LJGYK","","","null","","","","","","","",""
"946.5","","image-keyboard-response","176","937805","0.0-105.0","34Q075JO1YZBLG2TUY8I3X8JY9W10G","A2I4PRZ9IZMKON","39N6W9XWRD9306QNTNZSDTAN4LJGYK","","img/set1/S2.jpg","68","2","structured_normal","68","true","structured_normal,structured_incentive,random","1,2,2,3","",""
"null","","html-keyboard-response","177","938158","0.0-106.0","34Q075JO1YZBLG2TUY8I3X8JY9W10G","A2I4PRZ9IZMKON","39N6W9XWRD9306QNTNZSDTAN4LJGYK","","<img src=""img/set1/S2.jpg"" width=""540"" height = ""360"" style=""border:16px solid orange"">","null","","","","","","","",""
"null","","html-keyboard-response","178","938161","0.0-107.0","34Q075JO1YZBLG2TUY8I3X8JY9W10G","A2I4PRZ9IZMKON","39N6W9XWRD9306QNTNZSDTAN4LJGYK","","","null","","","","","","","",""
"1406.3999999761581","","image-keyboard-response","179","939569","0.0-108.0","34Q075JO1YZBLG2TUY8I3X8JY9W10G","A2I4PRZ9IZMKON","39N6W9XWRD9306QNTNZSDTAN4LJGYK","","img/set1/S1.jpg","83","1","structured_normal","83","true","structured_normal,structured_incentive,random","1,2,2,3","",""
"null","","html-keyboard-response","180","939923","0.0-109.0","34Q075JO1YZBLG2TUY8I3X8JY9W10G","A2I4PRZ9IZMKON","39N6W9XWRD9306QNTNZSDTAN4LJGYK","","<img src=""img/set1/S1.jpg"" width=""540"" height = ""360"" style=""border:16px solid orange"">","null","","","","","","","",""
"null","","html-keyboard-response","181","939925","0.0-110.0","34Q075JO1YZBLG2TUY8I3X8JY9W10G","A2I4PRZ9IZMKON","39N6W9XWRD9306QNTNZSDTAN4LJGYK","","","null","","","","","","","",""
"575.5","","image-keyboard-response","182","940502","0.0-111.0","34Q075JO1YZBLG2TUY8I3X8JY9W10G","A2I4PRZ9IZMKON","39N6W9XWRD9306QNTNZSDTAN4LJGYK","","img/set1/S2.jpg","68","2","structured_normal","68","true","structured_normal,structured_incentive,random","1,2,2,3","",""
"null","","html-keyboard-response","183","940855","0.0-112.0","34Q075JO1YZBLG2TUY8I3X8JY9W10G","A2I4PRZ9IZMKON","39N6W9XWRD9306QNTNZSDTAN4LJGYK","","<img src=""img/set1/S2.jpg"" width=""540"" height = ""360"" style=""border:16px solid orange"">","null","","","","","","","",""
"null","","html-keyboard-response","184","940858","0.0-113.0","34Q075JO1YZBLG2TUY8I3X8JY9W10G","A2I4PRZ9IZMKON","39N6W9XWRD9306QNTNZSDTAN4LJGYK","","","null","","","","","","","",""
"961.3999999761581","","image-keyboard-response","185","941821","0.0-114.0","34Q075JO1YZBLG2TUY8I3X8JY9W10G","A2I4PRZ9IZMKON","39N6W9XWRD9306QNTNZSDTAN4LJGYK","","img/set1/S3.jpg","72","3","structured_normal","72","true","structured_normal,structured_incentive,random","1,2,2,3","",""
"null","","html-keyboard-response","186","942174","0.0-115.0","34Q075JO1YZBLG2TUY8I3X8JY9W10G","A2I4PRZ9IZMKON","39N6W9XWRD9306QNTNZSDTAN4LJGYK","","<img src=""img/set1/S3.jpg"" width=""540"" height = ""360"" style=""border:16px solid orange"">","null","","","","","","","",""
"null","","html-keyboard-response","187","942176","0.0-116.0","34Q075JO1YZBLG2TUY8I3X8JY9W10G","A2I4PRZ9IZMKON","39N6W9XWRD9306QNTNZSDTAN4LJGYK","","","null","","","","","","","",""
"508.5","","image-keyboard-response","188","942686","0.0-117.0","34Q075JO1YZBLG2TUY8I3X8JY9W10G","A2I4PRZ9IZMKON","39N6W9XWRD9306QNTNZSDTAN4LJGYK","","img/set1/S3.jpg","72","3","structured_normal","72","true","structured_normal,structured_incentive,random","1,2,2,3","",""
"null","","html-keyboard-response","189","943041","0.0-118.0","34Q075JO1YZBLG2TUY8I3X8JY9W10G","A2I4PRZ9IZMKON","39N6W9XWRD9306QNTNZSDTAN4LJGYK","","<img src=""img/set1/S3.jpg"" width=""540"" height = ""360"" style=""border:16px solid orange"">","null","","","","","","","",""
"null","","html-keyboard-response","190","943043","0.0-119.0","34Q075JO1YZBLG2TUY8I3X8JY9W10G","A2I4PRZ9IZMKON","39N6W9XWRD9306QNTNZSDTAN4LJGYK","","","null","","","","","","","",""
"860","","image-keyboard-response","191","943905","0.0-120.0","34Q075JO1YZBLG2TUY8I3X8JY9W10G","A2I4PRZ9IZMKON","39N6W9XWRD9306QNTNZSDTAN4LJGYK","","img/set1/S4.jpg","74","4","structured_normal","74","true","structured_normal,structured_incentive,random","1,2,2,3","",""
"null","","html-keyboard-response","192","944258","0.0-121.0","34Q075JO1YZBLG2TUY8I3X8JY9W10G","A2I4PRZ9IZMKON","39N6W9XWRD9306QNTNZSDTAN4LJGYK","","<img src=""img/set1/S4.jpg"" width=""540"" height = ""360"" style=""border:16px solid orange"">","null","","","","","","","",""
"null","","html-keyboard-response","193","944260","0.0-122.0","34Q075JO1YZBLG2TUY8I3X8JY9W10G","A2I4PRZ9IZMKON","39N6W9XWRD9306QNTNZSDTAN4LJGYK","","","null","","","","","","","",""
"520.8999999761581","","image-keyboard-response","194","944783","0.0-123.0","34Q075JO1YZBLG2TUY8I3X8JY9W10G","A2I4PRZ9IZMKON","39N6W9XWRD9306QNTNZSDTAN4LJGYK","","img/set1/S3.jpg","72","3","structured_normal","72","true","structured_normal,structured_incentive,random","1,2,2,3","",""
"null","","html-keyboard-response","195","945136","0.0-124.0","34Q075JO1YZBLG2TUY8I3X8JY9W10G","A2I4PRZ9IZMKON","39N6W9XWRD9306QNTNZSDTAN4LJGYK","","<img src=""img/set1/S3.jpg"" width=""540"" height = ""360"" style=""border:16px solid orange"">","null","","","","","","","",""
"null","","html-keyboard-response","196","945138","0.0-125.0","34Q075JO1YZBLG2TUY8I3X8JY9W10G","A2I4PRZ9IZMKON","39N6W9XWRD9306QNTNZSDTAN4LJGYK","","","null","","","","","","","",""
"1893.6000000238419","","image-keyboard-response","197","947034","0.0-126.0","34Q075JO1YZBLG2TUY8I3X8JY9W10G","A2I4PRZ9IZMKON","39N6W9XWRD9306QNTNZSDTAN4LJGYK","","img/set1/S4.jpg","74","4","structured_normal","74","true","structured_normal,structured_incentive,random","1,2,2,3","",""
"null","","html-keyboard-response","198","947387","0.0-127.0","34Q075JO1YZBLG2TUY8I3X8JY9W10G","A2I4PRZ9IZMKON","39N6W9XWRD9306QNTNZSDTAN4LJGYK","","<img src=""img/set1/S4.jpg"" width=""540"" height = ""360"" style=""border:16px solid orange"">","null","","","","","","","",""
"null","","html-keyboard-response","199","947389","0.0-128.0","34Q075JO1YZBLG2TUY8I3X8JY9W10G","A2I4PRZ9IZMKON","39N6W9XWRD9306QNTNZSDTAN4LJGYK","","","null","","","","","","","",""
"623.7999999523163","","image-keyboard-response","200","948016","0.0-129.0","34Q075JO1YZBLG2TUY8I3X8JY9W10G","A2I4PRZ9IZMKON","39N6W9XWRD9306QNTNZSDTAN4LJGYK","","img/set1/S4.jpg","74","4","structured_normal","74","true","structured_normal,structured_incentive,random","1,2,2,3","",""
"null","","html-keyboard-response","201","948380","0.0-130.0","34Q075JO1YZBLG2TUY8I3X8JY9W10G","A2I4PRZ9IZMKON","39N6W9XWRD9306QNTNZSDTAN4LJGYK","","<img src=""img/set1/S4.jpg"" width=""540"" height = ""360"" style=""border:16px solid orange"">","null","","","","","","","",""
"null","","html-keyboard-response","202","948382","0.0-131.0","34Q075JO1YZBLG2TUY8I3X8JY9W10G","A2I4PRZ9IZMKON","39N6W9XWRD9306QNTNZSDTAN4LJGYK","","","null","","","","","","","",""
"483.5","","image-keyboard-response","203","948867","0.0-132.0","34Q075JO1YZBLG2TUY8I3X8JY9W10G","A2I4PRZ9IZMKON","39N6W9XWRD9306QNTNZSDTAN4LJGYK","","img/set1/S4.jpg","74","4","structured_normal","74","true","structured_normal,structured_incentive,random","1,2,2,3","",""
"null","","html-keyboard-response","204","949220","0.0-133.0","34Q075JO1YZBLG2TUY8I3X8JY9W10G","A2I4PRZ9IZMKON","39N6W9XWRD9306QNTNZSDTAN4LJGYK","","<img src=""img/set1/S4.jpg"" width=""540"" height = ""360"" style=""border:16px solid orange"">","null","","","","","","","",""
"null","","html-keyboard-response","205","949222","0.0-134.0","34Q075JO1YZBLG2TUY8I3X8JY9W10G","A2I4PRZ9IZMKON","39N6W9XWRD9306QNTNZSDTAN4LJGYK","","","null","","","","","","","",""
"1261.7999999523163","","image-keyboard-response","206","950486","0.0-135.0","34Q075JO1YZBLG2TUY8I3X8JY9W10G","A2I4PRZ9IZMKON","39N6W9XWRD9306QNTNZSDTAN4LJGYK","","img/set1/S1.jpg","83","1","structured_normal","83","true","structured_normal,structured_incentive,random","1,2,2,3","",""
"null","","html-keyboard-response","207","950839","0.0-136.0","34Q075JO1YZBLG2TUY8I3X8JY9W10G","A2I4PRZ9IZMKON","39N6W9XWRD9306QNTNZSDTAN4LJGYK","","<img src=""img/set1/S1.jpg"" width=""540"" height = ""360"" style=""border:16px solid orange"">","null","","","","","","","",""
"null","","html-keyboard-response","208","950842","0.0-137.0","34Q075JO1YZBLG2TUY8I3X8JY9W10G","A2I4PRZ9IZMKON","39N6W9XWRD9306QNTNZSDTAN4LJGYK","","","null","","","","","","","",""
"1065.7999999523163","","image-keyboard-response","209","951910","0.0-138.0","34Q075JO1YZBLG2TUY8I3X8JY9W10G","A2I4PRZ9IZMKON","39N6W9XWRD9306QNTNZSDTAN4LJGYK","","img/set1/S3.jpg","72","3","structured_normal","72","true","structured_normal,structured_incentive,random","1,2,2,3","",""
"null","","html-keyboard-response","210","952262","0.0-139.0","34Q075JO1YZBLG2TUY8I3X8JY9W10G","A2I4PRZ9IZMKON","39N6W9XWRD9306QNTNZSDTAN4LJGYK","","<img src=""img/set1/S3.jpg"" width=""540"" height = ""360"" style=""border:16px solid orange"">","null","","","","","","","",""
"null","","html-keyboard-response","211","952264","0.0-140.0","34Q075JO1YZBLG2TUY8I3X8JY9W10G","A2I4PRZ9IZMKON","39N6W9XWRD9306QNTNZSDTAN4LJGYK","","","null","","","","","","","",""
"685.6000000238419","","image-keyboard-response","212","952951","0.0-141.0","34Q075JO1YZBLG2TUY8I3X8JY9W10G","A2I4PRZ9IZMKON","39N6W9XWRD9306QNTNZSDTAN4LJGYK","","img/set1/S3.jpg","72","3","structured_normal","72","true","structured_normal,structured_incentive,random","1,2,2,3","",""
"null","","html-keyboard-response","213","953304","0.0-142.0","34Q075JO1YZBLG2TUY8I3X8JY9W10G","A2I4PRZ9IZMKON","39N6W9XWRD9306QNTNZSDTAN4LJGYK","","<img src=""img/set1/S3.jpg"" width=""540"" height = ""360"" style=""border:16px solid orange"">","null","","","","","","","",""
"null","","html-keyboard-response","214","953306","0.0-143.0","34Q075JO1YZBLG2TUY8I3X8JY9W10G","A2I4PRZ9IZMKON","39N6W9XWRD9306QNTNZSDTAN4LJGYK","","","null","","","","","","","",""
"1257.6000000238419","","image-keyboard-response","215","954565","0.0-144.0","34Q075JO1YZBLG2TUY8I3X8JY9W10G","A2I4PRZ9IZMKON","39N6W9XWRD9306QNTNZSDTAN4LJGYK","","img/set1/S1.jpg","83","1","structured_normal","83","true","structured_normal,structured_incentive,random","1,2,2,3","",""
"null","","html-keyboard-response","216","954918","0.0-145.0","34Q075JO1YZBLG2TUY8I3X8JY9W10G","A2I4PRZ9IZMKON","39N6W9XWRD9306QNTNZSDTAN4LJGYK","","<img src=""img/set1/S1.jpg"" width=""540"" height = ""360"" style=""border:16px solid orange"">","null","","","","","","","",""
"null","","html-keyboard-response","217","954920","0.0-146.0","34Q075JO1YZBLG2TUY8I3X8JY9W10G","A2I4PRZ9IZMKON","39N6W9XWRD9306QNTNZSDTAN4LJGYK","","","null","","","","","","","",""
"814.6000000238419","","image-keyboard-response","218","955736","0.0-147.0","34Q075JO1YZBLG2TUY8I3X8JY9W10G","A2I4PRZ9IZMKON","39N6W9XWRD9306QNTNZSDTAN4LJGYK","","img/set1/S3.jpg","72","3","structured_normal","72","true","structured_normal,structured_incentive,random","1,2,2,3","",""
"null","","html-keyboard-response","219","956089","0.0-148.0","34Q075JO1YZBLG2TUY8I3X8JY9W10G","A2I4PRZ9IZMKON","39N6W9XWRD9306QNTNZSDTAN4LJGYK","","<img src=""img/set1/S3.jpg"" width=""540"" height = ""360"" style=""border:16px solid orange"">","null","","","","","","","",""
"null","","html-keyboard-response","220","956093","0.0-149.0","34Q075JO1YZBLG2TUY8I3X8JY9W10G","A2I4PRZ9IZMKON","39N6W9XWRD9306QNTNZSDTAN4LJGYK","","","null","","","","","","","",""
"799.7999999523163","","image-keyboard-response","221","956893","0.0-150.0","34Q075JO1YZBLG2TUY8I3X8JY9W10G","A2I4PRZ9IZMKON","39N6W9XWRD9306QNTNZSDTAN4LJGYK","","img/set1/S3.jpg","72","3","structured_normal","72","true","structured_normal,structured_incentive,random","1,2,2,3","",""
"null","","html-keyboard-response","222","957245","0.0-151.0","34Q075JO1YZBLG2TUY8I3X8JY9W10G","A2I4PRZ9IZMKON","39N6W9XWRD9306QNTNZSDTAN4LJGYK","","<img src=""img/set1/S3.jpg"" width=""540"" height = ""360"" style=""border:16px solid orange"">","null","","","","","","","",""
"null","","html-keyboard-response","223","957247","0.0-152.0","34Q075JO1YZBLG2TUY8I3X8JY9W10G","A2I4PRZ9IZMKON","39N6W9XWRD9306QNTNZSDTAN4LJGYK","","","null","","","","","","","",""
"843.4000000953674","","image-keyboard-response","224","958092","0.0-153.0","34Q075JO1YZBLG2TUY8I3X8JY9W10G","A2I4PRZ9IZMKON","39N6W9XWRD9306QNTNZSDTAN4LJGYK","","img/set1/S4.jpg","74","4","structured_normal","74","true","structured_normal,structured_incentive,random","1,2,2,3","",""
"null","","html-keyboard-response","225","958444","0.0-154.0","34Q075JO1YZBLG2TUY8I3X8JY9W10G","A2I4PRZ9IZMKON","39N6W9XWRD9306QNTNZSDTAN4LJGYK","","<img src=""img/set1/S4.jpg"" width=""540"" height = ""360"" style=""border:16px solid orange"">","null","","","","","","","",""
"null","","html-keyboard-response","226","958446","0.0-155.0","34Q075JO1YZBLG2TUY8I3X8JY9W10G","A2I4PRZ9IZMKON","39N6W9XWRD9306QNTNZSDTAN4LJGYK","","","null","","","","","","","",""
"1061.5","","image-keyboard-response","227","959509","0.0-156.0","34Q075JO1YZBLG2TUY8I3X8JY9W10G","A2I4PRZ9IZMKON","39N6W9XWRD9306QNTNZSDTAN4LJGYK","","img/set1/S1.jpg","83","1","structured_normal","83","true","structured_normal,structured_incentive,random","1,2,2,3","",""
"null","","html-keyboard-response","228","959861","0.0-157.0","34Q075JO1YZBLG2TUY8I3X8JY9W10G","A2I4PRZ9IZMKON","39N6W9XWRD9306QNTNZSDTAN4LJGYK","","<img src=""img/set1/S1.jpg"" width=""540"" height = ""360"" style=""border:16px solid orange"">","null","","","","","","","",""
"null","","html-keyboard-response","229","959864","0.0-158.0","34Q075JO1YZBLG2TUY8I3X8JY9W10G","A2I4PRZ9IZMKON","39N6W9XWRD9306QNTNZSDTAN4LJGYK","","","null","","","","","","","",""
"560.3999999761581","","image-keyboard-response","230","960426","0.0-159.0","34Q075JO1YZBLG2TUY8I3X8JY9W10G","A2I4PRZ9IZMKON","39N6W9XWRD9306QNTNZSDTAN4LJGYK","","img/set1/S2.jpg","68","2","structured_normal","68","true","structured_normal,structured_incentive,random","1,2,2,3","",""
"null","","html-keyboard-response","231","960779","0.0-160.0","34Q075JO1YZBLG2TUY8I3X8JY9W10G","A2I4PRZ9IZMKON","39N6W9XWRD9306QNTNZSDTAN4LJGYK","","<img src=""img/set1/S2.jpg"" width=""540"" height = ""360"" style=""border:16px solid orange"">","null","","","","","","","",""
"null","","html-keyboard-response","232","960781","0.0-161.0","34Q075JO1YZBLG2TUY8I3X8JY9W10G","A2I4PRZ9IZMKON","39N6W9XWRD9306QNTNZSDTAN4LJGYK","","","null","","","","","","","",""
"823.2999999523163","","image-keyboard-response","233","961605","0.0-162.0","34Q075JO1YZBLG2TUY8I3X8JY9W10G","A2I4PRZ9IZMKON","39N6W9XWRD9306QNTNZSDTAN4LJGYK","","img/set1/S1.jpg","83","1","structured_normal","83","true","structured_normal,structured_incentive,random","1,2,2,3","",""
"null","","html-keyboard-response","234","961959","0.0-163.0","34Q075JO1YZBLG2TUY8I3X8JY9W10G","A2I4PRZ9IZMKON","39N6W9XWRD9306QNTNZSDTAN4LJGYK","","<img src=""img/set1/S1.jpg"" width=""540"" height = ""360"" style=""border:16px solid orange"">","null","","","","","","","",""
"null","","html-keyboard-response","235","961961","0.0-164.0","34Q075JO1YZBLG2TUY8I3X8JY9W10G","A2I4PRZ9IZMKON","39N6W9XWRD9306QNTNZSDTAN4LJGYK","","","null","","","","","","","",""
"448.7999999523163","","image-keyboard-response","236","962414","0.0-165.0","34Q075JO1YZBLG2TUY8I3X8JY9W10G","A2I4PRZ9IZMKON","39N6W9XWRD9306QNTNZSDTAN4LJGYK","","img/set1/S2.jpg","68","2","structured_normal","68","true","structured_normal,structured_incentive,random","1,2,2,3","",""
"null","","html-keyboard-response","237","962766","0.0-166.0","34Q075JO1YZBLG2TUY8I3X8JY9W10G","A2I4PRZ9IZMKON","39N6W9XWRD9306QNTNZSDTAN4LJGYK","","<img src=""img/set1/S2.jpg"" width=""540"" height = ""360"" style=""border:16px solid orange"">","null","","","","","","","",""
"null","","html-keyboard-response","238","962769","0.0-167.0","34Q075JO1YZBLG2TUY8I3X8JY9W10G","A2I4PRZ9IZMKON","39N6W9XWRD9306QNTNZSDTAN4LJGYK","","","null","","","","","","","",""
"690.1000000238419","","image-keyboard-response","239","963461","0.0-168.0","34Q075JO1YZBLG2TUY8I3X8JY9W10G","A2I4PRZ9IZMKON","39N6W9XWRD9306QNTNZSDTAN4LJGYK","","img/set1/S3.jpg","72","3","structured_normal","72","true","structured_normal,structured_incentive,random","1,2,2,3","",""
"null","","html-keyboard-response","240","963814","0.0-169.0","34Q075JO1YZBLG2TUY8I3X8JY9W10G","A2I4PRZ9IZMKON","39N6W9XWRD9306QNTNZSDTAN4LJGYK","","<img src=""img/set1/S3.jpg"" width=""540"" height = ""360"" style=""border:16px solid orange"">","null","","","","","","","",""
"null","","html-keyboard-response","241","963817","0.0-170.0","34Q075JO1YZBLG2TUY8I3X8JY9W10G","A2I4PRZ9IZMKON","39N6W9XWRD9306QNTNZSDTAN4LJGYK","","","null","","","","","","","",""
"373.89999997615814","","image-keyboard-response","242","964193","0.0-171.0","34Q075JO1YZBLG2TUY8I3X8JY9W10G","A2I4PRZ9IZMKON","39N6W9XWRD9306QNTNZSDTAN4LJGYK","","img/set1/S3.jpg","72","3","structured_normal","72","true","structured_normal,structured_incentive,random","1,2,2,3","",""
"null","","html-keyboard-response","243","964546","0.0-172.0","34Q075JO1YZBLG2TUY8I3X8JY9W10G","A2I4PRZ9IZMKON","39N6W9XWRD9306QNTNZSDTAN4LJGYK","","<img src=""img/set1/S3.jpg"" width=""540"" height = ""360"" style=""border:16px solid orange"">","null","","","","","","","",""
"null","","html-keyboard-response","244","964548","0.0-173.0","34Q075JO1YZBLG2TUY8I3X8JY9W10G","A2I4PRZ9IZMKON","39N6W9XWRD9306QNTNZSDTAN4LJGYK","","","null","","","","","","","",""
"433","","image-keyboard-response","245","964983","0.0-174.0","34Q075JO1YZBLG2TUY8I3X8JY9W10G","A2I4PRZ9IZMKON","39N6W9XWRD9306QNTNZSDTAN4LJGYK","","img/set1/S3.jpg","72","3","structured_normal","72","true","structured_normal,structured_incentive,random","1,2,2,3","",""
"null","","html-keyboard-response","246","965336","0.0-175.0","34Q075JO1YZBLG2TUY8I3X8JY9W10G","A2I4PRZ9IZMKON","39N6W9XWRD9306QNTNZSDTAN4LJGYK","","<img src=""img/set1/S3.jpg"" width=""540"" height = ""360"" style=""border:16px solid orange"">","null","","","","","","","",""
"null","","html-keyboard-response","247","965338","0.0-176.0","34Q075JO1YZBLG2TUY8I3X8JY9W10G","A2I4PRZ9IZMKON","39N6W9XWRD9306QNTNZSDTAN4LJGYK","","","null","","","","","","","",""
"1292.5","","image-keyboard-response","248","966633","0.0-177.0","34Q075JO1YZBLG2TUY8I3X8JY9W10G","A2I4PRZ9IZMKON","39N6W9XWRD9306QNTNZSDTAN4LJGYK","","img/set1/S1.jpg","83","1","structured_normal","83","true","structured_normal,structured_incentive,random","1,2,2,3","",""
"null","","html-keyboard-response","249","966986","0.0-178.0","34Q075JO1YZBLG2TUY8I3X8JY9W10G","A2I4PRZ9IZMKON","39N6W9XWRD9306QNTNZSDTAN4LJGYK","","<img src=""img/set1/S1.jpg"" width=""540"" height = ""360"" style=""border:16px solid orange"">","null","","","","","","","",""
"null","","html-keyboard-response","250","966988","0.0-179.0","34Q075JO1YZBLG2TUY8I3X8JY9W10G","A2I4PRZ9IZMKON","39N6W9XWRD9306QNTNZSDTAN4LJGYK","","","null","","","","","","","",""
"571.5","","image-keyboard-response","251","967561","0.0-180.0","34Q075JO1YZBLG2TUY8I3X8JY9W10G","A2I4PRZ9IZMKON","39N6W9XWRD9306QNTNZSDTAN4LJGYK","","img/set1/S2.jpg","68","2","structured_normal","68","true","structured_normal,structured_incentive,random","1,2,2,3","",""
"null","","html-keyboard-response","252","967914","0.0-181.0","34Q075JO1YZBLG2TUY8I3X8JY9W10G","A2I4PRZ9IZMKON","39N6W9XWRD9306QNTNZSDTAN4LJGYK","","<img src=""img/set1/S2.jpg"" width=""540"" height = ""360"" style=""border:16px solid orange"">","null","","","","","","","",""
"null","","html-keyboard-response","253","967916","0.0-182.0","34Q075JO1YZBLG2TUY8I3X8JY9W10G","A2I4PRZ9IZMKON","39N6W9XWRD9306QNTNZSDTAN4LJGYK","","","null","","","","","","","",""
"854.7999999523163","","image-keyboard-response","254","968773","0.0-183.0","34Q075JO1YZBLG2TUY8I3X8JY9W10G","A2I4PRZ9IZMKON","39N6W9XWRD9306QNTNZSDTAN4LJGYK","","img/set1/S4.jpg","74","4","structured_normal","74","true","structured_normal,structured_incentive,random","1,2,2,3","",""
"null","","html-keyboard-response","255","969126","0.0-184.0","34Q075JO1YZBLG2TUY8I3X8JY9W10G","A2I4PRZ9IZMKON","39N6W9XWRD9306QNTNZSDTAN4LJGYK","","<img src=""img/set1/S4.jpg"" width=""540"" height = ""360"" style=""border:16px solid orange"">","null","","","","","","","",""
"null","","html-keyboard-response","256","969128","0.0-185.0","34Q075JO1YZBLG2TUY8I3X8JY9W10G","A2I4PRZ9IZMKON","39N6W9XWRD9306QNTNZSDTAN4LJGYK","","","null","","","","","","","",""
"805.8000000715256","","image-keyboard-response","257","969936","0.0-186.0","34Q075JO1YZBLG2TUY8I3X8JY9W10G","A2I4PRZ9IZMKON","39N6W9XWRD9306QNTNZSDTAN4LJGYK","","img/set1/S1.jpg","83","1","structured_normal","83","true","structured_normal,structured_incentive,random","1,2,2,3","",""
"null","","html-keyboard-response","258","970289","0.0-187.0","34Q075JO1YZBLG2TUY8I3X8JY9W10G","A2I4PRZ9IZMKON","39N6W9XWRD9306QNTNZSDTAN4LJGYK","","<img src=""img/set1/S1.jpg"" width=""540"" height = ""360"" style=""border:16px solid orange"">","null","","","","","","","",""
"null","","html-keyboard-response","259","970291","0.0-188.0","34Q075JO1YZBLG2TUY8I3X8JY9W10G","A2I4PRZ9IZMKON","39N6W9XWRD9306QNTNZSDTAN4LJGYK","","","null","","","","","","","",""
"796.7000000476837","","image-keyboard-response","260","971090","0.0-189.0","34Q075JO1YZBLG2TUY8I3X8JY9W10G","A2I4PRZ9IZMKON","39N6W9XWRD9306QNTNZSDTAN4LJGYK","","img/set1/S2.jpg","68","2","structured_normal","68","true","structured_normal,structured_incentive,random","1,2,2,3","",""
"null","","html-keyboard-response","261","971443","0.0-190.0","34Q075JO1YZBLG2TUY8I3X8JY9W10G","A2I4PRZ9IZMKON","39N6W9XWRD9306QNTNZSDTAN4LJGYK","","<img src=""img/set1/S2.jpg"" width=""540"" height = ""360"" style=""border:16px solid orange"">","null","","","","","","","",""
"null","","html-keyboard-response","262","971444","0.0-191.0","34Q075JO1YZBLG2TUY8I3X8JY9W10G","A2I4PRZ9IZMKON","39N6W9XWRD9306QNTNZSDTAN4LJGYK","","","null","","","","","","","",""
"734.5999999046326","","image-keyboard-response","263","972181","0.0-192.0","34Q075JO1YZBLG2TUY8I3X8JY9W10G","A2I4PRZ9IZMKON","39N6W9XWRD9306QNTNZSDTAN4LJGYK","","img/set1/S3.jpg","72","3","structured_normal","72","true","structured_normal,structured_incentive,random","1,2,2,3","",""
"null","","html-keyboard-response","264","972533","0.0-193.0","34Q075JO1YZBLG2TUY8I3X8JY9W10G","A2I4PRZ9IZMKON","39N6W9XWRD9306QNTNZSDTAN4LJGYK","","<img src=""img/set1/S3.jpg"" width=""540"" height = ""360"" style=""border:16px solid orange"">","null","","","","","","","",""
"null","","html-keyboard-response","265","972535","0.0-194.0","34Q075JO1YZBLG2TUY8I3X8JY9W10G","A2I4PRZ9IZMKON","39N6W9XWRD9306QNTNZSDTAN4LJGYK","","","null","","","","","","","",""
"588.8999999761581","","image-keyboard-response","266","973125","0.0-195.0","34Q075JO1YZBLG2TUY8I3X8JY9W10G","A2I4PRZ9IZMKON","39N6W9XWRD9306QNTNZSDTAN4LJGYK","","img/set1/S4.jpg","74","4","structured_normal","74","true","structured_normal,structured_incentive,random","1,2,2,3","",""
"null","","html-keyboard-response","267","973477","0.0-196.0","34Q075JO1YZBLG2TUY8I3X8JY9W10G","A2I4PRZ9IZMKON","39N6W9XWRD9306QNTNZSDTAN4LJGYK","","<img src=""img/set1/S4.jpg"" width=""540"" height = ""360"" style=""border:16px solid orange"">","null","","","","","","","",""
"null","","html-keyboard-response","268","973479","0.0-197.0","34Q075JO1YZBLG2TUY8I3X8JY9W10G","A2I4PRZ9IZMKON","39N6W9XWRD9306QNTNZSDTAN4LJGYK","","","null","","","","","","","",""
"1121.6000000238419","","image-keyboard-response","269","974602","0.0-198.0","34Q075JO1YZBLG2TUY8I3X8JY9W10G","A2I4PRZ9IZMKON","39N6W9XWRD9306QNTNZSDTAN4LJGYK","","img/set1/S1.jpg","83","1","structured_normal","83","true","structured_normal,structured_incentive,random","1,2,2,3","",""
"null","","html-keyboard-response","270","974955","0.0-199.0","34Q075JO1YZBLG2TUY8I3X8JY9W10G","A2I4PRZ9IZMKON","39N6W9XWRD9306QNTNZSDTAN4LJGYK","","<img src=""img/set1/S1.jpg"" width=""540"" height = ""360"" style=""border:16px solid orange"">","null","","","","","","","",""
"null","","html-keyboard-response","271","974957","0.0-200.0","34Q075JO1YZBLG2TUY8I3X8JY9W10G","A2I4PRZ9IZMKON","39N6W9XWRD9306QNTNZSDTAN4LJGYK","","","null","","","","","","","",""
"498.7999999523163","","image-keyboard-response","272","975457","0.0-201.0","34Q075JO1YZBLG2TUY8I3X8JY9W10G","A2I4PRZ9IZMKON","39N6W9XWRD9306QNTNZSDTAN4LJGYK","","img/set1/S2.jpg","68","2","structured_normal","68","true","structured_normal,structured_incentive,random","1,2,2,3","",""
"null","","html-keyboard-response","273","975810","0.0-202.0","34Q075JO1YZBLG2TUY8I3X8JY9W10G","A2I4PRZ9IZMKON","39N6W9XWRD9306QNTNZSDTAN4LJGYK","","<img src=""img/set1/S2.jpg"" width=""540"" height = ""360"" style=""border:16px solid orange"">","null","","","","","","","",""
"null","","html-keyboard-response","274","975813","0.0-203.0","34Q075JO1YZBLG2TUY8I3X8JY9W10G","A2I4PRZ9IZMKON","39N6W9XWRD9306QNTNZSDTAN4LJGYK","","","null","","","","","","","",""
"410.60000002384186","","image-keyboard-response","275","976226","0.0-204.0","34Q075JO1YZBLG2TUY8I3X8JY9W10G","A2I4PRZ9IZMKON","39N6W9XWRD9306QNTNZSDTAN4LJGYK","","img/set1/S3.jpg","72","3","structured_normal","72","true","structured_normal,structured_incentive,random","1,2,2,3","",""
"null","","html-keyboard-response","276","976579","0.0-205.0","34Q075JO1YZBLG2TUY8I3X8JY9W10G","A2I4PRZ9IZMKON","39N6W9XWRD9306QNTNZSDTAN4LJGYK","","<img src=""img/set1/S3.jpg"" width=""540"" height = ""360"" style=""border:16px solid orange"">","null","","","","","","","",""
"null","","html-keyboard-response","277","976581","0.0-206.0","34Q075JO1YZBLG2TUY8I3X8JY9W10G","A2I4PRZ9IZMKON","39N6W9XWRD9306QNTNZSDTAN4LJGYK","","","null","","","","","","","",""
"872.1999999284744","","image-keyboard-response","278","977455","0.0-207.0","34Q075JO1YZBLG2TUY8I3X8JY9W10G","A2I4PRZ9IZMKON","39N6W9XWRD9306QNTNZSDTAN4LJGYK","","img/set1/S1.jpg","83","1","structured_normal","83","true","structured_normal,structured_incentive,random","1,2,2,3","",""
"null","","html-keyboard-response","279","977808","0.0-208.0","34Q075JO1YZBLG2TUY8I3X8JY9W10G","A2I4PRZ9IZMKON","39N6W9XWRD9306QNTNZSDTAN4LJGYK","","<img src=""img/set1/S1.jpg"" width=""540"" height = ""360"" style=""border:16px solid orange"">","null","","","","","","","",""
"null","","html-keyboard-response","280","977811","0.0-209.0","34Q075JO1YZBLG2TUY8I3X8JY9W10G","A2I4PRZ9IZMKON","39N6W9XWRD9306QNTNZSDTAN4LJGYK","","","null","","","","","","","",""
"579.6000000238419","","image-keyboard-response","281","978392","0.0-210.0","34Q075JO1YZBLG2TUY8I3X8JY9W10G","A2I4PRZ9IZMKON","39N6W9XWRD9306QNTNZSDTAN4LJGYK","","img/set1/S2.jpg","68","2","structured_normal","68","true","structured_normal,structured_incentive,random","1,2,2,3","",""
"null","","html-keyboard-response","282","978744","0.0-211.0","34Q075JO1YZBLG2TUY8I3X8JY9W10G","A2I4PRZ9IZMKON","39N6W9XWRD9306QNTNZSDTAN4LJGYK","","<img src=""img/set1/S2.jpg"" width=""540"" height = ""360"" style=""border:16px solid orange"">","null","","","","","","","",""
"null","","html-keyboard-response","283","978747","0.0-212.0","34Q075JO1YZBLG2TUY8I3X8JY9W10G","A2I4PRZ9IZMKON","39N6W9XWRD9306QNTNZSDTAN4LJGYK","","","null","","","","","","","",""
"635.1999999284744","","image-keyboard-response","284","979384","0.0-213.0","34Q075JO1YZBLG2TUY8I3X8JY9W10G","A2I4PRZ9IZMKON","39N6W9XWRD9306QNTNZSDTAN4LJGYK","","img/set1/S1.jpg","83","1","structured_normal","83","true","structured_normal,structured_incentive,random","1,2,2,3","",""
"null","","html-keyboard-response","285","979743","0.0-214.0","34Q075JO1YZBLG2TUY8I3X8JY9W10G","A2I4PRZ9IZMKON","39N6W9XWRD9306QNTNZSDTAN4LJGYK","","<img src=""img/set1/S1.jpg"" width=""540"" height = ""360"" style=""border:16px solid orange"">","null","","","","","","","",""
"null","","html-keyboard-response","286","979746","0.0-215.0","34Q075JO1YZBLG2TUY8I3X8JY9W10G","A2I4PRZ9IZMKON","39N6W9XWRD9306QNTNZSDTAN4LJGYK","","","null","","","","","","","",""
"479.1999999284744","","image-keyboard-response","287","980227","0.0-216.0","34Q075JO1YZBLG2TUY8I3X8JY9W10G","A2I4PRZ9IZMKON","39N6W9XWRD9306QNTNZSDTAN4LJGYK","","img/set1/S2.jpg","68","2","structured_normal","68","true","structured_normal,structured_incentive,random","1,2,2,3","",""
"null","","html-keyboard-response","288","980579","0.0-217.0","34Q075JO1YZBLG2TUY8I3X8JY9W10G","A2I4PRZ9IZMKON","39N6W9XWRD9306QNTNZSDTAN4LJGYK","","<img src=""img/set1/S2.jpg"" width=""540"" height = ""360"" style=""border:16px solid orange"">","null","","","","","","","",""
"null","","html-keyboard-response","289","980582","0.0-218.0","34Q075JO1YZBLG2TUY8I3X8JY9W10G","A2I4PRZ9IZMKON","39N6W9XWRD9306QNTNZSDTAN4LJGYK","","","null","","","","","","","",""
"684.5","","image-keyboard-response","290","981268","0.0-219.0","34Q075JO1YZBLG2TUY8I3X8JY9W10G","A2I4PRZ9IZMKON","39N6W9XWRD9306QNTNZSDTAN4LJGYK","","img/set1/S4.jpg","74","4","structured_normal","74","true","structured_normal,structured_incentive,random","1,2,2,3","",""
"null","","html-keyboard-response","291","981621","0.0-220.0","34Q075JO1YZBLG2TUY8I3X8JY9W10G","A2I4PRZ9IZMKON","39N6W9XWRD9306QNTNZSDTAN4LJGYK","","<img src=""img/set1/S4.jpg"" width=""540"" height = ""360"" style=""border:16px solid orange"">","null","","","","","","","",""
"null","","html-keyboard-response","292","981624","0.0-221.0","34Q075JO1YZBLG2TUY8I3X8JY9W10G","A2I4PRZ9IZMKON","39N6W9XWRD9306QNTNZSDTAN4LJGYK","","","null","","","","","","","",""
"396.59999990463257","","image-keyboard-response","293","982022","0.0-222.0","34Q075JO1YZBLG2TUY8I3X8JY9W10G","A2I4PRZ9IZMKON","39N6W9XWRD9306QNTNZSDTAN4LJGYK","","img/set1/S4.jpg","74","4","structured_normal","74","true","structured_normal,structured_incentive,random","1,2,2,3","",""
"null","","html-keyboard-response","294","982376","0.0-223.0","34Q075JO1YZBLG2TUY8I3X8JY9W10G","A2I4PRZ9IZMKON","39N6W9XWRD9306QNTNZSDTAN4LJGYK","","<img src=""img/set1/S4.jpg"" width=""540"" height = ""360"" style=""border:16px solid orange"">","null","","","","","","","",""
"null","","html-keyboard-response","295","982378","0.0-224.0","34Q075JO1YZBLG2TUY8I3X8JY9W10G","A2I4PRZ9IZMKON","39N6W9XWRD9306QNTNZSDTAN4LJGYK","","","null","","","","","","","",""
"1571.1999999284744","","image-keyboard-response","296","983951","0.0-225.0","34Q075JO1YZBLG2TUY8I3X8JY9W10G","A2I4PRZ9IZMKON","39N6W9XWRD9306QNTNZSDTAN4LJGYK","","img/set1/S3.jpg","72","3","structured_normal","72","true","structured_normal,structured_incentive,random","1,2,2,3","",""
"null","","html-keyboard-response","297","984305","0.0-226.0","34Q075JO1YZBLG2TUY8I3X8JY9W10G","A2I4PRZ9IZMKON","39N6W9XWRD9306QNTNZSDTAN4LJGYK","","<img src=""img/set1/S3.jpg"" width=""540"" height = ""360"" style=""border:16px solid orange"">","null","","","","","","","",""
"null","","html-keyboard-response","298","984307","0.0-227.0","34Q075JO1YZBLG2TUY8I3X8JY9W10G","A2I4PRZ9IZMKON","39N6W9XWRD9306QNTNZSDTAN4LJGYK","","","null","","","","","","","",""
"1482.1999999284744","","image-keyboard-response","299","985791","0.0-228.0","34Q075JO1YZBLG2TUY8I3X8JY9W10G","A2I4PRZ9IZMKON","39N6W9XWRD9306QNTNZSDTAN4LJGYK","","img/set1/S4.jpg","74","4","structured_normal","74","true","structured_normal,structured_incentive,random","1,2,2,3","",""
"null","","html-keyboard-response","300","986144","0.0-229.0","34Q075JO1YZBLG2TUY8I3X8JY9W10G","A2I4PRZ9IZMKON","39N6W9XWRD9306QNTNZSDTAN4LJGYK","","<img src=""img/set1/S4.jpg"" width=""540"" height = ""360"" style=""border:16px solid orange"">","null","","","","","","","",""
"null","","html-keyboard-response","301","986147","0.0-230.0","34Q075JO1YZBLG2TUY8I3X8JY9W10G","A2I4PRZ9IZMKON","39N6W9XWRD9306QNTNZSDTAN4LJGYK","","","null","","","","","","","",""
"679.8000000715256","","image-keyboard-response","302","986829","0.0-231.0","34Q075JO1YZBLG2TUY8I3X8JY9W10G","A2I4PRZ9IZMKON","39N6W9XWRD9306QNTNZSDTAN4LJGYK","","img/set1/S1.jpg","83","1","structured_normal","83","true","structured_normal,structured_incentive,random","1,2,2,3","",""
"null","","html-keyboard-response","303","987182","0.0-232.0","34Q075JO1YZBLG2TUY8I3X8JY9W10G","A2I4PRZ9IZMKON","39N6W9XWRD9306QNTNZSDTAN4LJGYK","","<img src=""img/set1/S1.jpg"" width=""540"" height = ""360"" style=""border:16px solid orange"">","null","","","","","","","",""
"null","","html-keyboard-response","304","987184","0.0-233.0","34Q075JO1YZBLG2TUY8I3X8JY9W10G","A2I4PRZ9IZMKON","39N6W9XWRD9306QNTNZSDTAN4LJGYK","","","null","","","","","","","",""
"959","","image-keyboard-response","305","988145","0.0-234.0","34Q075JO1YZBLG2TUY8I3X8JY9W10G","A2I4PRZ9IZMKON","39N6W9XWRD9306QNTNZSDTAN4LJGYK","","img/set1/S3.jpg","72","3","structured_normal","72","true","structured_normal,structured_incentive,random","1,2,2,3","",""
"null","","html-keyboard-response","306","988498","0.0-235.0","34Q075JO1YZBLG2TUY8I3X8JY9W10G","A2I4PRZ9IZMKON","39N6W9XWRD9306QNTNZSDTAN4LJGYK","","<img src=""img/set1/S3.jpg"" width=""540"" height = ""360"" style=""border:16px solid orange"">","null","","","","","","","",""
"null","","html-keyboard-response","307","988500","0.0-236.0","34Q075JO1YZBLG2TUY8I3X8JY9W10G","A2I4PRZ9IZMKON","39N6W9XWRD9306QNTNZSDTAN4LJGYK","","","null","","","","","","","",""
"775.3999999761581","","image-keyboard-response","308","989278","0.0-237.0","34Q075JO1YZBLG2TUY8I3X8JY9W10G","A2I4PRZ9IZMKON","39N6W9XWRD9306QNTNZSDTAN4LJGYK","","img/set1/S4.jpg","74","4","structured_normal","74","true","structured_normal,structured_incentive,random","1,2,2,3","",""
"null","","html-keyboard-response","309","989630","0.0-238.0","34Q075JO1YZBLG2TUY8I3X8JY9W10G","A2I4PRZ9IZMKON","39N6W9XWRD9306QNTNZSDTAN4LJGYK","","<img src=""img/set1/S4.jpg"" width=""540"" height = ""360"" style=""border:16px solid orange"">","null","","","","","","","",""
"null","","html-keyboard-response","310","989633","0.0-239.0","34Q075JO1YZBLG2TUY8I3X8JY9W10G","A2I4PRZ9IZMKON","39N6W9XWRD9306QNTNZSDTAN4LJGYK","","","null","","","","","","","",""
"440.39999997615814","","image-keyboard-response","311","990075","0.0-240.0","34Q075JO1YZBLG2TUY8I3X8JY9W10G","A2I4PRZ9IZMKON","39N6W9XWRD9306QNTNZSDTAN4LJGYK","","img/set1/S4.jpg","74","4","structured_normal","74","true","structured_normal,structured_incentive,random","1,2,2,3","",""
"null","","html-keyboard-response","312","990428","0.0-241.0","34Q075JO1YZBLG2TUY8I3X8JY9W10G","A2I4PRZ9IZMKON","39N6W9XWRD9306QNTNZSDTAN4LJGYK","","<img src=""img/set1/S4.jpg"" width=""540"" height = ""360"" style=""border:16px solid orange"">","null","","","","","","","",""
"null","","html-keyboard-response","313","990432","0.0-242.0","34Q075JO1YZBLG2TUY8I3X8JY9W10G","A2I4PRZ9IZMKON","39N6W9XWRD9306QNTNZSDTAN4LJGYK","","","null","","","","","","","",""
"1046","","image-keyboard-response","314","991479","0.0-243.0","34Q075JO1YZBLG2TUY8I3X8JY9W10G","A2I4PRZ9IZMKON","39N6W9XWRD9306QNTNZSDTAN4LJGYK","","img/set1/S1.jpg","83","1","structured_normal","83","true","structured_normal,structured_incentive,random","1,2,2,3","",""
"null","","html-keyboard-response","315","991832","0.0-244.0","34Q075JO1YZBLG2TUY8I3X8JY9W10G","A2I4PRZ9IZMKON","39N6W9XWRD9306QNTNZSDTAN4LJGYK","","<img src=""img/set1/S1.jpg"" width=""540"" height = ""360"" style=""border:16px solid orange"">","null","","","","","","","",""
"null","","html-keyboard-response","316","991834","0.0-245.0","34Q075JO1YZBLG2TUY8I3X8JY9W10G","A2I4PRZ9IZMKON","39N6W9XWRD9306QNTNZSDTAN4LJGYK","","","null","","","","","","","",""
"700.4000000953674","","image-keyboard-response","317","992537","0.0-246.0","34Q075JO1YZBLG2TUY8I3X8JY9W10G","A2I4PRZ9IZMKON","39N6W9XWRD9306QNTNZSDTAN4LJGYK","","img/set1/S2.jpg","68","2","structured_normal","68","true","structured_normal,structured_incentive,random","1,2,2,3","",""
"null","","html-keyboard-response","318","992889","0.0-247.0","34Q075JO1YZBLG2TUY8I3X8JY9W10G","A2I4PRZ9IZMKON","39N6W9XWRD9306QNTNZSDTAN4LJGYK","","<img src=""img/set1/S2.jpg"" width=""540"" height = ""360"" style=""border:16px solid orange"">","null","","","","","","","",""
"null","","html-keyboard-response","319","992893","0.0-248.0","34Q075JO1YZBLG2TUY8I3X8JY9W10G","A2I4PRZ9IZMKON","39N6W9XWRD9306QNTNZSDTAN4LJGYK","","","null","","","","","","","",""
"866.6999999284744","","image-keyboard-response","320","993761","0.0-249.0","34Q075JO1YZBLG2TUY8I3X8JY9W10G","A2I4PRZ9IZMKON","39N6W9XWRD9306QNTNZSDTAN4LJGYK","","img/set1/S1.jpg","83","1","structured_normal","83","true","structured_normal,structured_incentive,random","1,2,2,3","",""
"null","","html-keyboard-response","321","994115","0.0-250.0","34Q075JO1YZBLG2TUY8I3X8JY9W10G","A2I4PRZ9IZMKON","39N6W9XWRD9306QNTNZSDTAN4LJGYK","","<img src=""img/set1/S1.jpg"" width=""540"" height = ""360"" style=""border:16px solid orange"">","null","","","","","","","",""
"null","","html-keyboard-response","322","994117","0.0-251.0","34Q075JO1YZBLG2TUY8I3X8JY9W10G","A2I4PRZ9IZMKON","39N6W9XWRD9306QNTNZSDTAN4LJGYK","","","null","","","","","","","",""
"451.10000002384186","","image-keyboard-response","323","994570","0.0-252.0","34Q075JO1YZBLG2TUY8I3X8JY9W10G","A2I4PRZ9IZMKON","39N6W9XWRD9306QNTNZSDTAN4LJGYK","","img/set1/S2.jpg","68","2","structured_normal","68","true","structured_normal,structured_incentive,random","1,2,2,3","",""
"null","","html-keyboard-response","324","994922","0.0-253.0","34Q075JO1YZBLG2TUY8I3X8JY9W10G","A2I4PRZ9IZMKON","39N6W9XWRD9306QNTNZSDTAN4LJGYK","","<img src=""img/set1/S2.jpg"" width=""540"" height = ""360"" style=""border:16px solid orange"">","null","","","","","","","",""
"null","","html-keyboard-response","325","994925","0.0-254.0","34Q075JO1YZBLG2TUY8I3X8JY9W10G","A2I4PRZ9IZMKON","39N6W9XWRD9306QNTNZSDTAN4LJGYK","","","null","","","","","","","",""
"983.5","","image-keyboard-response","326","995910","0.0-255.0","34Q075JO1YZBLG2TUY8I3X8JY9W10G","A2I4PRZ9IZMKON","39N6W9XWRD9306QNTNZSDTAN4LJGYK","","img/set1/S3.jpg","72","3","structured_normal","72","true","structured_normal,structured_incentive,random","1,2,2,3","",""
"null","","html-keyboard-response","327","996275","0.0-256.0","34Q075JO1YZBLG2TUY8I3X8JY9W10G","A2I4PRZ9IZMKON","39N6W9XWRD9306QNTNZSDTAN4LJGYK","","<img src=""img/set1/S3.jpg"" width=""540"" height = ""360"" style=""border:16px solid orange"">","null","","","","","","","",""
"null","","html-keyboard-response","328","996277","0.0-257.0","34Q075JO1YZBLG2TUY8I3X8JY9W10G","A2I4PRZ9IZMKON","39N6W9XWRD9306QNTNZSDTAN4LJGYK","","","null","","","","","","","",""
"419.10000002384186","","image-keyboard-response","329","996698","0.0-258.0","34Q075JO1YZBLG2TUY8I3X8JY9W10G","A2I4PRZ9IZMKON","39N6W9XWRD9306QNTNZSDTAN4LJGYK","","img/set1/S3.jpg","72","3","structured_normal","72","true","structured_normal,structured_incentive,random","1,2,2,3","",""
"null","","html-keyboard-response","330","997051","0.0-259.0","34Q075JO1YZBLG2TUY8I3X8JY9W10G","A2I4PRZ9IZMKON","39N6W9XWRD9306QNTNZSDTAN4LJGYK","","<img src=""img/set1/S3.jpg"" width=""540"" height = ""360"" style=""border:16px solid orange"">","null","","","","","","","",""
"null","","html-keyboard-response","331","997054","0.0-260.0","34Q075JO1YZBLG2TUY8I3X8JY9W10G","A2I4PRZ9IZMKON","39N6W9XWRD9306QNTNZSDTAN4LJGYK","","","null","","","","","","","",""
"1748","","image-keyboard-response","332","998804","0.0-261.0","34Q075JO1YZBLG2TUY8I3X8JY9W10G","A2I4PRZ9IZMKON","39N6W9XWRD9306QNTNZSDTAN4LJGYK","","img/set1/S2.jpg","68","2","structured_normal","68","true","structured_normal,structured_incentive,random","1,2,2,3","",""
"null","","html-keyboard-response","333","999157","0.0-262.0","34Q075JO1YZBLG2TUY8I3X8JY9W10G","A2I4PRZ9IZMKON","39N6W9XWRD9306QNTNZSDTAN4LJGYK","","<img src=""img/set1/S2.jpg"" width=""540"" height = ""360"" style=""border:16px solid orange"">","null","","","","","","","",""
"null","","html-keyboard-response","334","999160","0.0-263.0","34Q075JO1YZBLG2TUY8I3X8JY9W10G","A2I4PRZ9IZMKON","39N6W9XWRD9306QNTNZSDTAN4LJGYK","","","null","","","","","","","",""
"716.5","","image-keyboard-response","335","999878","0.0-264.0","34Q075JO1YZBLG2TUY8I3X8JY9W10G","A2I4PRZ9IZMKON","39N6W9XWRD9306QNTNZSDTAN4LJGYK","","img/set1/S4.jpg","74","4","structured_normal","74","true","structured_normal,structured_incentive,random","1,2,2,3","",""
"null","","html-keyboard-response","336","1000232","0.0-265.0","34Q075JO1YZBLG2TUY8I3X8JY9W10G","A2I4PRZ9IZMKON","39N6W9XWRD9306QNTNZSDTAN4LJGYK","","<img src=""img/set1/S4.jpg"" width=""540"" height = ""360"" style=""border:16px solid orange"">","null","","","","","","","",""
"null","","html-keyboard-response","337","1000234","0.0-266.0","34Q075JO1YZBLG2TUY8I3X8JY9W10G","A2I4PRZ9IZMKON","39N6W9XWRD9306QNTNZSDTAN4LJGYK","","","null","","","","","","","",""
"565.7999999523163","","image-keyboard-response","338","1000802","0.0-267.0","34Q075JO1YZBLG2TUY8I3X8JY9W10G","A2I4PRZ9IZMKON","39N6W9XWRD9306QNTNZSDTAN4LJGYK","","img/set1/S4.jpg","74","4","structured_normal","74","true","structured_normal,structured_incentive,random","1,2,2,3","",""
"null","","html-keyboard-response","339","1001155","0.0-268.0","34Q075JO1YZBLG2TUY8I3X8JY9W10G","A2I4PRZ9IZMKON","39N6W9XWRD9306QNTNZSDTAN4LJGYK","","<img src=""img/set1/S4.jpg"" width=""540"" height = ""360"" style=""border:16px solid orange"">","null","","","","","","","",""
"null","","html-keyboard-response","340","1001158","0.0-269.0","34Q075JO1YZBLG2TUY8I3X8JY9W10G","A2I4PRZ9IZMKON","39N6W9XWRD9306QNTNZSDTAN4LJGYK","","","null","","","","","","","",""
"700.5","","image-keyboard-response","341","1001860","0.0-270.0","34Q075JO1YZBLG2TUY8I3X8JY9W10G","A2I4PRZ9IZMKON","39N6W9XWRD9306QNTNZSDTAN4LJGYK","","img/set1/S1.jpg","83","1","structured_normal","83","true","structured_normal,structured_incentive,random","1,2,2,3","",""
"null","","html-keyboard-response","342","1002222","0.0-271.0","34Q075JO1YZBLG2TUY8I3X8JY9W10G","A2I4PRZ9IZMKON","39N6W9XWRD9306QNTNZSDTAN4LJGYK","","<img src=""img/set1/S1.jpg"" width=""540"" height = ""360"" style=""border:16px solid orange"">","null","","","","","","","",""
"null","","html-keyboard-response","343","1002224","0.0-272.0","34Q075JO1YZBLG2TUY8I3X8JY9W10G","A2I4PRZ9IZMKON","39N6W9XWRD9306QNTNZSDTAN4LJGYK","","","null","","","","","","","",""
"679.2000000476837","","image-keyboard-response","344","1002905","0.0-273.0","34Q075JO1YZBLG2TUY8I3X8JY9W10G","A2I4PRZ9IZMKON","39N6W9XWRD9306QNTNZSDTAN4LJGYK","","img/set1/S2.jpg","68","2","structured_normal","68","true","structured_normal,structured_incentive,random","1,2,2,3","",""
"null","","html-keyboard-response","345","1003257","0.0-274.0","34Q075JO1YZBLG2TUY8I3X8JY9W10G","A2I4PRZ9IZMKON","39N6W9XWRD9306QNTNZSDTAN4LJGYK","","<img src=""img/set1/S2.jpg"" width=""540"" height = ""360"" style=""border:16px solid orange"">","null","","","","","","","",""
"null","","html-keyboard-response","346","1003260","0.0-275.0","34Q075JO1YZBLG2TUY8I3X8JY9W10G","A2I4PRZ9IZMKON","39N6W9XWRD9306QNTNZSDTAN4LJGYK","","","null","","","","","","","",""
"757.6000000238419","","image-keyboard-response","347","1004019","0.0-276.0","34Q075JO1YZBLG2TUY8I3X8JY9W10G","A2I4PRZ9IZMKON","39N6W9XWRD9306QNTNZSDTAN4LJGYK","","img/set1/S1.jpg","83","1","structured_normal","83","true","structured_normal,structured_incentive,random","1,2,2,3","",""
"null","","html-keyboard-response","348","1004372","0.0-277.0","34Q075JO1YZBLG2TUY8I3X8JY9W10G","A2I4PRZ9IZMKON","39N6W9XWRD9306QNTNZSDTAN4LJGYK","","<img src=""img/set1/S1.jpg"" width=""540"" height = ""360"" style=""border:16px solid orange"">","null","","","","","","","",""
"null","","html-keyboard-response","349","1004375","0.0-278.0","34Q075JO1YZBLG2TUY8I3X8JY9W10G","A2I4PRZ9IZMKON","39N6W9XWRD9306QNTNZSDTAN4LJGYK","","","null","","","","","","","",""
"672.7000000476837","","image-keyboard-response","350","1005049","0.0-279.0","34Q075JO1YZBLG2TUY8I3X8JY9W10G","A2I4PRZ9IZMKON","39N6W9XWRD9306QNTNZSDTAN4LJGYK","","img/set1/S3.jpg","72","3","structured_normal","72","true","structured_normal,structured_incentive,random","1,2,2,3","",""
"null","","html-keyboard-response","351","1005402","0.0-280.0","34Q075JO1YZBLG2TUY8I3X8JY9W10G","A2I4PRZ9IZMKON","39N6W9XWRD9306QNTNZSDTAN4LJGYK","","<img src=""img/set1/S3.jpg"" width=""540"" height = ""360"" style=""border:16px solid orange"">","null","","","","","","","",""
"null","","html-keyboard-response","352","1005404","0.0-281.0","34Q075JO1YZBLG2TUY8I3X8JY9W10G","A2I4PRZ9IZMKON","39N6W9XWRD9306QNTNZSDTAN4LJGYK","","","null","","","","","","","",""
"696.2000000476837","","image-keyboard-response","353","1006102","0.0-282.0","34Q075JO1YZBLG2TUY8I3X8JY9W10G","A2I4PRZ9IZMKON","39N6W9XWRD9306QNTNZSDTAN4LJGYK","","img/set1/S4.jpg","74","4","structured_normal","74","true","structured_normal,structured_incentive,random","1,2,2,3","",""
"null","","html-keyboard-response","354","1006456","0.0-283.0","34Q075JO1YZBLG2TUY8I3X8JY9W10G","A2I4PRZ9IZMKON","39N6W9XWRD9306QNTNZSDTAN4LJGYK","","<img src=""img/set1/S4.jpg"" width=""540"" height = ""360"" style=""border:16px solid orange"">","null","","","","","","","",""
"null","","html-keyboard-response","355","1006458","0.0-284.0","34Q075JO1YZBLG2TUY8I3X8JY9W10G","A2I4PRZ9IZMKON","39N6W9XWRD9306QNTNZSDTAN4LJGYK","","","null","","","","","","","",""
"672.3999999761581","","image-keyboard-response","356","1007132","0.0-285.0","34Q075JO1YZBLG2TUY8I3X8JY9W10G","A2I4PRZ9IZMKON","39N6W9XWRD9306QNTNZSDTAN4LJGYK","","img/set1/S1.jpg","83","1","structured_normal","83","true","structured_normal,structured_incentive,random","1,2,2,3","",""
"null","","html-keyboard-response","357","1007485","0.0-286.0","34Q075JO1YZBLG2TUY8I3X8JY9W10G","A2I4PRZ9IZMKON","39N6W9XWRD9306QNTNZSDTAN4LJGYK","","<img src=""img/set1/S1.jpg"" width=""540"" height = ""360"" style=""border:16px solid orange"">","null","","","","","","","",""
"null","","html-keyboard-response","358","1007487","0.0-287.0","34Q075JO1YZBLG2TUY8I3X8JY9W10G","A2I4PRZ9IZMKON","39N6W9XWRD9306QNTNZSDTAN4LJGYK","","","null","","","","","","","",""
"623.2999999523163","","image-keyboard-response","359","1008112","0.0-288.0","34Q075JO1YZBLG2TUY8I3X8JY9W10G","A2I4PRZ9IZMKON","39N6W9XWRD9306QNTNZSDTAN4LJGYK","","img/set1/S2.jpg","68","2","structured_normal","68","true","structured_normal,structured_incentive,random","1,2,2,3","",""
"null","","html-keyboard-response","360","1008465","0.0-289.0","34Q075JO1YZBLG2TUY8I3X8JY9W10G","A2I4PRZ9IZMKON","39N6W9XWRD9306QNTNZSDTAN4LJGYK","","<img src=""img/set1/S2.jpg"" width=""540"" height = ""360"" style=""border:16px solid orange"">","null","","","","","","","",""
"null","","html-keyboard-response","361","1008468","0.0-290.0","34Q075JO1YZBLG2TUY8I3X8JY9W10G","A2I4PRZ9IZMKON","39N6W9XWRD9306QNTNZSDTAN4LJGYK","","","null","","","","","","","",""
"1397.6000000238419","","image-keyboard-response","362","1009868","0.0-291.0","34Q075JO1YZBLG2TUY8I3X8JY9W10G","A2I4PRZ9IZMKON","39N6W9XWRD9306QNTNZSDTAN4LJGYK","","img/set1/S4.jpg","74","4","structured_normal","74","true","structured_normal,structured_incentive,random","1,2,2,3","",""
"null","","html-keyboard-response","363","1010220","0.0-292.0","34Q075JO1YZBLG2TUY8I3X8JY9W10G","A2I4PRZ9IZMKON","39N6W9XWRD9306QNTNZSDTAN4LJGYK","","<img src=""img/set1/S4.jpg"" width=""540"" height = ""360"" style=""border:16px solid orange"">","null","","","","","","","",""
"null","","html-keyboard-response","364","1010223","0.0-293.0","34Q075JO1YZBLG2TUY8I3X8JY9W10G","A2I4PRZ9IZMKON","39N6W9XWRD9306QNTNZSDTAN4LJGYK","","","null","","","","","","","",""
"1271","","image-keyboard-response","365","1011496","0.0-294.0","34Q075JO1YZBLG2TUY8I3X8JY9W10G","A2I4PRZ9IZMKON","39N6W9XWRD9306QNTNZSDTAN4LJGYK","","img/set1/S2.jpg","68","2","structured_normal","68","true","structured_normal,structured_incentive,random","1,2,2,3","",""
"null","","html-keyboard-response","366","1011856","0.0-295.0","34Q075JO1YZBLG2TUY8I3X8JY9W10G","A2I4PRZ9IZMKON","39N6W9XWRD9306QNTNZSDTAN4LJGYK","","<img src=""img/set1/S2.jpg"" width=""540"" height = ""360"" style=""border:16px solid orange"">","null","","","","","","","",""
"null","","html-keyboard-response","367","1011858","0.0-296.0","34Q075JO1YZBLG2TUY8I3X8JY9W10G","A2I4PRZ9IZMKON","39N6W9XWRD9306QNTNZSDTAN4LJGYK","","","null","","","","","","","",""
"849.2999999523163","","image-keyboard-response","368","1012710","0.0-297.0","34Q075JO1YZBLG2TUY8I3X8JY9W10G","A2I4PRZ9IZMKON","39N6W9XWRD9306QNTNZSDTAN4LJGYK","","img/set1/S1.jpg","83","1","structured_normal","83","true","structured_normal,structured_incentive,random","1,2,2,3","",""
"null","","html-keyboard-response","369","1013063","0.0-298.0","34Q075JO1YZBLG2TUY8I3X8JY9W10G","A2I4PRZ9IZMKON","39N6W9XWRD9306QNTNZSDTAN4LJGYK","","<img src=""img/set1/S1.jpg"" width=""540"" height = ""360"" style=""border:16px solid orange"">","null","","","","","","","",""
"null","","html-keyboard-response","370","1013066","0.0-299.0","34Q075JO1YZBLG2TUY8I3X8JY9W10G","A2I4PRZ9IZMKON","39N6W9XWRD9306QNTNZSDTAN4LJGYK","","","null","","","","","","","",""
"1437.2999999523163","","image-keyboard-response","371","1014505","0.0-300.0","34Q075JO1YZBLG2TUY8I3X8JY9W10G","A2I4PRZ9IZMKON","39N6W9XWRD9306QNTNZSDTAN4LJGYK","","img/set1/S2.jpg","68","2","structured_normal","68","true","structured_normal,structured_incentive,random","1,2,2,3","",""
"null","","html-keyboard-response","372","1014857","0.0-301.0","34Q075JO1YZBLG2TUY8I3X8JY9W10G","A2I4PRZ9IZMKON","39N6W9XWRD9306QNTNZSDTAN4LJGYK","","<img src=""img/set1/S2.jpg"" width=""540"" height = ""360"" style=""border:16px solid orange"">","null","","","","","","","",""
"null","","html-keyboard-response","373","1014860","0.0-302.0","34Q075JO1YZBLG2TUY8I3X8JY9W10G","A2I4PRZ9IZMKON","39N6W9XWRD9306QNTNZSDTAN4LJGYK","","","null","","","","","","","",""
"960.5","","image-keyboard-response","374","1015822","0.0-303.0","34Q075JO1YZBLG2TUY8I3X8JY9W10G","A2I4PRZ9IZMKON","39N6W9XWRD9306QNTNZSDTAN4LJGYK","","img/set1/S4.jpg","74","4","structured_normal","74","true","structured_normal,structured_incentive,random","1,2,2,3","",""
"null","","html-keyboard-response","375","1016176","0.0-304.0","34Q075JO1YZBLG2TUY8I3X8JY9W10G","A2I4PRZ9IZMKON","39N6W9XWRD9306QNTNZSDTAN4LJGYK","","<img src=""img/set1/S4.jpg"" width=""540"" height = ""360"" style=""border:16px solid orange"">","null","","","","","","","",""
"null","","html-keyboard-response","376","1016178","0.0-305.0","34Q075JO1YZBLG2TUY8I3X8JY9W10G","A2I4PRZ9IZMKON","39N6W9XWRD9306QNTNZSDTAN4LJGYK","","","null","","","","","","","",""
"390.2000000476837","","image-keyboard-response","377","1016570","0.0-306.0","34Q075JO1YZBLG2TUY8I3X8JY9W10G","A2I4PRZ9IZMKON","39N6W9XWRD9306QNTNZSDTAN4LJGYK","","img/set1/S4.jpg","74","4","structured_normal","74","true","structured_normal,structured_incentive,random","1,2,2,3","",""
"null","","html-keyboard-response","378","1016922","0.0-307.0","34Q075JO1YZBLG2TUY8I3X8JY9W10G","A2I4PRZ9IZMKON","39N6W9XWRD9306QNTNZSDTAN4LJGYK","","<img src=""img/set1/S4.jpg"" width=""540"" height = ""360"" style=""border:16px solid orange"">","null","","","","","","","",""
"null","","html-keyboard-response","379","1016925","0.0-308.0","34Q075JO1YZBLG2TUY8I3X8JY9W10G","A2I4PRZ9IZMKON","39N6W9XWRD9306QNTNZSDTAN4LJGYK","","","null","","","","","","","",""
"422.09999990463257","","image-keyboard-response","380","1017349","0.0-309.0","34Q075JO1YZBLG2TUY8I3X8JY9W10G","A2I4PRZ9IZMKON","39N6W9XWRD9306QNTNZSDTAN4LJGYK","","img/set1/S4.jpg","74","4","structured_normal","74","true","structured_normal,structured_incentive,random","1,2,2,3","",""
"null","","html-keyboard-response","381","1017702","0.0-310.0","34Q075JO1YZBLG2TUY8I3X8JY9W10G","A2I4PRZ9IZMKON","39N6W9XWRD9306QNTNZSDTAN4LJGYK","","<img src=""img/set1/S4.jpg"" width=""540"" height = ""360"" style=""border:16px solid orange"">","null","","","","","","","",""
"null","","html-keyboard-response","382","1017704","0.0-311.0","34Q075JO1YZBLG2TUY8I3X8JY9W10G","A2I4PRZ9IZMKON","39N6W9XWRD9306QNTNZSDTAN4LJGYK","","","null","","","","","","","",""
"738.2999999523163","","image-keyboard-response","383","1018445","0.0-312.0","34Q075JO1YZBLG2TUY8I3X8JY9W10G","A2I4PRZ9IZMKON","39N6W9XWRD9306QNTNZSDTAN4LJGYK","","img/set1/S1.jpg","83","1","structured_normal","83","true","structured_normal,structured_incentive,random","1,2,2,3","",""
"null","","html-keyboard-response","384","1018798","0.0-313.0","34Q075JO1YZBLG2TUY8I3X8JY9W10G","A2I4PRZ9IZMKON","39N6W9XWRD9306QNTNZSDTAN4LJGYK","","<img src=""img/set1/S1.jpg"" width=""540"" height = ""360"" style=""border:16px solid orange"">","null","","","","","","","",""
"null","","html-keyboard-response","385","1018801","0.0-314.0","34Q075JO1YZBLG2TUY8I3X8JY9W10G","A2I4PRZ9IZMKON","39N6W9XWRD9306QNTNZSDTAN4LJGYK","","","null","","","","","","","",""
"902.7000000476837","","image-keyboard-response","386","1019705","0.0-315.0","34Q075JO1YZBLG2TUY8I3X8JY9W10G","A2I4PRZ9IZMKON","39N6W9XWRD9306QNTNZSDTAN4LJGYK","","img/set1/S2.jpg","68","2","structured_normal","68","true","structured_normal,structured_incentive,random","1,2,2,3","",""
"null","","html-keyboard-response","387","1020058","0.0-316.0","34Q075JO1YZBLG2TUY8I3X8JY9W10G","A2I4PRZ9IZMKON","39N6W9XWRD9306QNTNZSDTAN4LJGYK","","<img src=""img/set1/S2.jpg"" width=""540"" height = ""360"" style=""border:16px solid orange"">","null","","","","","","","",""
"null","","html-keyboard-response","388","1020061","0.0-317.0","34Q075JO1YZBLG2TUY8I3X8JY9W10G","A2I4PRZ9IZMKON","39N6W9XWRD9306QNTNZSDTAN4LJGYK","","","null","","","","","","","",""
"531.2000000476837","","image-keyboard-response","389","1020596","0.0-318.0","34Q075JO1YZBLG2TUY8I3X8JY9W10G","A2I4PRZ9IZMKON","39N6W9XWRD9306QNTNZSDTAN4LJGYK","","img/set1/S2.jpg","68","2","structured_normal","68","true","structured_normal,structured_incentive,random","1,2,2,3","",""
"null","","html-keyboard-response","390","1020948","0.0-319.0","34Q075JO1YZBLG2TUY8I3X8JY9W10G","A2I4PRZ9IZMKON","39N6W9XWRD9306QNTNZSDTAN4LJGYK","","<img src=""img/set1/S2.jpg"" width=""540"" height = ""360"" style=""border:16px solid orange"">","null","","","","","","","",""
"null","","html-keyboard-response","391","1020950","0.0-320.0","34Q075JO1YZBLG2TUY8I3X8JY9W10G","A2I4PRZ9IZMKON","39N6W9XWRD9306QNTNZSDTAN4LJGYK","","","null","","","","","","","",""
"733.8999999761581","","image-keyboard-response","392","1021686","0.0-321.0","34Q075JO1YZBLG2TUY8I3X8JY9W10G","A2I4PRZ9IZMKON","39N6W9XWRD9306QNTNZSDTAN4LJGYK","","img/set1/S4.jpg","74","4","structured_normal","74","true","structured_normal,structured_incentive,random","1,2,2,3","",""
"null","","html-keyboard-response","393","1022047","0.0-322.0","34Q075JO1YZBLG2TUY8I3X8JY9W10G","A2I4PRZ9IZMKON","39N6W9XWRD9306QNTNZSDTAN4LJGYK","","<img src=""img/set1/S4.jpg"" width=""540"" height = ""360"" style=""border:16px solid orange"">","null","","","","","","","",""
"null","","html-keyboard-response","394","1022049","0.0-323.0","34Q075JO1YZBLG2TUY8I3X8JY9W10G","A2I4PRZ9IZMKON","39N6W9XWRD9306QNTNZSDTAN4LJGYK","","","null","","","","","","","",""
"805.2999999523163","","image-keyboard-response","395","1022856","0.0-324.0","34Q075JO1YZBLG2TUY8I3X8JY9W10G","A2I4PRZ9IZMKON","39N6W9XWRD9306QNTNZSDTAN4LJGYK","","img/set1/S3.jpg","72","3","structured_normal","72","true","structured_normal,structured_incentive,random","1,2,2,3","",""
"null","","html-keyboard-response","396","1023210","0.0-325.0","34Q075JO1YZBLG2TUY8I3X8JY9W10G","A2I4PRZ9IZMKON","39N6W9XWRD9306QNTNZSDTAN4LJGYK","","<img src=""img/set1/S3.jpg"" width=""540"" height = ""360"" style=""border:16px solid orange"">","null","","","","","","","",""
"null","","html-keyboard-response","397","1023213","0.0-326.0","34Q075JO1YZBLG2TUY8I3X8JY9W10G","A2I4PRZ9IZMKON","39N6W9XWRD9306QNTNZSDTAN4LJGYK","","","null","","","","","","","",""
"436.09999990463257","","image-keyboard-response","398","1023651","0.0-327.0","34Q075JO1YZBLG2TUY8I3X8JY9W10G","A2I4PRZ9IZMKON","39N6W9XWRD9306QNTNZSDTAN4LJGYK","","img/set1/S3.jpg","72","3","structured_normal","72","true","structured_normal,structured_incentive,random","1,2,2,3","",""
"null","","html-keyboard-response","399","1024016","0.0-328.0","34Q075JO1YZBLG2TUY8I3X8JY9W10G","A2I4PRZ9IZMKON","39N6W9XWRD9306QNTNZSDTAN4LJGYK","","<img src=""img/set1/S3.jpg"" width=""540"" height = ""360"" style=""border:16px solid orange"">","null","","","","","","","",""
"null","","html-keyboard-response","400","1024019","0.0-329.0","34Q075JO1YZBLG2TUY8I3X8JY9W10G","A2I4PRZ9IZMKON","39N6W9XWRD9306QNTNZSDTAN4LJGYK","","","null","","","","","","","",""
"615","","image-keyboard-response","401","1024636","0.0-330.0","34Q075JO1YZBLG2TUY8I3X8JY9W10G","A2I4PRZ9IZMKON","39N6W9XWRD9306QNTNZSDTAN4LJGYK","","img/set1/S4.jpg","74","4","structured_normal","74","true","structured_normal,structured_incentive,random","1,2,2,3","",""
"null","","html-keyboard-response","402","1024987","0.0-331.0","34Q075JO1YZBLG2TUY8I3X8JY9W10G","A2I4PRZ9IZMKON","39N6W9XWRD9306QNTNZSDTAN4LJGYK","","<img src=""img/set1/S4.jpg"" width=""540"" height = ""360"" style=""border:16px solid orange"">","null","","","","","","","",""
"null","","html-keyboard-response","403","1024990","0.0-332.0","34Q075JO1YZBLG2TUY8I3X8JY9W10G","A2I4PRZ9IZMKON","39N6W9XWRD9306QNTNZSDTAN4LJGYK","","","null","","","","","","","",""
"445.39999997615814","","image-keyboard-response","404","1025437","0.0-333.0","34Q075JO1YZBLG2TUY8I3X8JY9W10G","A2I4PRZ9IZMKON","39N6W9XWRD9306QNTNZSDTAN4LJGYK","","img/set1/S4.jpg","74","4","structured_normal","74","true","structured_normal,structured_incentive,random","1,2,2,3","",""
"null","","html-keyboard-response","405","1025791","0.0-334.0","34Q075JO1YZBLG2TUY8I3X8JY9W10G","A2I4PRZ9IZMKON","39N6W9XWRD9306QNTNZSDTAN4LJGYK","","<img src=""img/set1/S4.jpg"" width=""540"" height = ""360"" style=""border:16px solid orange"">","null","","","","","","","",""
"null","","html-keyboard-response","406","1025793","0.0-335.0","34Q075JO1YZBLG2TUY8I3X8JY9W10G","A2I4PRZ9IZMKON","39N6W9XWRD9306QNTNZSDTAN4LJGYK","","","null","","","","","","","",""
"615.2999999523163","","image-keyboard-response","407","1026410","0.0-336.0","34Q075JO1YZBLG2TUY8I3X8JY9W10G","A2I4PRZ9IZMKON","39N6W9XWRD9306QNTNZSDTAN4LJGYK","","img/set1/S1.jpg","83","1","structured_normal","83","true","structured_normal,structured_incentive,random","1,2,2,3","",""
"null","","html-keyboard-response","408","1026763","0.0-337.0","34Q075JO1YZBLG2TUY8I3X8JY9W10G","A2I4PRZ9IZMKON","39N6W9XWRD9306QNTNZSDTAN4LJGYK","","<img src=""img/set1/S1.jpg"" width=""540"" height = ""360"" style=""border:16px solid orange"">","null","","","","","","","",""
