"rt","url","trial_type","trial_index","time_elapsed","internal_node_id","assignmentID","mturkID","hitID","view_history","stimulus","key_press","state","test_part","correct_response","correct","order_block","order_chunk","bonus","responses"
"3635.4199999477714","consent.html","external-html","0","3699","0.0-0.0","33PPO7FECW1GK6ZLEHHJA39O90GDID","A2P76QVLSGJR45","3R5LWXWHR0UE010DORDQUF3E2FPGXE","","","","","","","","","","",""
"28395.250000059605","","instructions","1","32097","0.0-1.0","33PPO7FECW1GK6ZLEHHJA39O90GDID","A2P76QVLSGJR45","3R5LWXWHR0UE010DORDQUF3E2FPGXE","[{""page_index"":0,""viewing_time"":1516.4449999574572},{""page_index"":1,""viewing_time"":2932.9650001600385},{""page_index"":2,""viewing_time"":3206.6800000611693},{""page_index"":3,""viewing_time"":6860.114999813959},{""page_index"":4,""viewing_time"":3145.1450001914054},{""page_index"":5,""viewing_time"":4409.814999904484},{""page_index"":6,""viewing_time"":1868.3549999259412},{""page_index"":7,""viewing_time"":4454.415000043809}]","","","","","","","","","",""
"2259.0499999932945","","image-keyboard-response","2","34361","0.0-2.0-0.0","33PPO7FECW1GK6ZLEHHJA39O90GDID","A2P76QVLSGJR45","3R5LWXWHR0UE010DORDQUF3E2FPGXE","","img/practice/S1.jpg","74","1","practice","83","false","","","",""
"null","","html-keyboard-response","3","34667","0.0-2.0-1.0","33PPO7FECW1GK6ZLEHHJA39O90GDID","A2P76QVLSGJR45","3R5LWXWHR0UE010DORDQUF3E2FPGXE","","<img src=""img/practice/S1.jpg"" width=""540"" height = ""360"">","null","","","","","","","",""
"null","","html-keyboard-response","4","34670","0.0-2.0-2.0","33PPO7FECW1GK6ZLEHHJA39O90GDID","A2P76QVLSGJR45","3R5LWXWHR0UE010DORDQUF3E2FPGXE","","","null","","","","","","","",""
"993.1299998424947","","image-keyboard-response","5","35665","0.0-2.0-0.1","33PPO7FECW1GK6ZLEHHJA39O90GDID","A2P76QVLSGJR45","3R5LWXWHR0UE010DORDQUF3E2FPGXE","","img/practice/S4.jpg","72","4","practice","74","false","","","",""
"null","","html-keyboard-response","6","35969","0.0-2.0-1.1","33PPO7FECW1GK6ZLEHHJA39O90GDID","A2P76QVLSGJR45","3R5LWXWHR0UE010DORDQUF3E2FPGXE","","<img src=""img/practice/S4.jpg"" width=""540"" height = ""360"">","null","","","","","","","",""
"null","","html-keyboard-response","7","35971","0.0-2.0-2.1","33PPO7FECW1GK6ZLEHHJA39O90GDID","A2P76QVLSGJR45","3R5LWXWHR0UE010DORDQUF3E2FPGXE","","","null","","","","","","","",""
"806.0850000474602","","image-keyboard-response","8","36780","0.0-2.0-0.2","33PPO7FECW1GK6ZLEHHJA39O90GDID","A2P76QVLSGJR45","3R5LWXWHR0UE010DORDQUF3E2FPGXE","","img/practice/S2.jpg","68","2","practice","68","true","","","",""
"null","","html-keyboard-response","9","37082","0.0-2.0-1.2","33PPO7FECW1GK6ZLEHHJA39O90GDID","A2P76QVLSGJR45","3R5LWXWHR0UE010DORDQUF3E2FPGXE","","<img src=""img/practice/S2.jpg"" width=""540"" height = ""360"" style=""border:16px solid orange"">","null","","","","","","","",""
"null","","html-keyboard-response","10","37084","0.0-2.0-2.2","33PPO7FECW1GK6ZLEHHJA39O90GDID","A2P76QVLSGJR45","3R5LWXWHR0UE010DORDQUF3E2FPGXE","","","null","","","","","","","",""
"1425.5750000011176","","image-keyboard-response","11","38511","0.0-2.0-0.3","33PPO7FECW1GK6ZLEHHJA39O90GDID","A2P76QVLSGJR45","3R5LWXWHR0UE010DORDQUF3E2FPGXE","","img/practice/S3.jpg","74","3","practice","72","false","","","",""
"null","","html-keyboard-response","12","38813","0.0-2.0-1.3","33PPO7FECW1GK6ZLEHHJA39O90GDID","A2P76QVLSGJR45","3R5LWXWHR0UE010DORDQUF3E2FPGXE","","<img src=""img/practice/S3.jpg"" width=""540"" height = ""360"">","null","","","","","","","",""
"null","","html-keyboard-response","13","38816","0.0-2.0-2.3","33PPO7FECW1GK6ZLEHHJA39O90GDID","A2P76QVLSGJR45","3R5LWXWHR0UE010DORDQUF3E2FPGXE","","","null","","","","","","","",""
"516.950000077486","","image-keyboard-response","14","39336","0.0-2.0-0.4","33PPO7FECW1GK6ZLEHHJA39O90GDID","A2P76QVLSGJR45","3R5LWXWHR0UE010DORDQUF3E2FPGXE","","img/practice/S4.jpg","74","4","practice","74","true","","","",""
"null","","html-keyboard-response","15","39638","0.0-2.0-1.4","33PPO7FECW1GK6ZLEHHJA39O90GDID","A2P76QVLSGJR45","3R5LWXWHR0UE010DORDQUF3E2FPGXE","","<img src=""img/practice/S4.jpg"" width=""540"" height = ""360"" style=""border:16px solid orange"">","null","","","","","","","",""
"null","","html-keyboard-response","16","39641","0.0-2.0-2.4","33PPO7FECW1GK6ZLEHHJA39O90GDID","A2P76QVLSGJR45","3R5LWXWHR0UE010DORDQUF3E2FPGXE","","","null","","","","","","","",""
"1116.8150000739843","","image-keyboard-response","17","40760","0.0-2.0-0.5","33PPO7FECW1GK6ZLEHHJA39O90GDID","A2P76QVLSGJR45","3R5LWXWHR0UE010DORDQUF3E2FPGXE","","img/practice/S2.jpg","68","2","practice","68","true","","","",""
"null","","html-keyboard-response","18","41061","0.0-2.0-1.5","33PPO7FECW1GK6ZLEHHJA39O90GDID","A2P76QVLSGJR45","3R5LWXWHR0UE010DORDQUF3E2FPGXE","","<img src=""img/practice/S2.jpg"" width=""540"" height = ""360"" style=""border:16px solid orange"">","null","","","","","","","",""
"null","","html-keyboard-response","19","41064","0.0-2.0-2.5","33PPO7FECW1GK6ZLEHHJA39O90GDID","A2P76QVLSGJR45","3R5LWXWHR0UE010DORDQUF3E2FPGXE","","","null","","","","","","","",""
"605.9350001160055","","image-keyboard-response","20","41671","0.0-2.0-0.6","33PPO7FECW1GK6ZLEHHJA39O90GDID","A2P76QVLSGJR45","3R5LWXWHR0UE010DORDQUF3E2FPGXE","","img/practice/S1.jpg","74","1","practice","83","false","","","",""
"null","","html-keyboard-response","21","41973","0.0-2.0-1.6","33PPO7FECW1GK6ZLEHHJA39O90GDID","A2P76QVLSGJR45","3R5LWXWHR0UE010DORDQUF3E2FPGXE","","<img src=""img/practice/S1.jpg"" width=""540"" height = ""360"">","null","","","","","","","",""
"null","","html-keyboard-response","22","41976","0.0-2.0-2.6","33PPO7FECW1GK6ZLEHHJA39O90GDID","A2P76QVLSGJR45","3R5LWXWHR0UE010DORDQUF3E2FPGXE","","","null","","","","","","","",""
"693.4899999760091","","image-keyboard-response","23","42672","0.0-2.0-0.7","33PPO7FECW1GK6ZLEHHJA39O90GDID","A2P76QVLSGJR45","3R5LWXWHR0UE010DORDQUF3E2FPGXE","","img/practice/S3.jpg","74","3","practice","72","false","","","",""
"null","","html-keyboard-response","24","42976","0.0-2.0-1.7","33PPO7FECW1GK6ZLEHHJA39O90GDID","A2P76QVLSGJR45","3R5LWXWHR0UE010DORDQUF3E2FPGXE","","<img src=""img/practice/S3.jpg"" width=""540"" height = ""360"">","null","","","","","","","",""
"null","","html-keyboard-response","25","42979","0.0-2.0-2.7","33PPO7FECW1GK6ZLEHHJA39O90GDID","A2P76QVLSGJR45","3R5LWXWHR0UE010DORDQUF3E2FPGXE","","","null","","","","","","","",""
"531.7800000775605","","image-keyboard-response","26","43512","0.0-2.0-0.8","33PPO7FECW1GK6ZLEHHJA39O90GDID","A2P76QVLSGJR45","3R5LWXWHR0UE010DORDQUF3E2FPGXE","","img/practice/S2.jpg","74","2","practice","68","false","","","",""
"null","","html-keyboard-response","27","43815","0.0-2.0-1.8","33PPO7FECW1GK6ZLEHHJA39O90GDID","A2P76QVLSGJR45","3R5LWXWHR0UE010DORDQUF3E2FPGXE","","<img src=""img/practice/S2.jpg"" width=""540"" height = ""360"">","null","","","","","","","",""
"null","","html-keyboard-response","28","43818","0.0-2.0-2.8","33PPO7FECW1GK6ZLEHHJA39O90GDID","A2P76QVLSGJR45","3R5LWXWHR0UE010DORDQUF3E2FPGXE","","","null","","","","","","","",""
"551.685000071302","","image-keyboard-response","29","44372","0.0-2.0-0.9","33PPO7FECW1GK6ZLEHHJA39O90GDID","A2P76QVLSGJR45","3R5LWXWHR0UE010DORDQUF3E2FPGXE","","img/practice/S3.jpg","74","3","practice","72","false","","","",""
"null","","html-keyboard-response","30","44676","0.0-2.0-1.9","33PPO7FECW1GK6ZLEHHJA39O90GDID","A2P76QVLSGJR45","3R5LWXWHR0UE010DORDQUF3E2FPGXE","","<img src=""img/practice/S3.jpg"" width=""540"" height = ""360"">","null","","","","","","","",""
"null","","html-keyboard-response","31","44678","0.0-2.0-2.9","33PPO7FECW1GK6ZLEHHJA39O90GDID","A2P76QVLSGJR45","3R5LWXWHR0UE010DORDQUF3E2FPGXE","","","null","","","","","","","",""
"919.1249997820705","","image-keyboard-response","32","45599","0.0-2.0-0.10","33PPO7FECW1GK6ZLEHHJA39O90GDID","A2P76QVLSGJR45","3R5LWXWHR0UE010DORDQUF3E2FPGXE","","img/practice/S1.jpg","74","1","practice","83","false","","","",""
"null","","html-keyboard-response","33","45901","0.0-2.0-1.10","33PPO7FECW1GK6ZLEHHJA39O90GDID","A2P76QVLSGJR45","3R5LWXWHR0UE010DORDQUF3E2FPGXE","","<img src=""img/practice/S1.jpg"" width=""540"" height = ""360"">","null","","","","","","","",""
"null","","html-keyboard-response","34","45904","0.0-2.0-2.10","33PPO7FECW1GK6ZLEHHJA39O90GDID","A2P76QVLSGJR45","3R5LWXWHR0UE010DORDQUF3E2FPGXE","","","null","","","","","","","",""
"528.4349999856204","","image-keyboard-response","35","46434","0.0-2.0-0.11","33PPO7FECW1GK6ZLEHHJA39O90GDID","A2P76QVLSGJR45","3R5LWXWHR0UE010DORDQUF3E2FPGXE","","img/practice/S4.jpg","74","4","practice","74","true","","","",""
"null","","html-keyboard-response","36","46737","0.0-2.0-1.11","33PPO7FECW1GK6ZLEHHJA39O90GDID","A2P76QVLSGJR45","3R5LWXWHR0UE010DORDQUF3E2FPGXE","","<img src=""img/practice/S4.jpg"" width=""540"" height = ""360"" style=""border:16px solid orange"">","null","","","","","","","",""
"null","","html-keyboard-response","37","46740","0.0-2.0-2.11","33PPO7FECW1GK6ZLEHHJA39O90GDID","A2P76QVLSGJR45","3R5LWXWHR0UE010DORDQUF3E2FPGXE","","","null","","","","","","","",""
"968.1899999268353","","image-keyboard-response","38","47710","0.0-2.0-0.12","33PPO7FECW1GK6ZLEHHJA39O90GDID","A2P76QVLSGJR45","3R5LWXWHR0UE010DORDQUF3E2FPGXE","","img/practice/S4.jpg","68","4","practice","74","false","","","",""
"null","","html-keyboard-response","39","48012","0.0-2.0-1.12","33PPO7FECW1GK6ZLEHHJA39O90GDID","A2P76QVLSGJR45","3R5LWXWHR0UE010DORDQUF3E2FPGXE","","<img src=""img/practice/S4.jpg"" width=""540"" height = ""360"">","null","","","","","","","",""
"null","","html-keyboard-response","40","48014","0.0-2.0-2.12","33PPO7FECW1GK6ZLEHHJA39O90GDID","A2P76QVLSGJR45","3R5LWXWHR0UE010DORDQUF3E2FPGXE","","","null","","","","","","","",""
"2463.315000059083","","image-keyboard-response","41","50479","0.0-2.0-0.13","33PPO7FECW1GK6ZLEHHJA39O90GDID","A2P76QVLSGJR45","3R5LWXWHR0UE010DORDQUF3E2FPGXE","","img/practice/S2.jpg","83","2","practice","68","false","","","",""
"null","","html-keyboard-response","42","50782","0.0-2.0-1.13","33PPO7FECW1GK6ZLEHHJA39O90GDID","A2P76QVLSGJR45","3R5LWXWHR0UE010DORDQUF3E2FPGXE","","<img src=""img/practice/S2.jpg"" width=""540"" height = ""360"">","null","","","","","","","",""
"null","","html-keyboard-response","43","50785","0.0-2.0-2.13","33PPO7FECW1GK6ZLEHHJA39O90GDID","A2P76QVLSGJR45","3R5LWXWHR0UE010DORDQUF3E2FPGXE","","","null","","","","","","","",""
"null","","image-keyboard-response","44","53289","0.0-2.0-0.14","33PPO7FECW1GK6ZLEHHJA39O90GDID","A2P76QVLSGJR45","3R5LWXWHR0UE010DORDQUF3E2FPGXE","","img/practice/S1.jpg","null","1","practice","83","false","","","",""
"null","","html-keyboard-response","45","53592","0.0-2.0-1.14","33PPO7FECW1GK6ZLEHHJA39O90GDID","A2P76QVLSGJR45","3R5LWXWHR0UE010DORDQUF3E2FPGXE","","<img src=""img/practice/S1.jpg"" width=""540"" height = ""360"">","null","","","","","","","",""
"null","","html-keyboard-response","46","53598","0.0-2.0-2.14","33PPO7FECW1GK6ZLEHHJA39O90GDID","A2P76QVLSGJR45","3R5LWXWHR0UE010DORDQUF3E2FPGXE","","","null","","","","","","","",""
"1319.0000001341105","","image-keyboard-response","47","54918","0.0-2.0-0.15","33PPO7FECW1GK6ZLEHHJA39O90GDID","A2P76QVLSGJR45","3R5LWXWHR0UE010DORDQUF3E2FPGXE","","img/practice/S3.jpg","68","3","practice","72","false","","","",""
"null","","html-keyboard-response","48","55220","0.0-2.0-1.15","33PPO7FECW1GK6ZLEHHJA39O90GDID","A2P76QVLSGJR45","3R5LWXWHR0UE010DORDQUF3E2FPGXE","","<img src=""img/practice/S3.jpg"" width=""540"" height = ""360"">","null","","","","","","","",""
"null","","html-keyboard-response","49","55222","0.0-2.0-2.15","33PPO7FECW1GK6ZLEHHJA39O90GDID","A2P76QVLSGJR45","3R5LWXWHR0UE010DORDQUF3E2FPGXE","","","null","","","","","","","",""
"691.8150000274181","","image-keyboard-response","50","55915","0.0-2.0-0.16","33PPO7FECW1GK6ZLEHHJA39O90GDID","A2P76QVLSGJR45","3R5LWXWHR0UE010DORDQUF3E2FPGXE","","img/practice/S1.jpg","68","1","practice","83","false","","","",""
"null","","html-keyboard-response","51","56217","0.0-2.0-1.16","33PPO7FECW1GK6ZLEHHJA39O90GDID","A2P76QVLSGJR45","3R5LWXWHR0UE010DORDQUF3E2FPGXE","","<img src=""img/practice/S1.jpg"" width=""540"" height = ""360"">","null","","","","","","","",""
"null","","html-keyboard-response","52","56219","0.0-2.0-2.16","33PPO7FECW1GK6ZLEHHJA39O90GDID","A2P76QVLSGJR45","3R5LWXWHR0UE010DORDQUF3E2FPGXE","","","null","","","","","","","",""
"939.4300000276417","","image-keyboard-response","53","57159","0.0-2.0-0.17","33PPO7FECW1GK6ZLEHHJA39O90GDID","A2P76QVLSGJR45","3R5LWXWHR0UE010DORDQUF3E2FPGXE","","img/practice/S4.jpg","83","4","practice","74","false","","","",""
"null","","html-keyboard-response","54","57461","0.0-2.0-1.17","33PPO7FECW1GK6ZLEHHJA39O90GDID","A2P76QVLSGJR45","3R5LWXWHR0UE010DORDQUF3E2FPGXE","","<img src=""img/practice/S4.jpg"" width=""540"" height = ""360"">","null","","","","","","","",""
"null","","html-keyboard-response","55","57464","0.0-2.0-2.17","33PPO7FECW1GK6ZLEHHJA39O90GDID","A2P76QVLSGJR45","3R5LWXWHR0UE010DORDQUF3E2FPGXE","","","null","","","","","","","",""
"765.4850000981241","","image-keyboard-response","56","58231","0.0-2.0-0.18","33PPO7FECW1GK6ZLEHHJA39O90GDID","A2P76QVLSGJR45","3R5LWXWHR0UE010DORDQUF3E2FPGXE","","img/practice/S3.jpg","74","3","practice","72","false","","","",""
"null","","html-keyboard-response","57","58533","0.0-2.0-1.18","33PPO7FECW1GK6ZLEHHJA39O90GDID","A2P76QVLSGJR45","3R5LWXWHR0UE010DORDQUF3E2FPGXE","","<img src=""img/practice/S3.jpg"" width=""540"" height = ""360"">","null","","","","","","","",""
"null","","html-keyboard-response","58","58535","0.0-2.0-2.18","33PPO7FECW1GK6ZLEHHJA39O90GDID","A2P76QVLSGJR45","3R5LWXWHR0UE010DORDQUF3E2FPGXE","","","null","","","","","","","",""
"null","","image-keyboard-response","59","61038","0.0-2.0-0.19","33PPO7FECW1GK6ZLEHHJA39O90GDID","A2P76QVLSGJR45","3R5LWXWHR0UE010DORDQUF3E2FPGXE","","img/practice/S2.jpg","null","2","practice","68","false","","","",""
"null","","html-keyboard-response","60","61340","0.0-2.0-1.19","33PPO7FECW1GK6ZLEHHJA39O90GDID","A2P76QVLSGJR45","3R5LWXWHR0UE010DORDQUF3E2FPGXE","","<img src=""img/practice/S2.jpg"" width=""540"" height = ""360"">","null","","","","","","","",""
"null","","html-keyboard-response","61","61346","0.0-2.0-2.19","33PPO7FECW1GK6ZLEHHJA39O90GDID","A2P76QVLSGJR45","3R5LWXWHR0UE010DORDQUF3E2FPGXE","","","null","","","","","","","",""
"719.6899999398738","","image-keyboard-response","62","62067","0.0-2.0-0.20","33PPO7FECW1GK6ZLEHHJA39O90GDID","A2P76QVLSGJR45","3R5LWXWHR0UE010DORDQUF3E2FPGXE","","img/practice/S4.jpg","74","4","practice","74","true","","","",""
"null","","html-keyboard-response","63","62369","0.0-2.0-1.20","33PPO7FECW1GK6ZLEHHJA39O90GDID","A2P76QVLSGJR45","3R5LWXWHR0UE010DORDQUF3E2FPGXE","","<img src=""img/practice/S4.jpg"" width=""540"" height = ""360"" style=""border:16px solid orange"">","null","","","","","","","",""
"null","","html-keyboard-response","64","62371","0.0-2.0-2.20","33PPO7FECW1GK6ZLEHHJA39O90GDID","A2P76QVLSGJR45","3R5LWXWHR0UE010DORDQUF3E2FPGXE","","","null","","","","","","","",""
"850.4749999847263","","image-keyboard-response","65","63223","0.0-2.0-0.21","33PPO7FECW1GK6ZLEHHJA39O90GDID","A2P76QVLSGJR45","3R5LWXWHR0UE010DORDQUF3E2FPGXE","","img/practice/S1.jpg","72","1","practice","83","false","","","",""
"null","","html-keyboard-response","66","63526","0.0-2.0-1.21","33PPO7FECW1GK6ZLEHHJA39O90GDID","A2P76QVLSGJR45","3R5LWXWHR0UE010DORDQUF3E2FPGXE","","<img src=""img/practice/S1.jpg"" width=""540"" height = ""360"">","null","","","","","","","",""
"null","","html-keyboard-response","67","63529","0.0-2.0-2.21","33PPO7FECW1GK6ZLEHHJA39O90GDID","A2P76QVLSGJR45","3R5LWXWHR0UE010DORDQUF3E2FPGXE","","","null","","","","","","","",""
"1139.4549999386072","","image-keyboard-response","68","64669","0.0-2.0-0.22","33PPO7FECW1GK6ZLEHHJA39O90GDID","A2P76QVLSGJR45","3R5LWXWHR0UE010DORDQUF3E2FPGXE","","img/practice/S2.jpg","68","2","practice","68","true","","","",""
"null","","html-keyboard-response","69","64972","0.0-2.0-1.22","33PPO7FECW1GK6ZLEHHJA39O90GDID","A2P76QVLSGJR45","3R5LWXWHR0UE010DORDQUF3E2FPGXE","","<img src=""img/practice/S2.jpg"" width=""540"" height = ""360"" style=""border:16px solid orange"">","null","","","","","","","",""
"null","","html-keyboard-response","70","64974","0.0-2.0-2.22","33PPO7FECW1GK6ZLEHHJA39O90GDID","A2P76QVLSGJR45","3R5LWXWHR0UE010DORDQUF3E2FPGXE","","","null","","","","","","","",""
"944.9250001925975","","image-keyboard-response","71","65920","0.0-2.0-0.23","33PPO7FECW1GK6ZLEHHJA39O90GDID","A2P76QVLSGJR45","3R5LWXWHR0UE010DORDQUF3E2FPGXE","","img/practice/S3.jpg","72","3","practice","72","true","","","",""
"null","","html-keyboard-response","72","66223","0.0-2.0-1.23","33PPO7FECW1GK6ZLEHHJA39O90GDID","A2P76QVLSGJR45","3R5LWXWHR0UE010DORDQUF3E2FPGXE","","<img src=""img/practice/S3.jpg"" width=""540"" height = ""360"" style=""border:16px solid orange"">","null","","","","","","","",""
"null","","html-keyboard-response","73","66226","0.0-2.0-2.23","33PPO7FECW1GK6ZLEHHJA39O90GDID","A2P76QVLSGJR45","3R5LWXWHR0UE010DORDQUF3E2FPGXE","","","null","","","","","","","",""
"2767.7899999544024","","instructions","74","68995","0.0-3.0","33PPO7FECW1GK6ZLEHHJA39O90GDID","A2P76QVLSGJR45","3R5LWXWHR0UE010DORDQUF3E2FPGXE","[{""page_index"":0,""viewing_time"":2767.574999947101}]","","","","","","","","","",""
"3236.249999841675","","instructions","75","72232","0.0-4.0","33PPO7FECW1GK6ZLEHHJA39O90GDID","A2P76QVLSGJR45","3R5LWXWHR0UE010DORDQUF3E2FPGXE","[{""page_index"":0,""viewing_time"":3235.904999775812}]","","","","","","","","","",""
"3356.7150000017136","","instructions","76","75589","0.0-5.0","33PPO7FECW1GK6ZLEHHJA39O90GDID","A2P76QVLSGJR45","3R5LWXWHR0UE010DORDQUF3E2FPGXE","[{""page_index"":0,""viewing_time"":3356.5199999138713}]","","","","","","","","","",""
"1406.7550001200289","","image-keyboard-response","77","76998","0.0-6.0","33PPO7FECW1GK6ZLEHHJA39O90GDID","A2P76QVLSGJR45","3R5LWXWHR0UE010DORDQUF3E2FPGXE","","img/set1/S2.jpg","72","2","random","68","false","random,structured_incentive,structured_normal","1,2,2,3","",""
"null","","html-keyboard-response","78","77353","0.0-7.0","33PPO7FECW1GK6ZLEHHJA39O90GDID","A2P76QVLSGJR45","3R5LWXWHR0UE010DORDQUF3E2FPGXE","","<img src=""img/set1/S2.jpg"" width=""540"" height = ""360"">","null","","","","","","","",""
"null","","html-keyboard-response","79","77355","0.0-8.0","33PPO7FECW1GK6ZLEHHJA39O90GDID","A2P76QVLSGJR45","3R5LWXWHR0UE010DORDQUF3E2FPGXE","","","null","","","","","","","",""
"762.1300001628697","","image-keyboard-response","80","78119","0.0-9.0","33PPO7FECW1GK6ZLEHHJA39O90GDID","A2P76QVLSGJR45","3R5LWXWHR0UE010DORDQUF3E2FPGXE","","img/set1/S3.jpg","74","3","random","72","false","random,structured_incentive,structured_normal","1,2,2,3","",""
"null","","html-keyboard-response","81","78472","0.0-10.0","33PPO7FECW1GK6ZLEHHJA39O90GDID","A2P76QVLSGJR45","3R5LWXWHR0UE010DORDQUF3E2FPGXE","","<img src=""img/set1/S3.jpg"" width=""540"" height = ""360"">","null","","","","","","","",""
"null","","html-keyboard-response","82","78474","0.0-11.0","33PPO7FECW1GK6ZLEHHJA39O90GDID","A2P76QVLSGJR45","3R5LWXWHR0UE010DORDQUF3E2FPGXE","","","null","","","","","","","",""
"636.7599999066442","","image-keyboard-response","83","79113","0.0-12.0","33PPO7FECW1GK6ZLEHHJA39O90GDID","A2P76QVLSGJR45","3R5LWXWHR0UE010DORDQUF3E2FPGXE","","img/set1/S3.jpg","74","3","random","72","false","random,structured_incentive,structured_normal","1,2,2,3","",""
"null","","html-keyboard-response","84","79467","0.0-13.0","33PPO7FECW1GK6ZLEHHJA39O90GDID","A2P76QVLSGJR45","3R5LWXWHR0UE010DORDQUF3E2FPGXE","","<img src=""img/set1/S3.jpg"" width=""540"" height = ""360"">","null","","","","","","","",""
"null","","html-keyboard-response","85","79470","0.0-14.0","33PPO7FECW1GK6ZLEHHJA39O90GDID","A2P76QVLSGJR45","3R5LWXWHR0UE010DORDQUF3E2FPGXE","","","null","","","","","","","",""
"490.7550001516938","","image-keyboard-response","86","79963","0.0-15.0","33PPO7FECW1GK6ZLEHHJA39O90GDID","A2P76QVLSGJR45","3R5LWXWHR0UE010DORDQUF3E2FPGXE","","img/set1/S4.jpg","68","4","random","74","false","random,structured_incentive,structured_normal","1,2,2,3","",""
"null","","html-keyboard-response","87","80316","0.0-16.0","33PPO7FECW1GK6ZLEHHJA39O90GDID","A2P76QVLSGJR45","3R5LWXWHR0UE010DORDQUF3E2FPGXE","","<img src=""img/set1/S4.jpg"" width=""540"" height = ""360"">","null","","","","","","","",""
"null","","html-keyboard-response","88","80318","0.0-17.0","33PPO7FECW1GK6ZLEHHJA39O90GDID","A2P76QVLSGJR45","3R5LWXWHR0UE010DORDQUF3E2FPGXE","","","null","","","","","","","",""
"688.2700000423938","","image-keyboard-response","89","81008","0.0-18.0","33PPO7FECW1GK6ZLEHHJA39O90GDID","A2P76QVLSGJR45","3R5LWXWHR0UE010DORDQUF3E2FPGXE","","img/set1/S3.jpg","83","3","random","72","false","random,structured_incentive,structured_normal","1,2,2,3","",""
"null","","html-keyboard-response","90","81361","0.0-19.0","33PPO7FECW1GK6ZLEHHJA39O90GDID","A2P76QVLSGJR45","3R5LWXWHR0UE010DORDQUF3E2FPGXE","","<img src=""img/set1/S3.jpg"" width=""540"" height = ""360"">","null","","","","","","","",""
"null","","html-keyboard-response","91","81363","0.0-20.0","33PPO7FECW1GK6ZLEHHJA39O90GDID","A2P76QVLSGJR45","3R5LWXWHR0UE010DORDQUF3E2FPGXE","","","null","","","","","","","",""
"632.6500000432134","","image-keyboard-response","92","81998","0.0-21.0","33PPO7FECW1GK6ZLEHHJA39O90GDID","A2P76QVLSGJR45","3R5LWXWHR0UE010DORDQUF3E2FPGXE","","img/set1/S4.jpg","68","4","random","74","false","random,structured_incentive,structured_normal","1,2,2,3","",""
"null","","html-keyboard-response","93","82352","0.0-22.0","33PPO7FECW1GK6ZLEHHJA39O90GDID","A2P76QVLSGJR45","3R5LWXWHR0UE010DORDQUF3E2FPGXE","","<img src=""img/set1/S4.jpg"" width=""540"" height = ""360"">","null","","","","","","","",""
"null","","html-keyboard-response","94","82355","0.0-23.0","33PPO7FECW1GK6ZLEHHJA39O90GDID","A2P76QVLSGJR45","3R5LWXWHR0UE010DORDQUF3E2FPGXE","","","null","","","","","","","",""
"557.0050000678748","","image-keyboard-response","95","82913","0.0-24.0","33PPO7FECW1GK6ZLEHHJA39O90GDID","A2P76QVLSGJR45","3R5LWXWHR0UE010DORDQUF3E2FPGXE","","img/set1/S4.jpg","68","4","random","74","false","random,structured_incentive,structured_normal","1,2,2,3","",""
"null","","html-keyboard-response","96","83265","0.0-25.0","33PPO7FECW1GK6ZLEHHJA39O90GDID","A2P76QVLSGJR45","3R5LWXWHR0UE010DORDQUF3E2FPGXE","","<img src=""img/set1/S4.jpg"" width=""540"" height = ""360"">","null","","","","","","","",""
"null","","html-keyboard-response","97","83268","0.0-26.0","33PPO7FECW1GK6ZLEHHJA39O90GDID","A2P76QVLSGJR45","3R5LWXWHR0UE010DORDQUF3E2FPGXE","","","null","","","","","","","",""
"778.4150000661612","","image-keyboard-response","98","84047","0.0-27.0","33PPO7FECW1GK6ZLEHHJA39O90GDID","A2P76QVLSGJR45","3R5LWXWHR0UE010DORDQUF3E2FPGXE","","img/set1/S3.jpg","72","3","random","72","true","random,structured_incentive,structured_normal","1,2,2,3","",""
"null","","html-keyboard-response","99","84400","0.0-28.0","33PPO7FECW1GK6ZLEHHJA39O90GDID","A2P76QVLSGJR45","3R5LWXWHR0UE010DORDQUF3E2FPGXE","","<img src=""img/set1/S3.jpg"" width=""540"" height = ""360"" style=""border:16px solid orange"">","null","","","","","","","",""
"null","","html-keyboard-response","100","84403","0.0-29.0","33PPO7FECW1GK6ZLEHHJA39O90GDID","A2P76QVLSGJR45","3R5LWXWHR0UE010DORDQUF3E2FPGXE","","","null","","","","","","","",""
"562.4849998857826","","image-keyboard-response","101","84967","0.0-30.0","33PPO7FECW1GK6ZLEHHJA39O90GDID","A2P76QVLSGJR45","3R5LWXWHR0UE010DORDQUF3E2FPGXE","","img/set1/S3.jpg","72","3","random","72","true","random,structured_incentive,structured_normal","1,2,2,3","",""
"null","","html-keyboard-response","102","85321","0.0-31.0","33PPO7FECW1GK6ZLEHHJA39O90GDID","A2P76QVLSGJR45","3R5LWXWHR0UE010DORDQUF3E2FPGXE","","<img src=""img/set1/S3.jpg"" width=""540"" height = ""360"" style=""border:16px solid orange"">","null","","","","","","","",""
"null","","html-keyboard-response","103","85324","0.0-32.0","33PPO7FECW1GK6ZLEHHJA39O90GDID","A2P76QVLSGJR45","3R5LWXWHR0UE010DORDQUF3E2FPGXE","","","null","","","","","","","",""
"501.810000045225","","image-keyboard-response","104","85827","0.0-33.0","33PPO7FECW1GK6ZLEHHJA39O90GDID","A2P76QVLSGJR45","3R5LWXWHR0UE010DORDQUF3E2FPGXE","","img/set1/S3.jpg","72","3","random","72","true","random,structured_incentive,structured_normal","1,2,2,3","",""
"null","","html-keyboard-response","105","86179","0.0-34.0","33PPO7FECW1GK6ZLEHHJA39O90GDID","A2P76QVLSGJR45","3R5LWXWHR0UE010DORDQUF3E2FPGXE","","<img src=""img/set1/S3.jpg"" width=""540"" height = ""360"" style=""border:16px solid orange"">","null","","","","","","","",""
"null","","html-keyboard-response","106","86181","0.0-35.0","33PPO7FECW1GK6ZLEHHJA39O90GDID","A2P76QVLSGJR45","3R5LWXWHR0UE010DORDQUF3E2FPGXE","","","null","","","","","","","",""
"663.0049999803305","","image-keyboard-response","107","86846","0.0-36.0","33PPO7FECW1GK6ZLEHHJA39O90GDID","A2P76QVLSGJR45","3R5LWXWHR0UE010DORDQUF3E2FPGXE","","img/set1/S4.jpg","74","4","random","74","true","random,structured_incentive,structured_normal","1,2,2,3","",""
"null","","html-keyboard-response","108","87199","0.0-37.0","33PPO7FECW1GK6ZLEHHJA39O90GDID","A2P76QVLSGJR45","3R5LWXWHR0UE010DORDQUF3E2FPGXE","","<img src=""img/set1/S4.jpg"" width=""540"" height = ""360"" style=""border:16px solid orange"">","null","","","","","","","",""
"null","","html-keyboard-response","109","87200","0.0-38.0","33PPO7FECW1GK6ZLEHHJA39O90GDID","A2P76QVLSGJR45","3R5LWXWHR0UE010DORDQUF3E2FPGXE","","","null","","","","","","","",""
"945.3399998601526","","image-keyboard-response","110","88147","0.0-39.0","33PPO7FECW1GK6ZLEHHJA39O90GDID","A2P76QVLSGJR45","3R5LWXWHR0UE010DORDQUF3E2FPGXE","","img/set1/S1.jpg","83","1","random","83","true","random,structured_incentive,structured_normal","1,2,2,3","",""
"null","","html-keyboard-response","111","88498","0.0-40.0","33PPO7FECW1GK6ZLEHHJA39O90GDID","A2P76QVLSGJR45","3R5LWXWHR0UE010DORDQUF3E2FPGXE","","<img src=""img/set1/S1.jpg"" width=""540"" height = ""360"" style=""border:16px solid orange"">","null","","","","","","","",""
"null","","html-keyboard-response","112","88501","0.0-41.0","33PPO7FECW1GK6ZLEHHJA39O90GDID","A2P76QVLSGJR45","3R5LWXWHR0UE010DORDQUF3E2FPGXE","","","null","","","","","","","",""
"765.8750000409782","","image-keyboard-response","113","89269","0.0-42.0","33PPO7FECW1GK6ZLEHHJA39O90GDID","A2P76QVLSGJR45","3R5LWXWHR0UE010DORDQUF3E2FPGXE","","img/set1/S3.jpg","72","3","random","72","true","random,structured_incentive,structured_normal","1,2,2,3","",""
"null","","html-keyboard-response","114","89623","0.0-43.0","33PPO7FECW1GK6ZLEHHJA39O90GDID","A2P76QVLSGJR45","3R5LWXWHR0UE010DORDQUF3E2FPGXE","","<img src=""img/set1/S3.jpg"" width=""540"" height = ""360"" style=""border:16px solid orange"">","null","","","","","","","",""
"null","","html-keyboard-response","115","89626","0.0-44.0","33PPO7FECW1GK6ZLEHHJA39O90GDID","A2P76QVLSGJR45","3R5LWXWHR0UE010DORDQUF3E2FPGXE","","","null","","","","","","","",""
"616.5499999187887","","image-keyboard-response","116","90243","0.0-45.0","33PPO7FECW1GK6ZLEHHJA39O90GDID","A2P76QVLSGJR45","3R5LWXWHR0UE010DORDQUF3E2FPGXE","","img/set1/S3.jpg","72","3","random","72","true","random,structured_incentive,structured_normal","1,2,2,3","",""
"null","","html-keyboard-response","117","90597","0.0-46.0","33PPO7FECW1GK6ZLEHHJA39O90GDID","A2P76QVLSGJR45","3R5LWXWHR0UE010DORDQUF3E2FPGXE","","<img src=""img/set1/S3.jpg"" width=""540"" height = ""360"" style=""border:16px solid orange"">","null","","","","","","","",""
"null","","html-keyboard-response","118","90600","0.0-47.0","33PPO7FECW1GK6ZLEHHJA39O90GDID","A2P76QVLSGJR45","3R5LWXWHR0UE010DORDQUF3E2FPGXE","","","null","","","","","","","",""
"500.6149997934699","","image-keyboard-response","119","91102","0.0-48.0","33PPO7FECW1GK6ZLEHHJA39O90GDID","A2P76QVLSGJR45","3R5LWXWHR0UE010DORDQUF3E2FPGXE","","img/set1/S4.jpg","74","4","random","74","true","random,structured_incentive,structured_normal","1,2,2,3","",""
"null","","html-keyboard-response","120","91456","0.0-49.0","33PPO7FECW1GK6ZLEHHJA39O90GDID","A2P76QVLSGJR45","3R5LWXWHR0UE010DORDQUF3E2FPGXE","","<img src=""img/set1/S4.jpg"" width=""540"" height = ""360"" style=""border:16px solid orange"">","null","","","","","","","",""
"null","","html-keyboard-response","121","91458","0.0-50.0","33PPO7FECW1GK6ZLEHHJA39O90GDID","A2P76QVLSGJR45","3R5LWXWHR0UE010DORDQUF3E2FPGXE","","","null","","","","","","","",""
"626.3600001111627","","image-keyboard-response","122","92086","0.0-51.0","33PPO7FECW1GK6ZLEHHJA39O90GDID","A2P76QVLSGJR45","3R5LWXWHR0UE010DORDQUF3E2FPGXE","","img/set1/S2.jpg","83","2","random","68","false","random,structured_incentive,structured_normal","1,2,2,3","",""
"null","","html-keyboard-response","123","92438","0.0-52.0","33PPO7FECW1GK6ZLEHHJA39O90GDID","A2P76QVLSGJR45","3R5LWXWHR0UE010DORDQUF3E2FPGXE","","<img src=""img/set1/S2.jpg"" width=""540"" height = ""360"">","null","","","","","","","",""
"null","","html-keyboard-response","124","92441","0.0-53.0","33PPO7FECW1GK6ZLEHHJA39O90GDID","A2P76QVLSGJR45","3R5LWXWHR0UE010DORDQUF3E2FPGXE","","","null","","","","","","","",""
"626.82000012137","","image-keyboard-response","125","93069","0.0-54.0","33PPO7FECW1GK6ZLEHHJA39O90GDID","A2P76QVLSGJR45","3R5LWXWHR0UE010DORDQUF3E2FPGXE","","img/set1/S3.jpg","72","3","random","72","true","random,structured_incentive,structured_normal","1,2,2,3","",""
"null","","html-keyboard-response","126","93422","0.0-55.0","33PPO7FECW1GK6ZLEHHJA39O90GDID","A2P76QVLSGJR45","3R5LWXWHR0UE010DORDQUF3E2FPGXE","","<img src=""img/set1/S3.jpg"" width=""540"" height = ""360"" style=""border:16px solid orange"">","null","","","","","","","",""
"null","","html-keyboard-response","127","93426","0.0-56.0","33PPO7FECW1GK6ZLEHHJA39O90GDID","A2P76QVLSGJR45","3R5LWXWHR0UE010DORDQUF3E2FPGXE","","","null","","","","","","","",""
"635.234999936074","","image-keyboard-response","128","94062","0.0-57.0","33PPO7FECW1GK6ZLEHHJA39O90GDID","A2P76QVLSGJR45","3R5LWXWHR0UE010DORDQUF3E2FPGXE","","img/set1/S4.jpg","74","4","random","74","true","random,structured_incentive,structured_normal","1,2,2,3","",""
"null","","html-keyboard-response","129","94416","0.0-58.0","33PPO7FECW1GK6ZLEHHJA39O90GDID","A2P76QVLSGJR45","3R5LWXWHR0UE010DORDQUF3E2FPGXE","","<img src=""img/set1/S4.jpg"" width=""540"" height = ""360"" style=""border:16px solid orange"">","null","","","","","","","",""
"null","","html-keyboard-response","130","94418","0.0-59.0","33PPO7FECW1GK6ZLEHHJA39O90GDID","A2P76QVLSGJR45","3R5LWXWHR0UE010DORDQUF3E2FPGXE","","","null","","","","","","","",""
"540.2649999596179","","image-keyboard-response","131","94960","0.0-60.0","33PPO7FECW1GK6ZLEHHJA39O90GDID","A2P76QVLSGJR45","3R5LWXWHR0UE010DORDQUF3E2FPGXE","","img/set1/S3.jpg","72","3","random","72","true","random,structured_incentive,structured_normal","1,2,2,3","",""
"null","","html-keyboard-response","132","95313","0.0-61.0","33PPO7FECW1GK6ZLEHHJA39O90GDID","A2P76QVLSGJR45","3R5LWXWHR0UE010DORDQUF3E2FPGXE","","<img src=""img/set1/S3.jpg"" width=""540"" height = ""360"" style=""border:16px solid orange"">","null","","","","","","","",""
"null","","html-keyboard-response","133","95316","0.0-62.0","33PPO7FECW1GK6ZLEHHJA39O90GDID","A2P76QVLSGJR45","3R5LWXWHR0UE010DORDQUF3E2FPGXE","","","null","","","","","","","",""
"684.8849998787045","","image-keyboard-response","134","96003","0.0-63.0","33PPO7FECW1GK6ZLEHHJA39O90GDID","A2P76QVLSGJR45","3R5LWXWHR0UE010DORDQUF3E2FPGXE","","img/set1/S2.jpg","68","2","random","68","true","random,structured_incentive,structured_normal","1,2,2,3","",""
"null","","html-keyboard-response","135","96357","0.0-64.0","33PPO7FECW1GK6ZLEHHJA39O90GDID","A2P76QVLSGJR45","3R5LWXWHR0UE010DORDQUF3E2FPGXE","","<img src=""img/set1/S2.jpg"" width=""540"" height = ""360"" style=""border:16px solid orange"">","null","","","","","","","",""
"null","","html-keyboard-response","136","96360","0.0-65.0","33PPO7FECW1GK6ZLEHHJA39O90GDID","A2P76QVLSGJR45","3R5LWXWHR0UE010DORDQUF3E2FPGXE","","","null","","","","","","","",""
"911.3800001796335","","image-keyboard-response","137","97272","0.0-66.0","33PPO7FECW1GK6ZLEHHJA39O90GDID","A2P76QVLSGJR45","3R5LWXWHR0UE010DORDQUF3E2FPGXE","","img/set1/S4.jpg","72","4","random","74","false","random,structured_incentive,structured_normal","1,2,2,3","",""
"null","","html-keyboard-response","138","97625","0.0-67.0","33PPO7FECW1GK6ZLEHHJA39O90GDID","A2P76QVLSGJR45","3R5LWXWHR0UE010DORDQUF3E2FPGXE","","<img src=""img/set1/S4.jpg"" width=""540"" height = ""360"">","null","","","","","","","",""
"null","","html-keyboard-response","139","97629","0.0-68.0","33PPO7FECW1GK6ZLEHHJA39O90GDID","A2P76QVLSGJR45","3R5LWXWHR0UE010DORDQUF3E2FPGXE","","","null","","","","","","","",""
"872.8850001934916","","image-keyboard-response","140","98503","0.0-69.0","33PPO7FECW1GK6ZLEHHJA39O90GDID","A2P76QVLSGJR45","3R5LWXWHR0UE010DORDQUF3E2FPGXE","","img/set1/S2.jpg","68","2","random","68","true","random,structured_incentive,structured_normal","1,2,2,3","",""
"null","","html-keyboard-response","141","98856","0.0-70.0","33PPO7FECW1GK6ZLEHHJA39O90GDID","A2P76QVLSGJR45","3R5LWXWHR0UE010DORDQUF3E2FPGXE","","<img src=""img/set1/S2.jpg"" width=""540"" height = ""360"" style=""border:16px solid orange"">","null","","","","","","","",""
"null","","html-keyboard-response","142","98858","0.0-71.0","33PPO7FECW1GK6ZLEHHJA39O90GDID","A2P76QVLSGJR45","3R5LWXWHR0UE010DORDQUF3E2FPGXE","","","null","","","","","","","",""
"693.5300000477582","","image-keyboard-response","143","99554","0.0-72.0","33PPO7FECW1GK6ZLEHHJA39O90GDID","A2P76QVLSGJR45","3R5LWXWHR0UE010DORDQUF3E2FPGXE","","img/set1/S1.jpg","83","1","random","83","true","random,structured_incentive,structured_normal","1,2,2,3","",""
"null","","html-keyboard-response","144","99909","0.0-73.0","33PPO7FECW1GK6ZLEHHJA39O90GDID","A2P76QVLSGJR45","3R5LWXWHR0UE010DORDQUF3E2FPGXE","","<img src=""img/set1/S1.jpg"" width=""540"" height = ""360"" style=""border:16px solid orange"">","null","","","","","","","",""
"null","","html-keyboard-response","145","99913","0.0-74.0","33PPO7FECW1GK6ZLEHHJA39O90GDID","A2P76QVLSGJR45","3R5LWXWHR0UE010DORDQUF3E2FPGXE","","","null","","","","","","","",""
"752.6550001930445","","image-keyboard-response","146","100667","0.0-75.0","33PPO7FECW1GK6ZLEHHJA39O90GDID","A2P76QVLSGJR45","3R5LWXWHR0UE010DORDQUF3E2FPGXE","","img/set1/S3.jpg","72","3","random","72","true","random,structured_incentive,structured_normal","1,2,2,3","",""
"null","","html-keyboard-response","147","101020","0.0-76.0","33PPO7FECW1GK6ZLEHHJA39O90GDID","A2P76QVLSGJR45","3R5LWXWHR0UE010DORDQUF3E2FPGXE","","<img src=""img/set1/S3.jpg"" width=""540"" height = ""360"" style=""border:16px solid orange"">","null","","","","","","","",""
"null","","html-keyboard-response","148","101023","0.0-77.0","33PPO7FECW1GK6ZLEHHJA39O90GDID","A2P76QVLSGJR45","3R5LWXWHR0UE010DORDQUF3E2FPGXE","","","null","","","","","","","",""
"786.9149998296052","","image-keyboard-response","149","101812","0.0-78.0","33PPO7FECW1GK6ZLEHHJA39O90GDID","A2P76QVLSGJR45","3R5LWXWHR0UE010DORDQUF3E2FPGXE","","img/set1/S2.jpg","83","2","random","68","false","random,structured_incentive,structured_normal","1,2,2,3","",""
"null","","html-keyboard-response","150","102165","0.0-79.0","33PPO7FECW1GK6ZLEHHJA39O90GDID","A2P76QVLSGJR45","3R5LWXWHR0UE010DORDQUF3E2FPGXE","","<img src=""img/set1/S2.jpg"" width=""540"" height = ""360"">","null","","","","","","","",""
"null","","html-keyboard-response","151","102168","0.0-80.0","33PPO7FECW1GK6ZLEHHJA39O90GDID","A2P76QVLSGJR45","3R5LWXWHR0UE010DORDQUF3E2FPGXE","","","null","","","","","","","",""
"740.6199998222291","","image-keyboard-response","152","102910","0.0-81.0","33PPO7FECW1GK6ZLEHHJA39O90GDID","A2P76QVLSGJR45","3R5LWXWHR0UE010DORDQUF3E2FPGXE","","img/set1/S4.jpg","72","4","random","74","false","random,structured_incentive,structured_normal","1,2,2,3","",""
"null","","html-keyboard-response","153","103265","0.0-82.0","33PPO7FECW1GK6ZLEHHJA39O90GDID","A2P76QVLSGJR45","3R5LWXWHR0UE010DORDQUF3E2FPGXE","","<img src=""img/set1/S4.jpg"" width=""540"" height = ""360"">","null","","","","","","","",""
"null","","html-keyboard-response","154","103268","0.0-83.0","33PPO7FECW1GK6ZLEHHJA39O90GDID","A2P76QVLSGJR45","3R5LWXWHR0UE010DORDQUF3E2FPGXE","","","null","","","","","","","",""
"651.0199999902397","","image-keyboard-response","155","103920","0.0-84.0","33PPO7FECW1GK6ZLEHHJA39O90GDID","A2P76QVLSGJR45","3R5LWXWHR0UE010DORDQUF3E2FPGXE","","img/set1/S3.jpg","72","3","random","72","true","random,structured_incentive,structured_normal","1,2,2,3","",""
"null","","html-keyboard-response","156","104274","0.0-85.0","33PPO7FECW1GK6ZLEHHJA39O90GDID","A2P76QVLSGJR45","3R5LWXWHR0UE010DORDQUF3E2FPGXE","","<img src=""img/set1/S3.jpg"" width=""540"" height = ""360"" style=""border:16px solid orange"">","null","","","","","","","",""
"null","","html-keyboard-response","157","104276","0.0-86.0","33PPO7FECW1GK6ZLEHHJA39O90GDID","A2P76QVLSGJR45","3R5LWXWHR0UE010DORDQUF3E2FPGXE","","","null","","","","","","","",""
"628.8499999791384","","image-keyboard-response","158","104906","0.0-87.0","33PPO7FECW1GK6ZLEHHJA39O90GDID","A2P76QVLSGJR45","3R5LWXWHR0UE010DORDQUF3E2FPGXE","","img/set1/S1.jpg","68","1","random","83","false","random,structured_incentive,structured_normal","1,2,2,3","",""
"null","","html-keyboard-response","159","105259","0.0-88.0","33PPO7FECW1GK6ZLEHHJA39O90GDID","A2P76QVLSGJR45","3R5LWXWHR0UE010DORDQUF3E2FPGXE","","<img src=""img/set1/S1.jpg"" width=""540"" height = ""360"">","null","","","","","","","",""
"null","","html-keyboard-response","160","105261","0.0-89.0","33PPO7FECW1GK6ZLEHHJA39O90GDID","A2P76QVLSGJR45","3R5LWXWHR0UE010DORDQUF3E2FPGXE","","","null","","","","","","","",""
"533.545000012964","","image-keyboard-response","161","105796","0.0-90.0","33PPO7FECW1GK6ZLEHHJA39O90GDID","A2P76QVLSGJR45","3R5LWXWHR0UE010DORDQUF3E2FPGXE","","img/set1/S1.jpg","83","1","random","83","true","random,structured_incentive,structured_normal","1,2,2,3","",""
"null","","html-keyboard-response","162","106148","0.0-91.0","33PPO7FECW1GK6ZLEHHJA39O90GDID","A2P76QVLSGJR45","3R5LWXWHR0UE010DORDQUF3E2FPGXE","","<img src=""img/set1/S1.jpg"" width=""540"" height = ""360"" style=""border:16px solid orange"">","null","","","","","","","",""
"null","","html-keyboard-response","163","106150","0.0-92.0","33PPO7FECW1GK6ZLEHHJA39O90GDID","A2P76QVLSGJR45","3R5LWXWHR0UE010DORDQUF3E2FPGXE","","","null","","","","","","","",""
"810.5750000104308","","image-keyboard-response","164","106963","0.0-93.0","33PPO7FECW1GK6ZLEHHJA39O90GDID","A2P76QVLSGJR45","3R5LWXWHR0UE010DORDQUF3E2FPGXE","","img/set1/S4.jpg","72","4","random","74","false","random,structured_incentive,structured_normal","1,2,2,3","",""
"null","","html-keyboard-response","165","107316","0.0-94.0","33PPO7FECW1GK6ZLEHHJA39O90GDID","A2P76QVLSGJR45","3R5LWXWHR0UE010DORDQUF3E2FPGXE","","<img src=""img/set1/S4.jpg"" width=""540"" height = ""360"">","null","","","","","","","",""
"null","","html-keyboard-response","166","107319","0.0-95.0","33PPO7FECW1GK6ZLEHHJA39O90GDID","A2P76QVLSGJR45","3R5LWXWHR0UE010DORDQUF3E2FPGXE","","","null","","","","","","","",""
"394.79000004939735","","image-keyboard-response","167","107715","0.0-96.0","33PPO7FECW1GK6ZLEHHJA39O90GDID","A2P76QVLSGJR45","3R5LWXWHR0UE010DORDQUF3E2FPGXE","","img/set1/S4.jpg","74","4","random","74","true","random,structured_incentive,structured_normal","1,2,2,3","",""
"null","","html-keyboard-response","168","108067","0.0-97.0","33PPO7FECW1GK6ZLEHHJA39O90GDID","A2P76QVLSGJR45","3R5LWXWHR0UE010DORDQUF3E2FPGXE","","<img src=""img/set1/S4.jpg"" width=""540"" height = ""360"" style=""border:16px solid orange"">","null","","","","","","","",""
"null","","html-keyboard-response","169","108069","0.0-98.0","33PPO7FECW1GK6ZLEHHJA39O90GDID","A2P76QVLSGJR45","3R5LWXWHR0UE010DORDQUF3E2FPGXE","","","null","","","","","","","",""
"438.80999996326864","","image-keyboard-response","170","108510","0.0-99.0","33PPO7FECW1GK6ZLEHHJA39O90GDID","A2P76QVLSGJR45","3R5LWXWHR0UE010DORDQUF3E2FPGXE","","img/set1/S4.jpg","74","4","random","74","true","random,structured_incentive,structured_normal","1,2,2,3","",""
"null","","html-keyboard-response","171","108863","0.0-100.0","33PPO7FECW1GK6ZLEHHJA39O90GDID","A2P76QVLSGJR45","3R5LWXWHR0UE010DORDQUF3E2FPGXE","","<img src=""img/set1/S4.jpg"" width=""540"" height = ""360"" style=""border:16px solid orange"">","null","","","","","","","",""
"null","","html-keyboard-response","172","108866","0.0-101.0","33PPO7FECW1GK6ZLEHHJA39O90GDID","A2P76QVLSGJR45","3R5LWXWHR0UE010DORDQUF3E2FPGXE","","","null","","","","","","","",""
"870.2899999916553","","image-keyboard-response","173","109737","0.0-102.0","33PPO7FECW1GK6ZLEHHJA39O90GDID","A2P76QVLSGJR45","3R5LWXWHR0UE010DORDQUF3E2FPGXE","","img/set1/S1.jpg","68","1","random","83","false","random,structured_incentive,structured_normal","1,2,2,3","",""
"null","","html-keyboard-response","174","110090","0.0-103.0","33PPO7FECW1GK6ZLEHHJA39O90GDID","A2P76QVLSGJR45","3R5LWXWHR0UE010DORDQUF3E2FPGXE","","<img src=""img/set1/S1.jpg"" width=""540"" height = ""360"">","null","","","","","","","",""
"null","","html-keyboard-response","175","110092","0.0-104.0","33PPO7FECW1GK6ZLEHHJA39O90GDID","A2P76QVLSGJR45","3R5LWXWHR0UE010DORDQUF3E2FPGXE","","","null","","","","","","","",""
"394.41499998793006","","image-keyboard-response","176","110488","0.0-105.0","33PPO7FECW1GK6ZLEHHJA39O90GDID","A2P76QVLSGJR45","3R5LWXWHR0UE010DORDQUF3E2FPGXE","","img/set1/S1.jpg","83","1","random","83","true","random,structured_incentive,structured_normal","1,2,2,3","",""
"null","","html-keyboard-response","177","110842","0.0-106.0","33PPO7FECW1GK6ZLEHHJA39O90GDID","A2P76QVLSGJR45","3R5LWXWHR0UE010DORDQUF3E2FPGXE","","<img src=""img/set1/S1.jpg"" width=""540"" height = ""360"" style=""border:16px solid orange"">","null","","","","","","","",""
"null","","html-keyboard-response","178","110845","0.0-107.0","33PPO7FECW1GK6ZLEHHJA39O90GDID","A2P76QVLSGJR45","3R5LWXWHR0UE010DORDQUF3E2FPGXE","","","null","","","","","","","",""
"892.3550001345575","","image-keyboard-response","179","111738","0.0-108.0","33PPO7FECW1GK6ZLEHHJA39O90GDID","A2P76QVLSGJR45","3R5LWXWHR0UE010DORDQUF3E2FPGXE","","img/set1/S3.jpg","72","3","random","72","true","random,structured_incentive,structured_normal","1,2,2,3","",""
"null","","html-keyboard-response","180","112090","0.0-109.0","33PPO7FECW1GK6ZLEHHJA39O90GDID","A2P76QVLSGJR45","3R5LWXWHR0UE010DORDQUF3E2FPGXE","","<img src=""img/set1/S3.jpg"" width=""540"" height = ""360"" style=""border:16px solid orange"">","null","","","","","","","",""
"null","","html-keyboard-response","181","112093","0.0-110.0","33PPO7FECW1GK6ZLEHHJA39O90GDID","A2P76QVLSGJR45","3R5LWXWHR0UE010DORDQUF3E2FPGXE","","","null","","","","","","","",""
"635.9099999535829","","image-keyboard-response","182","112731","0.0-111.0","33PPO7FECW1GK6ZLEHHJA39O90GDID","A2P76QVLSGJR45","3R5LWXWHR0UE010DORDQUF3E2FPGXE","","img/set1/S1.jpg","83","1","random","83","true","random,structured_incentive,structured_normal","1,2,2,3","",""
"null","","html-keyboard-response","183","113083","0.0-112.0","33PPO7FECW1GK6ZLEHHJA39O90GDID","A2P76QVLSGJR45","3R5LWXWHR0UE010DORDQUF3E2FPGXE","","<img src=""img/set1/S1.jpg"" width=""540"" height = ""360"" style=""border:16px solid orange"">","null","","","","","","","",""
"null","","html-keyboard-response","184","113086","0.0-113.0","33PPO7FECW1GK6ZLEHHJA39O90GDID","A2P76QVLSGJR45","3R5LWXWHR0UE010DORDQUF3E2FPGXE","","","null","","","","","","","",""
"480.96000007353723","","image-keyboard-response","185","113568","0.0-114.0","33PPO7FECW1GK6ZLEHHJA39O90GDID","A2P76QVLSGJR45","3R5LWXWHR0UE010DORDQUF3E2FPGXE","","img/set1/S1.jpg","83","1","random","83","true","random,structured_incentive,structured_normal","1,2,2,3","",""
"null","","html-keyboard-response","186","113921","0.0-115.0","33PPO7FECW1GK6ZLEHHJA39O90GDID","A2P76QVLSGJR45","3R5LWXWHR0UE010DORDQUF3E2FPGXE","","<img src=""img/set1/S1.jpg"" width=""540"" height = ""360"" style=""border:16px solid orange"">","null","","","","","","","",""
"null","","html-keyboard-response","187","113924","0.0-116.0","33PPO7FECW1GK6ZLEHHJA39O90GDID","A2P76QVLSGJR45","3R5LWXWHR0UE010DORDQUF3E2FPGXE","","","null","","","","","","","",""
"889.3750000279397","","image-keyboard-response","188","114815","0.0-117.0","33PPO7FECW1GK6ZLEHHJA39O90GDID","A2P76QVLSGJR45","3R5LWXWHR0UE010DORDQUF3E2FPGXE","","img/set1/S2.jpg","74","2","random","68","false","random,structured_incentive,structured_normal","1,2,2,3","",""
"null","","html-keyboard-response","189","115168","0.0-118.0","33PPO7FECW1GK6ZLEHHJA39O90GDID","A2P76QVLSGJR45","3R5LWXWHR0UE010DORDQUF3E2FPGXE","","<img src=""img/set1/S2.jpg"" width=""540"" height = ""360"">","null","","","","","","","",""
"null","","html-keyboard-response","190","115170","0.0-119.0","33PPO7FECW1GK6ZLEHHJA39O90GDID","A2P76QVLSGJR45","3R5LWXWHR0UE010DORDQUF3E2FPGXE","","","null","","","","","","","",""
"31.075000064447522","","image-keyboard-response","191","115202","0.0-120.0","33PPO7FECW1GK6ZLEHHJA39O90GDID","A2P76QVLSGJR45","3R5LWXWHR0UE010DORDQUF3E2FPGXE","","img/set1/S4.jpg","68","4","random","74","false","random,structured_incentive,structured_normal","1,2,2,3","",""
"null","","html-keyboard-response","192","115556","0.0-121.0","33PPO7FECW1GK6ZLEHHJA39O90GDID","A2P76QVLSGJR45","3R5LWXWHR0UE010DORDQUF3E2FPGXE","","<img src=""img/set1/S4.jpg"" width=""540"" height = ""360"">","null","","","","","","","",""
"null","","html-keyboard-response","193","115558","0.0-122.0","33PPO7FECW1GK6ZLEHHJA39O90GDID","A2P76QVLSGJR45","3R5LWXWHR0UE010DORDQUF3E2FPGXE","","","null","","","","","","","",""
"1127.119999844581","","image-keyboard-response","194","116688","0.0-123.0","33PPO7FECW1GK6ZLEHHJA39O90GDID","A2P76QVLSGJR45","3R5LWXWHR0UE010DORDQUF3E2FPGXE","","img/set1/S2.jpg","83","2","random","68","false","random,structured_incentive,structured_normal","1,2,2,3","",""
"null","","html-keyboard-response","195","117043","0.0-124.0","33PPO7FECW1GK6ZLEHHJA39O90GDID","A2P76QVLSGJR45","3R5LWXWHR0UE010DORDQUF3E2FPGXE","","<img src=""img/set1/S2.jpg"" width=""540"" height = ""360"">","null","","","","","","","",""
"null","","html-keyboard-response","196","117045","0.0-125.0","33PPO7FECW1GK6ZLEHHJA39O90GDID","A2P76QVLSGJR45","3R5LWXWHR0UE010DORDQUF3E2FPGXE","","","null","","","","","","","",""
"1172.9499998036772","","image-keyboard-response","197","118221","0.0-126.0","33PPO7FECW1GK6ZLEHHJA39O90GDID","A2P76QVLSGJR45","3R5LWXWHR0UE010DORDQUF3E2FPGXE","","img/set1/S1.jpg","83","1","random","83","true","random,structured_incentive,structured_normal","1,2,2,3","",""
"null","","html-keyboard-response","198","118574","0.0-127.0","33PPO7FECW1GK6ZLEHHJA39O90GDID","A2P76QVLSGJR45","3R5LWXWHR0UE010DORDQUF3E2FPGXE","","<img src=""img/set1/S1.jpg"" width=""540"" height = ""360"" style=""border:16px solid orange"">","null","","","","","","","",""
"null","","html-keyboard-response","199","118577","0.0-128.0","33PPO7FECW1GK6ZLEHHJA39O90GDID","A2P76QVLSGJR45","3R5LWXWHR0UE010DORDQUF3E2FPGXE","","","null","","","","","","","",""
"820.3600000124425","","image-keyboard-response","200","119398","0.0-129.0","33PPO7FECW1GK6ZLEHHJA39O90GDID","A2P76QVLSGJR45","3R5LWXWHR0UE010DORDQUF3E2FPGXE","","img/set1/S4.jpg","74","4","random","74","true","random,structured_incentive,structured_normal","1,2,2,3","",""
"null","","html-keyboard-response","201","119750","0.0-130.0","33PPO7FECW1GK6ZLEHHJA39O90GDID","A2P76QVLSGJR45","3R5LWXWHR0UE010DORDQUF3E2FPGXE","","<img src=""img/set1/S4.jpg"" width=""540"" height = ""360"" style=""border:16px solid orange"">","null","","","","","","","",""
"null","","html-keyboard-response","202","119752","0.0-131.0","33PPO7FECW1GK6ZLEHHJA39O90GDID","A2P76QVLSGJR45","3R5LWXWHR0UE010DORDQUF3E2FPGXE","","","null","","","","","","","",""
"493.65500011481345","","image-keyboard-response","203","120248","0.0-132.0","33PPO7FECW1GK6ZLEHHJA39O90GDID","A2P76QVLSGJR45","3R5LWXWHR0UE010DORDQUF3E2FPGXE","","img/set1/S2.jpg","72","2","random","68","false","random,structured_incentive,structured_normal","1,2,2,3","",""
"null","","html-keyboard-response","204","120601","0.0-133.0","33PPO7FECW1GK6ZLEHHJA39O90GDID","A2P76QVLSGJR45","3R5LWXWHR0UE010DORDQUF3E2FPGXE","","<img src=""img/set1/S2.jpg"" width=""540"" height = ""360"">","null","","","","","","","",""
"null","","html-keyboard-response","205","120603","0.0-134.0","33PPO7FECW1GK6ZLEHHJA39O90GDID","A2P76QVLSGJR45","3R5LWXWHR0UE010DORDQUF3E2FPGXE","","","null","","","","","","","",""
"647.5649999920279","","image-keyboard-response","206","121252","0.0-135.0","33PPO7FECW1GK6ZLEHHJA39O90GDID","A2P76QVLSGJR45","3R5LWXWHR0UE010DORDQUF3E2FPGXE","","img/set1/S1.jpg","72","1","random","83","false","random,structured_incentive,structured_normal","1,2,2,3","",""
"null","","html-keyboard-response","207","121605","0.0-136.0","33PPO7FECW1GK6ZLEHHJA39O90GDID","A2P76QVLSGJR45","3R5LWXWHR0UE010DORDQUF3E2FPGXE","","<img src=""img/set1/S1.jpg"" width=""540"" height = ""360"">","null","","","","","","","",""
"null","","html-keyboard-response","208","121608","0.0-137.0","33PPO7FECW1GK6ZLEHHJA39O90GDID","A2P76QVLSGJR45","3R5LWXWHR0UE010DORDQUF3E2FPGXE","","","null","","","","","","","",""
"697.5349998101592","","image-keyboard-response","209","122307","0.0-138.0","33PPO7FECW1GK6ZLEHHJA39O90GDID","A2P76QVLSGJR45","3R5LWXWHR0UE010DORDQUF3E2FPGXE","","img/set1/S1.jpg","83","1","random","83","true","random,structured_incentive,structured_normal","1,2,2,3","",""
"null","","html-keyboard-response","210","122660","0.0-139.0","33PPO7FECW1GK6ZLEHHJA39O90GDID","A2P76QVLSGJR45","3R5LWXWHR0UE010DORDQUF3E2FPGXE","","<img src=""img/set1/S1.jpg"" width=""540"" height = ""360"" style=""border:16px solid orange"">","null","","","","","","","",""
"null","","html-keyboard-response","211","122662","0.0-140.0","33PPO7FECW1GK6ZLEHHJA39O90GDID","A2P76QVLSGJR45","3R5LWXWHR0UE010DORDQUF3E2FPGXE","","","null","","","","","","","",""
"799.1750000510365","","image-keyboard-response","212","123463","0.0-141.0","33PPO7FECW1GK6ZLEHHJA39O90GDID","A2P76QVLSGJR45","3R5LWXWHR0UE010DORDQUF3E2FPGXE","","img/set1/S3.jpg","72","3","random","72","true","random,structured_incentive,structured_normal","1,2,2,3","",""
"null","","html-keyboard-response","213","123815","0.0-142.0","33PPO7FECW1GK6ZLEHHJA39O90GDID","A2P76QVLSGJR45","3R5LWXWHR0UE010DORDQUF3E2FPGXE","","<img src=""img/set1/S3.jpg"" width=""540"" height = ""360"" style=""border:16px solid orange"">","null","","","","","","","",""
"null","","html-keyboard-response","214","123817","0.0-143.0","33PPO7FECW1GK6ZLEHHJA39O90GDID","A2P76QVLSGJR45","3R5LWXWHR0UE010DORDQUF3E2FPGXE","","","null","","","","","","","",""
"552.9350000433624","","image-keyboard-response","215","124372","0.0-144.0","33PPO7FECW1GK6ZLEHHJA39O90GDID","A2P76QVLSGJR45","3R5LWXWHR0UE010DORDQUF3E2FPGXE","","img/set1/S1.jpg","83","1","random","83","true","random,structured_incentive,structured_normal","1,2,2,3","",""
"null","","html-keyboard-response","216","124724","0.0-145.0","33PPO7FECW1GK6ZLEHHJA39O90GDID","A2P76QVLSGJR45","3R5LWXWHR0UE010DORDQUF3E2FPGXE","","<img src=""img/set1/S1.jpg"" width=""540"" height = ""360"" style=""border:16px solid orange"">","null","","","","","","","",""
"null","","html-keyboard-response","217","124726","0.0-146.0","33PPO7FECW1GK6ZLEHHJA39O90GDID","A2P76QVLSGJR45","3R5LWXWHR0UE010DORDQUF3E2FPGXE","","","null","","","","","","","",""
"779.839999973774","","image-keyboard-response","218","125507","0.0-147.0","33PPO7FECW1GK6ZLEHHJA39O90GDID","A2P76QVLSGJR45","3R5LWXWHR0UE010DORDQUF3E2FPGXE","","img/set1/S2.jpg","74","2","random","68","false","random,structured_incentive,structured_normal","1,2,2,3","",""
"null","","html-keyboard-response","219","125859","0.0-148.0","33PPO7FECW1GK6ZLEHHJA39O90GDID","A2P76QVLSGJR45","3R5LWXWHR0UE010DORDQUF3E2FPGXE","","<img src=""img/set1/S2.jpg"" width=""540"" height = ""360"">","null","","","","","","","",""
"null","","html-keyboard-response","220","125862","0.0-149.0","33PPO7FECW1GK6ZLEHHJA39O90GDID","A2P76QVLSGJR45","3R5LWXWHR0UE010DORDQUF3E2FPGXE","","","null","","","","","","","",""
"732.9250001348555","","image-keyboard-response","221","126597","0.0-150.0","33PPO7FECW1GK6ZLEHHJA39O90GDID","A2P76QVLSGJR45","3R5LWXWHR0UE010DORDQUF3E2FPGXE","","img/set1/S4.jpg","74","4","random","74","true","random,structured_incentive,structured_normal","1,2,2,3","",""
"null","","html-keyboard-response","222","126951","0.0-151.0","33PPO7FECW1GK6ZLEHHJA39O90GDID","A2P76QVLSGJR45","3R5LWXWHR0UE010DORDQUF3E2FPGXE","","<img src=""img/set1/S4.jpg"" width=""540"" height = ""360"" style=""border:16px solid orange"">","null","","","","","","","",""
"null","","html-keyboard-response","223","126953","0.0-152.0","33PPO7FECW1GK6ZLEHHJA39O90GDID","A2P76QVLSGJR45","3R5LWXWHR0UE010DORDQUF3E2FPGXE","","","null","","","","","","","",""
"856.2950000632554","","image-keyboard-response","224","127811","0.0-153.0","33PPO7FECW1GK6ZLEHHJA39O90GDID","A2P76QVLSGJR45","3R5LWXWHR0UE010DORDQUF3E2FPGXE","","img/set1/S1.jpg","83","1","random","83","true","random,structured_incentive,structured_normal","1,2,2,3","",""
"null","","html-keyboard-response","225","128164","0.0-154.0","33PPO7FECW1GK6ZLEHHJA39O90GDID","A2P76QVLSGJR45","3R5LWXWHR0UE010DORDQUF3E2FPGXE","","<img src=""img/set1/S1.jpg"" width=""540"" height = ""360"" style=""border:16px solid orange"">","null","","","","","","","",""
"null","","html-keyboard-response","226","128166","0.0-155.0","33PPO7FECW1GK6ZLEHHJA39O90GDID","A2P76QVLSGJR45","3R5LWXWHR0UE010DORDQUF3E2FPGXE","","","null","","","","","","","",""
"1085.0299999583513","","image-keyboard-response","227","129253","0.0-156.0","33PPO7FECW1GK6ZLEHHJA39O90GDID","A2P76QVLSGJR45","3R5LWXWHR0UE010DORDQUF3E2FPGXE","","img/set1/S4.jpg","74","4","random","74","true","random,structured_incentive,structured_normal","1,2,2,3","",""
"null","","html-keyboard-response","228","129606","0.0-157.0","33PPO7FECW1GK6ZLEHHJA39O90GDID","A2P76QVLSGJR45","3R5LWXWHR0UE010DORDQUF3E2FPGXE","","<img src=""img/set1/S4.jpg"" width=""540"" height = ""360"" style=""border:16px solid orange"">","null","","","","","","","",""
"null","","html-keyboard-response","229","129609","0.0-158.0","33PPO7FECW1GK6ZLEHHJA39O90GDID","A2P76QVLSGJR45","3R5LWXWHR0UE010DORDQUF3E2FPGXE","","","null","","","","","","","",""
"905.6599999312311","","image-keyboard-response","230","130516","0.0-159.0","33PPO7FECW1GK6ZLEHHJA39O90GDID","A2P76QVLSGJR45","3R5LWXWHR0UE010DORDQUF3E2FPGXE","","img/set1/S1.jpg","83","1","random","83","true","random,structured_incentive,structured_normal","1,2,2,3","",""
"null","","html-keyboard-response","231","130870","0.0-160.0","33PPO7FECW1GK6ZLEHHJA39O90GDID","A2P76QVLSGJR45","3R5LWXWHR0UE010DORDQUF3E2FPGXE","","<img src=""img/set1/S1.jpg"" width=""540"" height = ""360"" style=""border:16px solid orange"">","null","","","","","","","",""
"null","","html-keyboard-response","232","130872","0.0-161.0","33PPO7FECW1GK6ZLEHHJA39O90GDID","A2P76QVLSGJR45","3R5LWXWHR0UE010DORDQUF3E2FPGXE","","","null","","","","","","","",""
"503.3899999689311","","image-keyboard-response","233","131377","0.0-162.0","33PPO7FECW1GK6ZLEHHJA39O90GDID","A2P76QVLSGJR45","3R5LWXWHR0UE010DORDQUF3E2FPGXE","","img/set1/S1.jpg","83","1","random","83","true","random,structured_incentive,structured_normal","1,2,2,3","",""
"null","","html-keyboard-response","234","131730","0.0-163.0","33PPO7FECW1GK6ZLEHHJA39O90GDID","A2P76QVLSGJR45","3R5LWXWHR0UE010DORDQUF3E2FPGXE","","<img src=""img/set1/S1.jpg"" width=""540"" height = ""360"" style=""border:16px solid orange"">","null","","","","","","","",""
"null","","html-keyboard-response","235","131732","0.0-164.0","33PPO7FECW1GK6ZLEHHJA39O90GDID","A2P76QVLSGJR45","3R5LWXWHR0UE010DORDQUF3E2FPGXE","","","null","","","","","","","",""
"1036.2399998120964","","image-keyboard-response","236","132770","0.0-165.0","33PPO7FECW1GK6ZLEHHJA39O90GDID","A2P76QVLSGJR45","3R5LWXWHR0UE010DORDQUF3E2FPGXE","","img/set1/S4.jpg","74","4","random","74","true","random,structured_incentive,structured_normal","1,2,2,3","",""
"null","","html-keyboard-response","237","133123","0.0-166.0","33PPO7FECW1GK6ZLEHHJA39O90GDID","A2P76QVLSGJR45","3R5LWXWHR0UE010DORDQUF3E2FPGXE","","<img src=""img/set1/S4.jpg"" width=""540"" height = ""360"" style=""border:16px solid orange"">","null","","","","","","","",""
"null","","html-keyboard-response","238","133125","0.0-167.0","33PPO7FECW1GK6ZLEHHJA39O90GDID","A2P76QVLSGJR45","3R5LWXWHR0UE010DORDQUF3E2FPGXE","","","null","","","","","","","",""
"562.4649999663234","","image-keyboard-response","239","133690","0.0-168.0","33PPO7FECW1GK6ZLEHHJA39O90GDID","A2P76QVLSGJR45","3R5LWXWHR0UE010DORDQUF3E2FPGXE","","img/set1/S1.jpg","83","1","random","83","true","random,structured_incentive,structured_normal","1,2,2,3","",""
"null","","html-keyboard-response","240","134043","0.0-169.0","33PPO7FECW1GK6ZLEHHJA39O90GDID","A2P76QVLSGJR45","3R5LWXWHR0UE010DORDQUF3E2FPGXE","","<img src=""img/set1/S1.jpg"" width=""540"" height = ""360"" style=""border:16px solid orange"">","null","","","","","","","",""
"null","","html-keyboard-response","241","134046","0.0-170.0","33PPO7FECW1GK6ZLEHHJA39O90GDID","A2P76QVLSGJR45","3R5LWXWHR0UE010DORDQUF3E2FPGXE","","","null","","","","","","","",""
"723.2200000435114","","image-keyboard-response","242","134771","0.0-171.0","33PPO7FECW1GK6ZLEHHJA39O90GDID","A2P76QVLSGJR45","3R5LWXWHR0UE010DORDQUF3E2FPGXE","","img/set1/S1.jpg","83","1","random","83","true","random,structured_incentive,structured_normal","1,2,2,3","",""
"null","","html-keyboard-response","243","135125","0.0-172.0","33PPO7FECW1GK6ZLEHHJA39O90GDID","A2P76QVLSGJR45","3R5LWXWHR0UE010DORDQUF3E2FPGXE","","<img src=""img/set1/S1.jpg"" width=""540"" height = ""360"" style=""border:16px solid orange"">","null","","","","","","","",""
"null","","html-keyboard-response","244","135128","0.0-173.0","33PPO7FECW1GK6ZLEHHJA39O90GDID","A2P76QVLSGJR45","3R5LWXWHR0UE010DORDQUF3E2FPGXE","","","null","","","","","","","",""
"420.63499987125397","","image-keyboard-response","245","135551","0.0-174.0","33PPO7FECW1GK6ZLEHHJA39O90GDID","A2P76QVLSGJR45","3R5LWXWHR0UE010DORDQUF3E2FPGXE","","img/set1/S1.jpg","83","1","random","83","true","random,structured_incentive,structured_normal","1,2,2,3","",""
"null","","html-keyboard-response","246","135905","0.0-175.0","33PPO7FECW1GK6ZLEHHJA39O90GDID","A2P76QVLSGJR45","3R5LWXWHR0UE010DORDQUF3E2FPGXE","","<img src=""img/set1/S1.jpg"" width=""540"" height = ""360"" style=""border:16px solid orange"">","null","","","","","","","",""
"null","","html-keyboard-response","247","135908","0.0-176.0","33PPO7FECW1GK6ZLEHHJA39O90GDID","A2P76QVLSGJR45","3R5LWXWHR0UE010DORDQUF3E2FPGXE","","","null","","","","","","","",""
"840.5049999710172","","image-keyboard-response","248","136751","0.0-177.0","33PPO7FECW1GK6ZLEHHJA39O90GDID","A2P76QVLSGJR45","3R5LWXWHR0UE010DORDQUF3E2FPGXE","","img/set1/S3.jpg","72","3","random","72","true","random,structured_incentive,structured_normal","1,2,2,3","",""
"null","","html-keyboard-response","249","137105","0.0-178.0","33PPO7FECW1GK6ZLEHHJA39O90GDID","A2P76QVLSGJR45","3R5LWXWHR0UE010DORDQUF3E2FPGXE","","<img src=""img/set1/S3.jpg"" width=""540"" height = ""360"" style=""border:16px solid orange"">","null","","","","","","","",""
"null","","html-keyboard-response","250","137108","0.0-179.0","33PPO7FECW1GK6ZLEHHJA39O90GDID","A2P76QVLSGJR45","3R5LWXWHR0UE010DORDQUF3E2FPGXE","","","null","","","","","","","",""
"380.0349999219179","","image-keyboard-response","251","137490","0.0-180.0","33PPO7FECW1GK6ZLEHHJA39O90GDID","A2P76QVLSGJR45","3R5LWXWHR0UE010DORDQUF3E2FPGXE","","img/set1/S3.jpg","72","3","random","72","true","random,structured_incentive,structured_normal","1,2,2,3","",""
"null","","html-keyboard-response","252","137843","0.0-181.0","33PPO7FECW1GK6ZLEHHJA39O90GDID","A2P76QVLSGJR45","3R5LWXWHR0UE010DORDQUF3E2FPGXE","","<img src=""img/set1/S3.jpg"" width=""540"" height = ""360"" style=""border:16px solid orange"">","null","","","","","","","",""
"null","","html-keyboard-response","253","137845","0.0-182.0","33PPO7FECW1GK6ZLEHHJA39O90GDID","A2P76QVLSGJR45","3R5LWXWHR0UE010DORDQUF3E2FPGXE","","","null","","","","","","","",""
"937.5950000248849","","image-keyboard-response","254","138784","0.0-183.0","33PPO7FECW1GK6ZLEHHJA39O90GDID","A2P76QVLSGJR45","3R5LWXWHR0UE010DORDQUF3E2FPGXE","","img/set1/S4.jpg","83","4","random","74","false","random,structured_incentive,structured_normal","1,2,2,3","",""
"null","","html-keyboard-response","255","139137","0.0-184.0","33PPO7FECW1GK6ZLEHHJA39O90GDID","A2P76QVLSGJR45","3R5LWXWHR0UE010DORDQUF3E2FPGXE","","<img src=""img/set1/S4.jpg"" width=""540"" height = ""360"">","null","","","","","","","",""
"null","","html-keyboard-response","256","139139","0.0-185.0","33PPO7FECW1GK6ZLEHHJA39O90GDID","A2P76QVLSGJR45","3R5LWXWHR0UE010DORDQUF3E2FPGXE","","","null","","","","","","","",""
"924.8099999967963","","image-keyboard-response","257","140065","0.0-186.0","33PPO7FECW1GK6ZLEHHJA39O90GDID","A2P76QVLSGJR45","3R5LWXWHR0UE010DORDQUF3E2FPGXE","","img/set1/S1.jpg","83","1","random","83","true","random,structured_incentive,structured_normal","1,2,2,3","",""
"null","","html-keyboard-response","258","140418","0.0-187.0","33PPO7FECW1GK6ZLEHHJA39O90GDID","A2P76QVLSGJR45","3R5LWXWHR0UE010DORDQUF3E2FPGXE","","<img src=""img/set1/S1.jpg"" width=""540"" height = ""360"" style=""border:16px solid orange"">","null","","","","","","","",""
"null","","html-keyboard-response","259","140420","0.0-188.0","33PPO7FECW1GK6ZLEHHJA39O90GDID","A2P76QVLSGJR45","3R5LWXWHR0UE010DORDQUF3E2FPGXE","","","null","","","","","","","",""
"717.780000064522","","image-keyboard-response","260","141140","0.0-189.0","33PPO7FECW1GK6ZLEHHJA39O90GDID","A2P76QVLSGJR45","3R5LWXWHR0UE010DORDQUF3E2FPGXE","","img/set1/S3.jpg","72","3","random","72","true","random,structured_incentive,structured_normal","1,2,2,3","",""
"null","","html-keyboard-response","261","141495","0.0-190.0","33PPO7FECW1GK6ZLEHHJA39O90GDID","A2P76QVLSGJR45","3R5LWXWHR0UE010DORDQUF3E2FPGXE","","<img src=""img/set1/S3.jpg"" width=""540"" height = ""360"" style=""border:16px solid orange"">","null","","","","","","","",""
"null","","html-keyboard-response","262","141498","0.0-191.0","33PPO7FECW1GK6ZLEHHJA39O90GDID","A2P76QVLSGJR45","3R5LWXWHR0UE010DORDQUF3E2FPGXE","","","null","","","","","","","",""
"399.1400001104921","","image-keyboard-response","263","141898","0.0-192.0","33PPO7FECW1GK6ZLEHHJA39O90GDID","A2P76QVLSGJR45","3R5LWXWHR0UE010DORDQUF3E2FPGXE","","img/set1/S3.jpg","72","3","random","72","true","random,structured_incentive,structured_normal","1,2,2,3","",""
"null","","html-keyboard-response","264","142249","0.0-193.0","33PPO7FECW1GK6ZLEHHJA39O90GDID","A2P76QVLSGJR45","3R5LWXWHR0UE010DORDQUF3E2FPGXE","","<img src=""img/set1/S3.jpg"" width=""540"" height = ""360"" style=""border:16px solid orange"">","null","","","","","","","",""
"null","","html-keyboard-response","265","142251","0.0-194.0","33PPO7FECW1GK6ZLEHHJA39O90GDID","A2P76QVLSGJR45","3R5LWXWHR0UE010DORDQUF3E2FPGXE","","","null","","","","","","","",""
"465.36499983631074","","image-keyboard-response","266","142718","0.0-195.0","33PPO7FECW1GK6ZLEHHJA39O90GDID","A2P76QVLSGJR45","3R5LWXWHR0UE010DORDQUF3E2FPGXE","","img/set1/S3.jpg","72","3","random","72","true","random,structured_incentive,structured_normal","1,2,2,3","",""
"null","","html-keyboard-response","267","143072","0.0-196.0","33PPO7FECW1GK6ZLEHHJA39O90GDID","A2P76QVLSGJR45","3R5LWXWHR0UE010DORDQUF3E2FPGXE","","<img src=""img/set1/S3.jpg"" width=""540"" height = ""360"" style=""border:16px solid orange"">","null","","","","","","","",""
"null","","html-keyboard-response","268","143075","0.0-197.0","33PPO7FECW1GK6ZLEHHJA39O90GDID","A2P76QVLSGJR45","3R5LWXWHR0UE010DORDQUF3E2FPGXE","","","null","","","","","","","",""
"655.1500000059605","","image-keyboard-response","269","143732","0.0-198.0","33PPO7FECW1GK6ZLEHHJA39O90GDID","A2P76QVLSGJR45","3R5LWXWHR0UE010DORDQUF3E2FPGXE","","img/set1/S1.jpg","83","1","random","83","true","random,structured_incentive,structured_normal","1,2,2,3","",""
"null","","html-keyboard-response","270","144084","0.0-199.0","33PPO7FECW1GK6ZLEHHJA39O90GDID","A2P76QVLSGJR45","3R5LWXWHR0UE010DORDQUF3E2FPGXE","","<img src=""img/set1/S1.jpg"" width=""540"" height = ""360"" style=""border:16px solid orange"">","null","","","","","","","",""
"null","","html-keyboard-response","271","144088","0.0-200.0","33PPO7FECW1GK6ZLEHHJA39O90GDID","A2P76QVLSGJR45","3R5LWXWHR0UE010DORDQUF3E2FPGXE","","","null","","","","","","","",""
"935.8650001231581","","image-keyboard-response","272","145026","0.0-201.0","33PPO7FECW1GK6ZLEHHJA39O90GDID","A2P76QVLSGJR45","3R5LWXWHR0UE010DORDQUF3E2FPGXE","","img/set1/S3.jpg","72","3","random","72","true","random,structured_incentive,structured_normal","1,2,2,3","",""
"null","","html-keyboard-response","273","145379","0.0-202.0","33PPO7FECW1GK6ZLEHHJA39O90GDID","A2P76QVLSGJR45","3R5LWXWHR0UE010DORDQUF3E2FPGXE","","<img src=""img/set1/S3.jpg"" width=""540"" height = ""360"" style=""border:16px solid orange"">","null","","","","","","","",""
"null","","html-keyboard-response","274","145382","0.0-203.0","33PPO7FECW1GK6ZLEHHJA39O90GDID","A2P76QVLSGJR45","3R5LWXWHR0UE010DORDQUF3E2FPGXE","","","null","","","","","","","",""
"681.8250000942498","","image-keyboard-response","275","146065","0.0-204.0","33PPO7FECW1GK6ZLEHHJA39O90GDID","A2P76QVLSGJR45","3R5LWXWHR0UE010DORDQUF3E2FPGXE","","img/set1/S4.jpg","83","4","random","74","false","random,structured_incentive,structured_normal","1,2,2,3","",""
"null","","html-keyboard-response","276","146419","0.0-205.0","33PPO7FECW1GK6ZLEHHJA39O90GDID","A2P76QVLSGJR45","3R5LWXWHR0UE010DORDQUF3E2FPGXE","","<img src=""img/set1/S4.jpg"" width=""540"" height = ""360"">","null","","","","","","","",""
"null","","html-keyboard-response","277","146422","0.0-206.0","33PPO7FECW1GK6ZLEHHJA39O90GDID","A2P76QVLSGJR45","3R5LWXWHR0UE010DORDQUF3E2FPGXE","","","null","","","","","","","",""
"379.76999999955297","","image-keyboard-response","278","146803","0.0-207.0","33PPO7FECW1GK6ZLEHHJA39O90GDID","A2P76QVLSGJR45","3R5LWXWHR0UE010DORDQUF3E2FPGXE","","img/set1/S3.jpg","74","3","random","72","false","random,structured_incentive,structured_normal","1,2,2,3","",""
"null","","html-keyboard-response","279","147155","0.0-208.0","33PPO7FECW1GK6ZLEHHJA39O90GDID","A2P76QVLSGJR45","3R5LWXWHR0UE010DORDQUF3E2FPGXE","","<img src=""img/set1/S3.jpg"" width=""540"" height = ""360"">","null","","","","","","","",""
"null","","html-keyboard-response","280","147157","0.0-209.0","33PPO7FECW1GK6ZLEHHJA39O90GDID","A2P76QVLSGJR45","3R5LWXWHR0UE010DORDQUF3E2FPGXE","","","null","","","","","","","",""
"1079.0549998637289","","image-keyboard-response","281","148238","0.0-210.0","33PPO7FECW1GK6ZLEHHJA39O90GDID","A2P76QVLSGJR45","3R5LWXWHR0UE010DORDQUF3E2FPGXE","","img/set1/S4.jpg","74","4","random","74","true","random,structured_incentive,structured_normal","1,2,2,3","",""
"null","","html-keyboard-response","282","148592","0.0-211.0","33PPO7FECW1GK6ZLEHHJA39O90GDID","A2P76QVLSGJR45","3R5LWXWHR0UE010DORDQUF3E2FPGXE","","<img src=""img/set1/S4.jpg"" width=""540"" height = ""360"" style=""border:16px solid orange"">","null","","","","","","","",""
"null","","html-keyboard-response","283","148594","0.0-212.0","33PPO7FECW1GK6ZLEHHJA39O90GDID","A2P76QVLSGJR45","3R5LWXWHR0UE010DORDQUF3E2FPGXE","","","null","","","","","","","",""
"536.060000071302","","image-keyboard-response","284","149132","0.0-213.0","33PPO7FECW1GK6ZLEHHJA39O90GDID","A2P76QVLSGJR45","3R5LWXWHR0UE010DORDQUF3E2FPGXE","","img/set1/S4.jpg","74","4","random","74","true","random,structured_incentive,structured_normal","1,2,2,3","",""
"null","","html-keyboard-response","285","149484","0.0-214.0","33PPO7FECW1GK6ZLEHHJA39O90GDID","A2P76QVLSGJR45","3R5LWXWHR0UE010DORDQUF3E2FPGXE","","<img src=""img/set1/S4.jpg"" width=""540"" height = ""360"" style=""border:16px solid orange"">","null","","","","","","","",""
"null","","html-keyboard-response","286","149487","0.0-215.0","33PPO7FECW1GK6ZLEHHJA39O90GDID","A2P76QVLSGJR45","3R5LWXWHR0UE010DORDQUF3E2FPGXE","","","null","","","","","","","",""
"421.7250000219792","","image-keyboard-response","287","149909","0.0-216.0","33PPO7FECW1GK6ZLEHHJA39O90GDID","A2P76QVLSGJR45","3R5LWXWHR0UE010DORDQUF3E2FPGXE","","img/set1/S4.jpg","74","4","random","74","true","random,structured_incentive,structured_normal","1,2,2,3","",""
"null","","html-keyboard-response","288","150261","0.0-217.0","33PPO7FECW1GK6ZLEHHJA39O90GDID","A2P76QVLSGJR45","3R5LWXWHR0UE010DORDQUF3E2FPGXE","","<img src=""img/set1/S4.jpg"" width=""540"" height = ""360"" style=""border:16px solid orange"">","null","","","","","","","",""
"null","","html-keyboard-response","289","150264","0.0-218.0","33PPO7FECW1GK6ZLEHHJA39O90GDID","A2P76QVLSGJR45","3R5LWXWHR0UE010DORDQUF3E2FPGXE","","","null","","","","","","","",""
"675.1200000289828","","image-keyboard-response","290","150941","0.0-219.0","33PPO7FECW1GK6ZLEHHJA39O90GDID","A2P76QVLSGJR45","3R5LWXWHR0UE010DORDQUF3E2FPGXE","","img/set1/S1.jpg","83","1","random","83","true","random,structured_incentive,structured_normal","1,2,2,3","",""
"null","","html-keyboard-response","291","151295","0.0-220.0","33PPO7FECW1GK6ZLEHHJA39O90GDID","A2P76QVLSGJR45","3R5LWXWHR0UE010DORDQUF3E2FPGXE","","<img src=""img/set1/S1.jpg"" width=""540"" height = ""360"" style=""border:16px solid orange"">","null","","","","","","","",""
"null","","html-keyboard-response","292","151298","0.0-221.0","33PPO7FECW1GK6ZLEHHJA39O90GDID","A2P76QVLSGJR45","3R5LWXWHR0UE010DORDQUF3E2FPGXE","","","null","","","","","","","",""
"488.48499986343086","","image-keyboard-response","293","151787","0.0-222.0","33PPO7FECW1GK6ZLEHHJA39O90GDID","A2P76QVLSGJR45","3R5LWXWHR0UE010DORDQUF3E2FPGXE","","img/set1/S1.jpg","83","1","random","83","true","random,structured_incentive,structured_normal","1,2,2,3","",""
"null","","html-keyboard-response","294","152139","0.0-223.0","33PPO7FECW1GK6ZLEHHJA39O90GDID","A2P76QVLSGJR45","3R5LWXWHR0UE010DORDQUF3E2FPGXE","","<img src=""img/set1/S1.jpg"" width=""540"" height = ""360"" style=""border:16px solid orange"">","null","","","","","","","",""
"null","","html-keyboard-response","295","152143","0.0-224.0","33PPO7FECW1GK6ZLEHHJA39O90GDID","A2P76QVLSGJR45","3R5LWXWHR0UE010DORDQUF3E2FPGXE","","","null","","","","","","","",""
"912.4399998690933","","image-keyboard-response","296","153058","0.0-225.0","33PPO7FECW1GK6ZLEHHJA39O90GDID","A2P76QVLSGJR45","3R5LWXWHR0UE010DORDQUF3E2FPGXE","","img/set1/S3.jpg","72","3","random","72","true","random,structured_incentive,structured_normal","1,2,2,3","",""
"null","","html-keyboard-response","297","153412","0.0-226.0","33PPO7FECW1GK6ZLEHHJA39O90GDID","A2P76QVLSGJR45","3R5LWXWHR0UE010DORDQUF3E2FPGXE","","<img src=""img/set1/S3.jpg"" width=""540"" height = ""360"" style=""border:16px solid orange"">","null","","","","","","","",""
"null","","html-keyboard-response","298","153415","0.0-227.0","33PPO7FECW1GK6ZLEHHJA39O90GDID","A2P76QVLSGJR45","3R5LWXWHR0UE010DORDQUF3E2FPGXE","","","null","","","","","","","",""
"551.3649999629706","","image-keyboard-response","299","153967","0.0-228.0","33PPO7FECW1GK6ZLEHHJA39O90GDID","A2P76QVLSGJR45","3R5LWXWHR0UE010DORDQUF3E2FPGXE","","img/set1/S3.jpg","72","3","random","72","true","random,structured_incentive,structured_normal","1,2,2,3","",""
"null","","html-keyboard-response","300","154319","0.0-229.0","33PPO7FECW1GK6ZLEHHJA39O90GDID","A2P76QVLSGJR45","3R5LWXWHR0UE010DORDQUF3E2FPGXE","","<img src=""img/set1/S3.jpg"" width=""540"" height = ""360"" style=""border:16px solid orange"">","null","","","","","","","",""
"null","","html-keyboard-response","301","154322","0.0-230.0","33PPO7FECW1GK6ZLEHHJA39O90GDID","A2P76QVLSGJR45","3R5LWXWHR0UE010DORDQUF3E2FPGXE","","","null","","","","","","","",""
"695.9349999669939","","image-keyboard-response","302","155020","0.0-231.0","33PPO7FECW1GK6ZLEHHJA39O90GDID","A2P76QVLSGJR45","3R5LWXWHR0UE010DORDQUF3E2FPGXE","","img/set1/S4.jpg","83","4","random","74","false","random,structured_incentive,structured_normal","1,2,2,3","",""
"null","","html-keyboard-response","303","155372","0.0-232.0","33PPO7FECW1GK6ZLEHHJA39O90GDID","A2P76QVLSGJR45","3R5LWXWHR0UE010DORDQUF3E2FPGXE","","<img src=""img/set1/S4.jpg"" width=""540"" height = ""360"">","null","","","","","","","",""
"null","","html-keyboard-response","304","155375","0.0-233.0","33PPO7FECW1GK6ZLEHHJA39O90GDID","A2P76QVLSGJR45","3R5LWXWHR0UE010DORDQUF3E2FPGXE","","","null","","","","","","","",""
"901.6800001263618","","image-keyboard-response","305","156278","0.0-234.0","33PPO7FECW1GK6ZLEHHJA39O90GDID","A2P76QVLSGJR45","3R5LWXWHR0UE010DORDQUF3E2FPGXE","","img/set1/S2.jpg","68","2","random","68","true","random,structured_incentive,structured_normal","1,2,2,3","",""
"null","","html-keyboard-response","306","156630","0.0-235.0","33PPO7FECW1GK6ZLEHHJA39O90GDID","A2P76QVLSGJR45","3R5LWXWHR0UE010DORDQUF3E2FPGXE","","<img src=""img/set1/S2.jpg"" width=""540"" height = ""360"" style=""border:16px solid orange"">","null","","","","","","","",""
"null","","html-keyboard-response","307","156633","0.0-236.0","33PPO7FECW1GK6ZLEHHJA39O90GDID","A2P76QVLSGJR45","3R5LWXWHR0UE010DORDQUF3E2FPGXE","","","null","","","","","","","",""
"864.8099999409169","","image-keyboard-response","308","157500","0.0-237.0","33PPO7FECW1GK6ZLEHHJA39O90GDID","A2P76QVLSGJR45","3R5LWXWHR0UE010DORDQUF3E2FPGXE","","img/set1/S1.jpg","83","1","random","83","true","random,structured_incentive,structured_normal","1,2,2,3","",""
"null","","html-keyboard-response","309","157853","0.0-238.0","33PPO7FECW1GK6ZLEHHJA39O90GDID","A2P76QVLSGJR45","3R5LWXWHR0UE010DORDQUF3E2FPGXE","","<img src=""img/set1/S1.jpg"" width=""540"" height = ""360"" style=""border:16px solid orange"">","null","","","","","","","",""
"null","","html-keyboard-response","310","157856","0.0-239.0","33PPO7FECW1GK6ZLEHHJA39O90GDID","A2P76QVLSGJR45","3R5LWXWHR0UE010DORDQUF3E2FPGXE","","","null","","","","","","","",""
"749.4850000366569","","image-keyboard-response","311","158607","0.0-240.0","33PPO7FECW1GK6ZLEHHJA39O90GDID","A2P76QVLSGJR45","3R5LWXWHR0UE010DORDQUF3E2FPGXE","","img/set1/S4.jpg","74","4","random","74","true","random,structured_incentive,structured_normal","1,2,2,3","",""
"null","","html-keyboard-response","312","158959","0.0-241.0","33PPO7FECW1GK6ZLEHHJA39O90GDID","A2P76QVLSGJR45","3R5LWXWHR0UE010DORDQUF3E2FPGXE","","<img src=""img/set1/S4.jpg"" width=""540"" height = ""360"" style=""border:16px solid orange"">","null","","","","","","","",""
"null","","html-keyboard-response","313","158962","0.0-242.0","33PPO7FECW1GK6ZLEHHJA39O90GDID","A2P76QVLSGJR45","3R5LWXWHR0UE010DORDQUF3E2FPGXE","","","null","","","","","","","",""
"797.4849999882281","","image-keyboard-response","314","159761","0.0-243.0","33PPO7FECW1GK6ZLEHHJA39O90GDID","A2P76QVLSGJR45","3R5LWXWHR0UE010DORDQUF3E2FPGXE","","img/set1/S2.jpg","68","2","random","68","true","random,structured_incentive,structured_normal","1,2,2,3","",""
"null","","html-keyboard-response","315","160113","0.0-244.0","33PPO7FECW1GK6ZLEHHJA39O90GDID","A2P76QVLSGJR45","3R5LWXWHR0UE010DORDQUF3E2FPGXE","","<img src=""img/set1/S2.jpg"" width=""540"" height = ""360"" style=""border:16px solid orange"">","null","","","","","","","",""
"null","","html-keyboard-response","316","160116","0.0-245.0","33PPO7FECW1GK6ZLEHHJA39O90GDID","A2P76QVLSGJR45","3R5LWXWHR0UE010DORDQUF3E2FPGXE","","","null","","","","","","","",""
"521.4299999643117","","image-keyboard-response","317","160639","0.0-246.0","33PPO7FECW1GK6ZLEHHJA39O90GDID","A2P76QVLSGJR45","3R5LWXWHR0UE010DORDQUF3E2FPGXE","","img/set1/S2.jpg","68","2","random","68","true","random,structured_incentive,structured_normal","1,2,2,3","",""
"null","","html-keyboard-response","318","160993","0.0-247.0","33PPO7FECW1GK6ZLEHHJA39O90GDID","A2P76QVLSGJR45","3R5LWXWHR0UE010DORDQUF3E2FPGXE","","<img src=""img/set1/S2.jpg"" width=""540"" height = ""360"" style=""border:16px solid orange"">","null","","","","","","","",""
"null","","html-keyboard-response","319","160995","0.0-248.0","33PPO7FECW1GK6ZLEHHJA39O90GDID","A2P76QVLSGJR45","3R5LWXWHR0UE010DORDQUF3E2FPGXE","","","null","","","","","","","",""
"601.4549999963492","","image-keyboard-response","320","161598","0.0-249.0","33PPO7FECW1GK6ZLEHHJA39O90GDID","A2P76QVLSGJR45","3R5LWXWHR0UE010DORDQUF3E2FPGXE","","img/set1/S4.jpg","83","4","random","74","false","random,structured_incentive,structured_normal","1,2,2,3","",""
"null","","html-keyboard-response","321","161951","0.0-250.0","33PPO7FECW1GK6ZLEHHJA39O90GDID","A2P76QVLSGJR45","3R5LWXWHR0UE010DORDQUF3E2FPGXE","","<img src=""img/set1/S4.jpg"" width=""540"" height = ""360"">","null","","","","","","","",""
"null","","html-keyboard-response","322","161953","0.0-251.0","33PPO7FECW1GK6ZLEHHJA39O90GDID","A2P76QVLSGJR45","3R5LWXWHR0UE010DORDQUF3E2FPGXE","","","null","","","","","","","",""
"658.1949999090284","","image-keyboard-response","323","162613","0.0-252.0","33PPO7FECW1GK6ZLEHHJA39O90GDID","A2P76QVLSGJR45","3R5LWXWHR0UE010DORDQUF3E2FPGXE","","img/set1/S4.jpg","74","4","random","74","true","random,structured_incentive,structured_normal","1,2,2,3","",""
"null","","html-keyboard-response","324","162966","0.0-253.0","33PPO7FECW1GK6ZLEHHJA39O90GDID","A2P76QVLSGJR45","3R5LWXWHR0UE010DORDQUF3E2FPGXE","","<img src=""img/set1/S4.jpg"" width=""540"" height = ""360"" style=""border:16px solid orange"">","null","","","","","","","",""
"null","","html-keyboard-response","325","162967","0.0-254.0","33PPO7FECW1GK6ZLEHHJA39O90GDID","A2P76QVLSGJR45","3R5LWXWHR0UE010DORDQUF3E2FPGXE","","","null","","","","","","","",""
"838.7200001161546","","image-keyboard-response","326","163808","0.0-255.0","33PPO7FECW1GK6ZLEHHJA39O90GDID","A2P76QVLSGJR45","3R5LWXWHR0UE010DORDQUF3E2FPGXE","","img/set1/S2.jpg","72","2","random","68","false","random,structured_incentive,structured_normal","1,2,2,3","",""
"null","","html-keyboard-response","327","164162","0.0-256.0","33PPO7FECW1GK6ZLEHHJA39O90GDID","A2P76QVLSGJR45","3R5LWXWHR0UE010DORDQUF3E2FPGXE","","<img src=""img/set1/S2.jpg"" width=""540"" height = ""360"">","null","","","","","","","",""
"null","","html-keyboard-response","328","164166","0.0-257.0","33PPO7FECW1GK6ZLEHHJA39O90GDID","A2P76QVLSGJR45","3R5LWXWHR0UE010DORDQUF3E2FPGXE","","","null","","","","","","","",""
"1088.465000037104","","image-keyboard-response","329","165256","0.0-258.0","33PPO7FECW1GK6ZLEHHJA39O90GDID","A2P76QVLSGJR45","3R5LWXWHR0UE010DORDQUF3E2FPGXE","","img/set1/S2.jpg","83","2","random","68","false","random,structured_incentive,structured_normal","1,2,2,3","",""
"null","","html-keyboard-response","330","165608","0.0-259.0","33PPO7FECW1GK6ZLEHHJA39O90GDID","A2P76QVLSGJR45","3R5LWXWHR0UE010DORDQUF3E2FPGXE","","<img src=""img/set1/S2.jpg"" width=""540"" height = ""360"">","null","","","","","","","",""
"null","","html-keyboard-response","331","165610","0.0-260.0","33PPO7FECW1GK6ZLEHHJA39O90GDID","A2P76QVLSGJR45","3R5LWXWHR0UE010DORDQUF3E2FPGXE","","","null","","","","","","","",""
"588.0550001747906","","image-keyboard-response","332","166200","0.0-261.0","33PPO7FECW1GK6ZLEHHJA39O90GDID","A2P76QVLSGJR45","3R5LWXWHR0UE010DORDQUF3E2FPGXE","","img/set1/S2.jpg","68","2","random","68","true","random,structured_incentive,structured_normal","1,2,2,3","",""
"null","","html-keyboard-response","333","166553","0.0-262.0","33PPO7FECW1GK6ZLEHHJA39O90GDID","A2P76QVLSGJR45","3R5LWXWHR0UE010DORDQUF3E2FPGXE","","<img src=""img/set1/S2.jpg"" width=""540"" height = ""360"" style=""border:16px solid orange"">","null","","","","","","","",""
"null","","html-keyboard-response","334","166556","0.0-263.0","33PPO7FECW1GK6ZLEHHJA39O90GDID","A2P76QVLSGJR45","3R5LWXWHR0UE010DORDQUF3E2FPGXE","","","null","","","","","","","",""
"384.8149999976158","","image-keyboard-response","335","166943","0.0-264.0","33PPO7FECW1GK6ZLEHHJA39O90GDID","A2P76QVLSGJR45","3R5LWXWHR0UE010DORDQUF3E2FPGXE","","img/set1/S2.jpg","68","2","random","68","true","random,structured_incentive,structured_normal","1,2,2,3","",""
"null","","html-keyboard-response","336","167295","0.0-265.0","33PPO7FECW1GK6ZLEHHJA39O90GDID","A2P76QVLSGJR45","3R5LWXWHR0UE010DORDQUF3E2FPGXE","","<img src=""img/set1/S2.jpg"" width=""540"" height = ""360"" style=""border:16px solid orange"">","null","","","","","","","",""
"null","","html-keyboard-response","337","167299","0.0-266.0","33PPO7FECW1GK6ZLEHHJA39O90GDID","A2P76QVLSGJR45","3R5LWXWHR0UE010DORDQUF3E2FPGXE","","","null","","","","","","","",""
"626.2550000101328","","image-keyboard-response","338","167927","0.0-267.0","33PPO7FECW1GK6ZLEHHJA39O90GDID","A2P76QVLSGJR45","3R5LWXWHR0UE010DORDQUF3E2FPGXE","","img/set1/S3.jpg","72","3","random","72","true","random,structured_incentive,structured_normal","1,2,2,3","",""
"null","","html-keyboard-response","339","168280","0.0-268.0","33PPO7FECW1GK6ZLEHHJA39O90GDID","A2P76QVLSGJR45","3R5LWXWHR0UE010DORDQUF3E2FPGXE","","<img src=""img/set1/S3.jpg"" width=""540"" height = ""360"" style=""border:16px solid orange"">","null","","","","","","","",""
"null","","html-keyboard-response","340","168283","0.0-269.0","33PPO7FECW1GK6ZLEHHJA39O90GDID","A2P76QVLSGJR45","3R5LWXWHR0UE010DORDQUF3E2FPGXE","","","null","","","","","","","",""
"722.4849998019636","","image-keyboard-response","341","169006","0.0-270.0","33PPO7FECW1GK6ZLEHHJA39O90GDID","A2P76QVLSGJR45","3R5LWXWHR0UE010DORDQUF3E2FPGXE","","img/set1/S1.jpg","83","1","random","83","true","random,structured_incentive,structured_normal","1,2,2,3","",""
"null","","html-keyboard-response","342","169358","0.0-271.0","33PPO7FECW1GK6ZLEHHJA39O90GDID","A2P76QVLSGJR45","3R5LWXWHR0UE010DORDQUF3E2FPGXE","","<img src=""img/set1/S1.jpg"" width=""540"" height = ""360"" style=""border:16px solid orange"">","null","","","","","","","",""
"null","","html-keyboard-response","343","169361","0.0-272.0","33PPO7FECW1GK6ZLEHHJA39O90GDID","A2P76QVLSGJR45","3R5LWXWHR0UE010DORDQUF3E2FPGXE","","","null","","","","","","","",""
"813.7900000438094","","image-keyboard-response","344","170176","0.0-273.0","33PPO7FECW1GK6ZLEHHJA39O90GDID","A2P76QVLSGJR45","3R5LWXWHR0UE010DORDQUF3E2FPGXE","","img/set1/S2.jpg","68","2","random","68","true","random,structured_incentive,structured_normal","1,2,2,3","",""
"null","","html-keyboard-response","345","170530","0.0-274.0","33PPO7FECW1GK6ZLEHHJA39O90GDID","A2P76QVLSGJR45","3R5LWXWHR0UE010DORDQUF3E2FPGXE","","<img src=""img/set1/S2.jpg"" width=""540"" height = ""360"" style=""border:16px solid orange"">","null","","","","","","","",""
"null","","html-keyboard-response","346","170533","0.0-275.0","33PPO7FECW1GK6ZLEHHJA39O90GDID","A2P76QVLSGJR45","3R5LWXWHR0UE010DORDQUF3E2FPGXE","","","null","","","","","","","",""
"805.6499999947846","","image-keyboard-response","347","171342","0.0-276.0","33PPO7FECW1GK6ZLEHHJA39O90GDID","A2P76QVLSGJR45","3R5LWXWHR0UE010DORDQUF3E2FPGXE","","img/set1/S3.jpg","72","3","random","72","true","random,structured_incentive,structured_normal","1,2,2,3","",""
"null","","html-keyboard-response","348","171695","0.0-277.0","33PPO7FECW1GK6ZLEHHJA39O90GDID","A2P76QVLSGJR45","3R5LWXWHR0UE010DORDQUF3E2FPGXE","","<img src=""img/set1/S3.jpg"" width=""540"" height = ""360"" style=""border:16px solid orange"">","null","","","","","","","",""
"null","","html-keyboard-response","349","171697","0.0-278.0","33PPO7FECW1GK6ZLEHHJA39O90GDID","A2P76QVLSGJR45","3R5LWXWHR0UE010DORDQUF3E2FPGXE","","","null","","","","","","","",""
"739.6599999628961","","image-keyboard-response","350","172437","0.0-279.0","33PPO7FECW1GK6ZLEHHJA39O90GDID","A2P76QVLSGJR45","3R5LWXWHR0UE010DORDQUF3E2FPGXE","","img/set1/S1.jpg","83","1","random","83","true","random,structured_incentive,structured_normal","1,2,2,3","",""
"null","","html-keyboard-response","351","172790","0.0-280.0","33PPO7FECW1GK6ZLEHHJA39O90GDID","A2P76QVLSGJR45","3R5LWXWHR0UE010DORDQUF3E2FPGXE","","<img src=""img/set1/S1.jpg"" width=""540"" height = ""360"" style=""border:16px solid orange"">","null","","","","","","","",""
"null","","html-keyboard-response","352","172792","0.0-281.0","33PPO7FECW1GK6ZLEHHJA39O90GDID","A2P76QVLSGJR45","3R5LWXWHR0UE010DORDQUF3E2FPGXE","","","null","","","","","","","",""
"773.4699998982251","","image-keyboard-response","353","173567","0.0-282.0","33PPO7FECW1GK6ZLEHHJA39O90GDID","A2P76QVLSGJR45","3R5LWXWHR0UE010DORDQUF3E2FPGXE","","img/set1/S4.jpg","74","4","random","74","true","random,structured_incentive,structured_normal","1,2,2,3","",""
"null","","html-keyboard-response","354","173922","0.0-283.0","33PPO7FECW1GK6ZLEHHJA39O90GDID","A2P76QVLSGJR45","3R5LWXWHR0UE010DORDQUF3E2FPGXE","","<img src=""img/set1/S4.jpg"" width=""540"" height = ""360"" style=""border:16px solid orange"">","null","","","","","","","",""
"null","","html-keyboard-response","355","173925","0.0-284.0","33PPO7FECW1GK6ZLEHHJA39O90GDID","A2P76QVLSGJR45","3R5LWXWHR0UE010DORDQUF3E2FPGXE","","","null","","","","","","","",""
"939.7350000217557","","image-keyboard-response","356","174866","0.0-285.0","33PPO7FECW1GK6ZLEHHJA39O90GDID","A2P76QVLSGJR45","3R5LWXWHR0UE010DORDQUF3E2FPGXE","","img/set1/S1.jpg","83","1","random","83","true","random,structured_incentive,structured_normal","1,2,2,3","",""
"null","","html-keyboard-response","357","175221","0.0-286.0","33PPO7FECW1GK6ZLEHHJA39O90GDID","A2P76QVLSGJR45","3R5LWXWHR0UE010DORDQUF3E2FPGXE","","<img src=""img/set1/S1.jpg"" width=""540"" height = ""360"" style=""border:16px solid orange"">","null","","","","","","","",""
"null","","html-keyboard-response","358","175224","0.0-287.0","33PPO7FECW1GK6ZLEHHJA39O90GDID","A2P76QVLSGJR45","3R5LWXWHR0UE010DORDQUF3E2FPGXE","","","null","","","","","","","",""
"810.6100000441074","","image-keyboard-response","359","176036","0.0-288.0","33PPO7FECW1GK6ZLEHHJA39O90GDID","A2P76QVLSGJR45","3R5LWXWHR0UE010DORDQUF3E2FPGXE","","img/set1/S2.jpg","68","2","random","68","true","random,structured_incentive,structured_normal","1,2,2,3","",""
"null","","html-keyboard-response","360","176389","0.0-289.0","33PPO7FECW1GK6ZLEHHJA39O90GDID","A2P76QVLSGJR45","3R5LWXWHR0UE010DORDQUF3E2FPGXE","","<img src=""img/set1/S2.jpg"" width=""540"" height = ""360"" style=""border:16px solid orange"">","null","","","","","","","",""
"null","","html-keyboard-response","361","176391","0.0-290.0","33PPO7FECW1GK6ZLEHHJA39O90GDID","A2P76QVLSGJR45","3R5LWXWHR0UE010DORDQUF3E2FPGXE","","","null","","","","","","","",""
"930.3050001617521","","image-keyboard-response","362","177323","0.0-291.0","33PPO7FECW1GK6ZLEHHJA39O90GDID","A2P76QVLSGJR45","3R5LWXWHR0UE010DORDQUF3E2FPGXE","","img/set1/S1.jpg","83","1","random","83","true","random,structured_incentive,structured_normal","1,2,2,3","",""
"null","","html-keyboard-response","363","177676","0.0-292.0","33PPO7FECW1GK6ZLEHHJA39O90GDID","A2P76QVLSGJR45","3R5LWXWHR0UE010DORDQUF3E2FPGXE","","<img src=""img/set1/S1.jpg"" width=""540"" height = ""360"" style=""border:16px solid orange"">","null","","","","","","","",""
"null","","html-keyboard-response","364","177679","0.0-293.0","33PPO7FECW1GK6ZLEHHJA39O90GDID","A2P76QVLSGJR45","3R5LWXWHR0UE010DORDQUF3E2FPGXE","","","null","","","","","","","",""
"622.1700001042336","","image-keyboard-response","365","178303","0.0-294.0","33PPO7FECW1GK6ZLEHHJA39O90GDID","A2P76QVLSGJR45","3R5LWXWHR0UE010DORDQUF3E2FPGXE","","img/set1/S2.jpg","68","2","random","68","true","random,structured_incentive,structured_normal","1,2,2,3","",""
"null","","html-keyboard-response","366","178657","0.0-295.0","33PPO7FECW1GK6ZLEHHJA39O90GDID","A2P76QVLSGJR45","3R5LWXWHR0UE010DORDQUF3E2FPGXE","","<img src=""img/set1/S2.jpg"" width=""540"" height = ""360"" style=""border:16px solid orange"">","null","","","","","","","",""
"null","","html-keyboard-response","367","178660","0.0-296.0","33PPO7FECW1GK6ZLEHHJA39O90GDID","A2P76QVLSGJR45","3R5LWXWHR0UE010DORDQUF3E2FPGXE","","","null","","","","","","","",""
"932.0050000678748","","image-keyboard-response","368","179594","0.0-297.0","33PPO7FECW1GK6ZLEHHJA39O90GDID","A2P76QVLSGJR45","3R5LWXWHR0UE010DORDQUF3E2FPGXE","","img/set1/S4.jpg","72","4","random","74","false","random,structured_incentive,structured_normal","1,2,2,3","",""
"null","","html-keyboard-response","369","179947","0.0-298.0","33PPO7FECW1GK6ZLEHHJA39O90GDID","A2P76QVLSGJR45","3R5LWXWHR0UE010DORDQUF3E2FPGXE","","<img src=""img/set1/S4.jpg"" width=""540"" height = ""360"">","null","","","","","","","",""
"null","","html-keyboard-response","370","179949","0.0-299.0","33PPO7FECW1GK6ZLEHHJA39O90GDID","A2P76QVLSGJR45","3R5LWXWHR0UE010DORDQUF3E2FPGXE","","","null","","","","","","","",""
"65.11999992653728","","image-keyboard-response","371","180016","0.0-300.0","33PPO7FECW1GK6ZLEHHJA39O90GDID","A2P76QVLSGJR45","3R5LWXWHR0UE010DORDQUF3E2FPGXE","","img/set1/S3.jpg","74","3","random","72","false","random,structured_incentive,structured_normal","1,2,2,3","",""
"null","","html-keyboard-response","372","180370","0.0-301.0","33PPO7FECW1GK6ZLEHHJA39O90GDID","A2P76QVLSGJR45","3R5LWXWHR0UE010DORDQUF3E2FPGXE","","<img src=""img/set1/S3.jpg"" width=""540"" height = ""360"">","null","","","","","","","",""
"null","","html-keyboard-response","373","180372","0.0-302.0","33PPO7FECW1GK6ZLEHHJA39O90GDID","A2P76QVLSGJR45","3R5LWXWHR0UE010DORDQUF3E2FPGXE","","","null","","","","","","","",""
"790.6149998307228","","image-keyboard-response","374","181165","0.0-303.0","33PPO7FECW1GK6ZLEHHJA39O90GDID","A2P76QVLSGJR45","3R5LWXWHR0UE010DORDQUF3E2FPGXE","","img/set1/S1.jpg","74","1","random","83","false","random,structured_incentive,structured_normal","1,2,2,3","",""
"null","","html-keyboard-response","375","181520","0.0-304.0","33PPO7FECW1GK6ZLEHHJA39O90GDID","A2P76QVLSGJR45","3R5LWXWHR0UE010DORDQUF3E2FPGXE","","<img src=""img/set1/S1.jpg"" width=""540"" height = ""360"">","null","","","","","","","",""
"null","","html-keyboard-response","376","181522","0.0-305.0","33PPO7FECW1GK6ZLEHHJA39O90GDID","A2P76QVLSGJR45","3R5LWXWHR0UE010DORDQUF3E2FPGXE","","","null","","","","","","","",""
"543.7600000295788","","image-keyboard-response","377","182068","0.0-306.0","33PPO7FECW1GK6ZLEHHJA39O90GDID","A2P76QVLSGJR45","3R5LWXWHR0UE010DORDQUF3E2FPGXE","","img/set1/S1.jpg","83","1","random","83","true","random,structured_incentive,structured_normal","1,2,2,3","",""
"null","","html-keyboard-response","378","182421","0.0-307.0","33PPO7FECW1GK6ZLEHHJA39O90GDID","A2P76QVLSGJR45","3R5LWXWHR0UE010DORDQUF3E2FPGXE","","<img src=""img/set1/S1.jpg"" width=""540"" height = ""360"" style=""border:16px solid orange"">","null","","","","","","","",""
"null","","html-keyboard-response","379","182424","0.0-308.0","33PPO7FECW1GK6ZLEHHJA39O90GDID","A2P76QVLSGJR45","3R5LWXWHR0UE010DORDQUF3E2FPGXE","","","null","","","","","","","",""
"473.2850000727922","","image-keyboard-response","380","182899","0.0-309.0","33PPO7FECW1GK6ZLEHHJA39O90GDID","A2P76QVLSGJR45","3R5LWXWHR0UE010DORDQUF3E2FPGXE","","img/set1/S1.jpg","83","1","random","83","true","random,structured_incentive,structured_normal","1,2,2,3","",""
"null","","html-keyboard-response","381","183253","0.0-310.0","33PPO7FECW1GK6ZLEHHJA39O90GDID","A2P76QVLSGJR45","3R5LWXWHR0UE010DORDQUF3E2FPGXE","","<img src=""img/set1/S1.jpg"" width=""540"" height = ""360"" style=""border:16px solid orange"">","null","","","","","","","",""
"null","","html-keyboard-response","382","183256","0.0-311.0","33PPO7FECW1GK6ZLEHHJA39O90GDID","A2P76QVLSGJR45","3R5LWXWHR0UE010DORDQUF3E2FPGXE","","","null","","","","","","","",""
"974.3999999482185","","image-keyboard-response","383","184231","0.0-312.0","33PPO7FECW1GK6ZLEHHJA39O90GDID","A2P76QVLSGJR45","3R5LWXWHR0UE010DORDQUF3E2FPGXE","","img/set1/S4.jpg","72","4","random","74","false","random,structured_incentive,structured_normal","1,2,2,3","",""
"null","","html-keyboard-response","384","184583","0.0-313.0","33PPO7FECW1GK6ZLEHHJA39O90GDID","A2P76QVLSGJR45","3R5LWXWHR0UE010DORDQUF3E2FPGXE","","<img src=""img/set1/S4.jpg"" width=""540"" height = ""360"">","null","","","","","","","",""
"null","","html-keyboard-response","385","184586","0.0-314.0","33PPO7FECW1GK6ZLEHHJA39O90GDID","A2P76QVLSGJR45","3R5LWXWHR0UE010DORDQUF3E2FPGXE","","","null","","","","","","","",""
"13.690000167116523","","image-keyboard-response","386","184602","0.0-315.0","33PPO7FECW1GK6ZLEHHJA39O90GDID","A2P76QVLSGJR45","3R5LWXWHR0UE010DORDQUF3E2FPGXE","","img/set1/S2.jpg","74","2","random","68","false","random,structured_incentive,structured_normal","1,2,2,3","",""
"null","","html-keyboard-response","387","184959","0.0-316.0","33PPO7FECW1GK6ZLEHHJA39O90GDID","A2P76QVLSGJR45","3R5LWXWHR0UE010DORDQUF3E2FPGXE","","<img src=""img/set1/S2.jpg"" width=""540"" height = ""360"">","null","","","","","","","",""
"null","","html-keyboard-response","388","184961","0.0-317.0","33PPO7FECW1GK6ZLEHHJA39O90GDID","A2P76QVLSGJR45","3R5LWXWHR0UE010DORDQUF3E2FPGXE","","","null","","","","","","","",""
"772.3850000184029","","image-keyboard-response","389","185735","0.0-318.0","33PPO7FECW1GK6ZLEHHJA39O90GDID","A2P76QVLSGJR45","3R5LWXWHR0UE010DORDQUF3E2FPGXE","","img/set1/S2.jpg","68","2","random","68","true","random,structured_incentive,structured_normal","1,2,2,3","",""
"null","","html-keyboard-response","390","186087","0.0-319.0","33PPO7FECW1GK6ZLEHHJA39O90GDID","A2P76QVLSGJR45","3R5LWXWHR0UE010DORDQUF3E2FPGXE","","<img src=""img/set1/S2.jpg"" width=""540"" height = ""360"" style=""border:16px solid orange"">","null","","","","","","","",""
"null","","html-keyboard-response","391","186089","0.0-320.0","33PPO7FECW1GK6ZLEHHJA39O90GDID","A2P76QVLSGJR45","3R5LWXWHR0UE010DORDQUF3E2FPGXE","","","null","","","","","","","",""
"782.5149998534471","","image-keyboard-response","392","186873","0.0-321.0","33PPO7FECW1GK6ZLEHHJA39O90GDID","A2P76QVLSGJR45","3R5LWXWHR0UE010DORDQUF3E2FPGXE","","img/set1/S4.jpg","72","4","random","74","false","random,structured_incentive,structured_normal","1,2,2,3","",""
"null","","html-keyboard-response","393","187226","0.0-322.0","33PPO7FECW1GK6ZLEHHJA39O90GDID","A2P76QVLSGJR45","3R5LWXWHR0UE010DORDQUF3E2FPGXE","","<img src=""img/set1/S4.jpg"" width=""540"" height = ""360"">","null","","","","","","","",""
"null","","html-keyboard-response","394","187229","0.0-323.0","33PPO7FECW1GK6ZLEHHJA39O90GDID","A2P76QVLSGJR45","3R5LWXWHR0UE010DORDQUF3E2FPGXE","","","null","","","","","","","",""
"868.8300000503659","","image-keyboard-response","395","188100","0.0-324.0","33PPO7FECW1GK6ZLEHHJA39O90GDID","A2P76QVLSGJR45","3R5LWXWHR0UE010DORDQUF3E2FPGXE","","img/set1/S2.jpg","68","2","random","68","true","random,structured_incentive,structured_normal","1,2,2,3","",""
"null","","html-keyboard-response","396","188453","0.0-325.0","33PPO7FECW1GK6ZLEHHJA39O90GDID","A2P76QVLSGJR45","3R5LWXWHR0UE010DORDQUF3E2FPGXE","","<img src=""img/set1/S2.jpg"" width=""540"" height = ""360"" style=""border:16px solid orange"">","null","","","","","","","",""
"null","","html-keyboard-response","397","188458","0.0-326.0","33PPO7FECW1GK6ZLEHHJA39O90GDID","A2P76QVLSGJR45","3R5LWXWHR0UE010DORDQUF3E2FPGXE","","","null","","","","","","","",""
"716.7950000148267","","image-keyboard-response","398","189177","0.0-327.0","33PPO7FECW1GK6ZLEHHJA39O90GDID","A2P76QVLSGJR45","3R5LWXWHR0UE010DORDQUF3E2FPGXE","","img/set1/S2.jpg","68","2","random","68","true","random,structured_incentive,structured_normal","1,2,2,3","",""
"null","","html-keyboard-response","399","189529","0.0-328.0","33PPO7FECW1GK6ZLEHHJA39O90GDID","A2P76QVLSGJR45","3R5LWXWHR0UE010DORDQUF3E2FPGXE","","<img src=""img/set1/S2.jpg"" width=""540"" height = ""360"" style=""border:16px solid orange"">","null","","","","","","","",""
"null","","html-keyboard-response","400","189532","0.0-329.0","33PPO7FECW1GK6ZLEHHJA39O90GDID","A2P76QVLSGJR45","3R5LWXWHR0UE010DORDQUF3E2FPGXE","","","null","","","","","","","",""
"896.5700000990182","","image-keyboard-response","401","190431","0.0-330.0","33PPO7FECW1GK6ZLEHHJA39O90GDID","A2P76QVLSGJR45","3R5LWXWHR0UE010DORDQUF3E2FPGXE","","img/set1/S3.jpg","72","3","random","72","true","random,structured_incentive,structured_normal","1,2,2,3","",""
"null","","html-keyboard-response","402","190783","0.0-331.0","33PPO7FECW1GK6ZLEHHJA39O90GDID","A2P76QVLSGJR45","3R5LWXWHR0UE010DORDQUF3E2FPGXE","","<img src=""img/set1/S3.jpg"" width=""540"" height = ""360"" style=""border:16px solid orange"">","null","","","","","","","",""
"null","","html-keyboard-response","403","190786","0.0-332.0","33PPO7FECW1GK6ZLEHHJA39O90GDID","A2P76QVLSGJR45","3R5LWXWHR0UE010DORDQUF3E2FPGXE","","","null","","","","","","","",""
"846.4249998796731","","image-keyboard-response","404","191635","0.0-333.0","33PPO7FECW1GK6ZLEHHJA39O90GDID","A2P76QVLSGJR45","3R5LWXWHR0UE010DORDQUF3E2FPGXE","","img/set1/S4.jpg","74","4","random","74","true","random,structured_incentive,structured_normal","1,2,2,3","",""
"null","","html-keyboard-response","405","191990","0.0-334.0","33PPO7FECW1GK6ZLEHHJA39O90GDID","A2P76QVLSGJR45","3R5LWXWHR0UE010DORDQUF3E2FPGXE","","<img src=""img/set1/S4.jpg"" width=""540"" height = ""360"" style=""border:16px solid orange"">","null","","","","","","","",""
"null","","html-keyboard-response","406","191994","0.0-335.0","33PPO7FECW1GK6ZLEHHJA39O90GDID","A2P76QVLSGJR45","3R5LWXWHR0UE010DORDQUF3E2FPGXE","","","null","","","","","","","",""
"498.70500015094876","","image-keyboard-response","407","192494","0.0-336.0","33PPO7FECW1GK6ZLEHHJA39O90GDID","A2P76QVLSGJR45","3R5LWXWHR0UE010DORDQUF3E2FPGXE","","img/set1/S4.jpg","74","4","random","74","true","random,structured_incentive,structured_normal","1,2,2,3","",""
"null","","html-keyboard-response","408","192847","0.0-337.0","33PPO7FECW1GK6ZLEHHJA39O90GDID","A2P76QVLSGJR45","3R5LWXWHR0UE010DORDQUF3E2FPGXE","","<img src=""img/set1/S4.jpg"" width=""540"" height = ""360"" style=""border:16px solid orange"">","null","","","","","","","",""
"null","","html-keyboard-response","409","192850","0.0-338.0","33PPO7FECW1GK6ZLEHHJA39O90GDID","A2P76QVLSGJR45","3R5LWXWHR0UE010DORDQUF3E2FPGXE","","","null","","","","","","","",""
"770.9399999585003","","image-keyboard-response","410","193622","0.0-339.0","33PPO7FECW1GK6ZLEHHJA39O90GDID","A2P76QVLSGJR45","3R5LWXWHR0UE010DORDQUF3E2FPGXE","","img/set1/S1.jpg","83","1","random","83","true","random,structured_incentive,structured_normal","1,2,2,3","",""
"null","","html-keyboard-response","411","193975","0.0-340.0","33PPO7FECW1GK6ZLEHHJA39O90GDID","A2P76QVLSGJR45","3R5LWXWHR0UE010DORDQUF3E2FPGXE","","<img src=""img/set1/S1.jpg"" width=""540"" height = ""360"" style=""border:16px solid orange"">","null","","","","","","","",""
"null","","html-keyboard-response","412","193977","0.0-341.0","33PPO7FECW1GK6ZLEHHJA39O90GDID","A2P76QVLSGJR45","3R5LWXWHR0UE010DORDQUF3E2FPGXE","","","null","","","","","","","",""
"683.1000000238419","","image-keyboard-response","413","194662","0.0-342.0","33PPO7FECW1GK6ZLEHHJA39O90GDID","A2P76QVLSGJR45","3R5LWXWHR0UE010DORDQUF3E2FPGXE","","img/set1/S4.jpg","72","4","random","74","false","random,structured_incentive,structured_normal","1,2,2,3","",""
"null","","html-keyboard-response","414","195016","0.0-343.0","33PPO7FECW1GK6ZLEHHJA39O90GDID","A2P76QVLSGJR45","3R5LWXWHR0UE010DORDQUF3E2FPGXE","","<img src=""img/set1/S4.jpg"" width=""540"" height = ""360"">","null","","","","","","","",""
"null","","html-keyboard-response","415","195019","0.0-344.0","33PPO7FECW1GK6ZLEHHJA39O90GDID","A2P76QVLSGJR45","3R5LWXWHR0UE010DORDQUF3E2FPGXE","","","null","","","","","","","",""
"660.6550000142306","","image-keyboard-response","416","195681","0.0-345.0","33PPO7FECW1GK6ZLEHHJA39O90GDID","A2P76QVLSGJR45","3R5LWXWHR0UE010DORDQUF3E2FPGXE","","img/set1/S3.jpg","72","3","random","72","true","random,structured_incentive,structured_normal","1,2,2,3","",""
