"rt","url","trial_type","trial_index","time_elapsed","internal_node_id","assignmentID","mturkID","hitID","view_history","stimulus","key_press","state","test_part","correct_response","correct","order_block","order_chunk","bonus","responses"
"214971.6000000015","consent.html","external-html","0","215037","0.0-0.0","3MTMREQS4W40NUGEJOUWLTAQ38GWA0","A2T675UCHNTSSW","3DFYDSXB2WMWAZWJRSN67LWQ0PPJUT","","","","","","","","","","",""
"215515.5","","instructions","1","430554","0.0-1.0","3MTMREQS4W40NUGEJOUWLTAQ38GWA0","A2T675UCHNTSSW","3DFYDSXB2WMWAZWJRSN67LWQ0PPJUT","[{""page_index"":0,""viewing_time"":11434.800000000745},{""page_index"":1,""viewing_time"":14951.89999999851},{""page_index"":2,""viewing_time"":40223.800000000745},{""page_index"":3,""viewing_time"":30464.199999999255},{""page_index"":4,""viewing_time"":21416},{""page_index"":5,""viewing_time"":32383.60000000149},{""page_index"":6,""viewing_time"":16640},{""page_index"":7,""viewing_time"":47999.89999999851}]","","","","","","","","","",""
"null","","image-keyboard-response","2","433058","0.0-2.0-0.0","3MTMREQS4W40NUGEJOUWLTAQ38GWA0","A2T675UCHNTSSW","3DFYDSXB2WMWAZWJRSN67LWQ0PPJUT","","img/practice/S3.jpg","null","3","practice","72","false","","","",""
"null","","html-keyboard-response","3","433362","0.0-2.0-1.0","3MTMREQS4W40NUGEJOUWLTAQ38GWA0","A2T675UCHNTSSW","3DFYDSXB2WMWAZWJRSN67LWQ0PPJUT","","<img src=""img/practice/S3.jpg"" width=""540"" height = ""360"">","null","","","","","","","",""
"null","","html-keyboard-response","4","433365","0.0-2.0-2.0","3MTMREQS4W40NUGEJOUWLTAQ38GWA0","A2T675UCHNTSSW","3DFYDSXB2WMWAZWJRSN67LWQ0PPJUT","","","null","","","","","","","",""
"782.8000000007451","","image-keyboard-response","5","434150","0.0-2.0-0.1","3MTMREQS4W40NUGEJOUWLTAQ38GWA0","A2T675UCHNTSSW","3DFYDSXB2WMWAZWJRSN67LWQ0PPJUT","","img/practice/S4.jpg","83","4","practice","74","false","","","",""
"null","","html-keyboard-response","6","434453","0.0-2.0-1.1","3MTMREQS4W40NUGEJOUWLTAQ38GWA0","A2T675UCHNTSSW","3DFYDSXB2WMWAZWJRSN67LWQ0PPJUT","","<img src=""img/practice/S4.jpg"" width=""540"" height = ""360"">","null","","","","","","","",""
"null","","html-keyboard-response","7","434457","0.0-2.0-2.1","3MTMREQS4W40NUGEJOUWLTAQ38GWA0","A2T675UCHNTSSW","3DFYDSXB2WMWAZWJRSN67LWQ0PPJUT","","","null","","","","","","","",""
"371.80000000074506","","image-keyboard-response","8","434831","0.0-2.0-0.2","3MTMREQS4W40NUGEJOUWLTAQ38GWA0","A2T675UCHNTSSW","3DFYDSXB2WMWAZWJRSN67LWQ0PPJUT","","img/practice/S1.jpg","74","1","practice","83","false","","","",""
"null","","html-keyboard-response","9","435138","0.0-2.0-1.2","3MTMREQS4W40NUGEJOUWLTAQ38GWA0","A2T675UCHNTSSW","3DFYDSXB2WMWAZWJRSN67LWQ0PPJUT","","<img src=""img/practice/S1.jpg"" width=""540"" height = ""360"">","null","","","","","","","",""
"null","","html-keyboard-response","10","435163","0.0-2.0-2.2","3MTMREQS4W40NUGEJOUWLTAQ38GWA0","A2T675UCHNTSSW","3DFYDSXB2WMWAZWJRSN67LWQ0PPJUT","","","null","","","","","","","",""
"1267.0999999977648","","image-keyboard-response","11","436432","0.0-2.0-0.3","3MTMREQS4W40NUGEJOUWLTAQ38GWA0","A2T675UCHNTSSW","3DFYDSXB2WMWAZWJRSN67LWQ0PPJUT","","img/practice/S2.jpg","83","2","practice","68","false","","","",""
"null","","html-keyboard-response","12","436735","0.0-2.0-1.3","3MTMREQS4W40NUGEJOUWLTAQ38GWA0","A2T675UCHNTSSW","3DFYDSXB2WMWAZWJRSN67LWQ0PPJUT","","<img src=""img/practice/S2.jpg"" width=""540"" height = ""360"">","null","","","","","","","",""
"null","","html-keyboard-response","13","436753","0.0-2.0-2.3","3MTMREQS4W40NUGEJOUWLTAQ38GWA0","A2T675UCHNTSSW","3DFYDSXB2WMWAZWJRSN67LWQ0PPJUT","","","null","","","","","","","",""
"807.8999999985099","","image-keyboard-response","14","437563","0.0-2.0-0.4","3MTMREQS4W40NUGEJOUWLTAQ38GWA0","A2T675UCHNTSSW","3DFYDSXB2WMWAZWJRSN67LWQ0PPJUT","","img/practice/S2.jpg","68","2","practice","68","true","","","",""
"null","","html-keyboard-response","15","437868","0.0-2.0-1.4","3MTMREQS4W40NUGEJOUWLTAQ38GWA0","A2T675UCHNTSSW","3DFYDSXB2WMWAZWJRSN67LWQ0PPJUT","","<img src=""img/practice/S2.jpg"" width=""540"" height = ""360"" style=""border:16px solid orange"">","null","","","","","","","",""
"null","","html-keyboard-response","16","437872","0.0-2.0-2.4","3MTMREQS4W40NUGEJOUWLTAQ38GWA0","A2T675UCHNTSSW","3DFYDSXB2WMWAZWJRSN67LWQ0PPJUT","","","null","","","","","","","",""
"558.9000000022352","","image-keyboard-response","17","438432","0.0-2.0-0.5","3MTMREQS4W40NUGEJOUWLTAQ38GWA0","A2T675UCHNTSSW","3DFYDSXB2WMWAZWJRSN67LWQ0PPJUT","","img/practice/S1.jpg","74","1","practice","83","false","","","",""
"null","","html-keyboard-response","18","438736","0.0-2.0-1.5","3MTMREQS4W40NUGEJOUWLTAQ38GWA0","A2T675UCHNTSSW","3DFYDSXB2WMWAZWJRSN67LWQ0PPJUT","","<img src=""img/practice/S1.jpg"" width=""540"" height = ""360"">","null","","","","","","","",""
"null","","html-keyboard-response","19","438738","0.0-2.0-2.5","3MTMREQS4W40NUGEJOUWLTAQ38GWA0","A2T675UCHNTSSW","3DFYDSXB2WMWAZWJRSN67LWQ0PPJUT","","","null","","","","","","","",""
"567.3000000007451","","image-keyboard-response","20","439307","0.0-2.0-0.6","3MTMREQS4W40NUGEJOUWLTAQ38GWA0","A2T675UCHNTSSW","3DFYDSXB2WMWAZWJRSN67LWQ0PPJUT","","img/practice/S4.jpg","74","4","practice","74","true","","","",""
"null","","html-keyboard-response","21","439609","0.0-2.0-1.6","3MTMREQS4W40NUGEJOUWLTAQ38GWA0","A2T675UCHNTSSW","3DFYDSXB2WMWAZWJRSN67LWQ0PPJUT","","<img src=""img/practice/S4.jpg"" width=""540"" height = ""360"" style=""border:16px solid orange"">","null","","","","","","","",""
"null","","html-keyboard-response","22","439611","0.0-2.0-2.6","3MTMREQS4W40NUGEJOUWLTAQ38GWA0","A2T675UCHNTSSW","3DFYDSXB2WMWAZWJRSN67LWQ0PPJUT","","","null","","","","","","","",""
"2258.10000000149","","image-keyboard-response","23","441872","0.0-2.0-0.7","3MTMREQS4W40NUGEJOUWLTAQ38GWA0","A2T675UCHNTSSW","3DFYDSXB2WMWAZWJRSN67LWQ0PPJUT","","img/practice/S3.jpg","83","3","practice","72","false","","","",""
"null","","html-keyboard-response","24","442188","0.0-2.0-1.7","3MTMREQS4W40NUGEJOUWLTAQ38GWA0","A2T675UCHNTSSW","3DFYDSXB2WMWAZWJRSN67LWQ0PPJUT","","<img src=""img/practice/S3.jpg"" width=""540"" height = ""360"">","null","","","","","","","",""
"null","","html-keyboard-response","25","442192","0.0-2.0-2.7","3MTMREQS4W40NUGEJOUWLTAQ38GWA0","A2T675UCHNTSSW","3DFYDSXB2WMWAZWJRSN67LWQ0PPJUT","","","null","","","","","","","",""
"1323","","image-keyboard-response","26","443517","0.0-2.0-0.8","3MTMREQS4W40NUGEJOUWLTAQ38GWA0","A2T675UCHNTSSW","3DFYDSXB2WMWAZWJRSN67LWQ0PPJUT","","img/practice/S1.jpg","83","1","practice","83","true","","","",""
"null","","html-keyboard-response","27","443819","0.0-2.0-1.8","3MTMREQS4W40NUGEJOUWLTAQ38GWA0","A2T675UCHNTSSW","3DFYDSXB2WMWAZWJRSN67LWQ0PPJUT","","<img src=""img/practice/S1.jpg"" width=""540"" height = ""360"" style=""border:16px solid orange"">","null","","","","","","","",""
"null","","html-keyboard-response","28","443821","0.0-2.0-2.8","3MTMREQS4W40NUGEJOUWLTAQ38GWA0","A2T675UCHNTSSW","3DFYDSXB2WMWAZWJRSN67LWQ0PPJUT","","","null","","","","","","","",""
"1046.5","","image-keyboard-response","29","444870","0.0-2.0-0.9","3MTMREQS4W40NUGEJOUWLTAQ38GWA0","A2T675UCHNTSSW","3DFYDSXB2WMWAZWJRSN67LWQ0PPJUT","","img/practice/S3.jpg","68","3","practice","72","false","","","",""
"null","","html-keyboard-response","30","445172","0.0-2.0-1.9","3MTMREQS4W40NUGEJOUWLTAQ38GWA0","A2T675UCHNTSSW","3DFYDSXB2WMWAZWJRSN67LWQ0PPJUT","","<img src=""img/practice/S3.jpg"" width=""540"" height = ""360"">","null","","","","","","","",""
"null","","html-keyboard-response","31","445174","0.0-2.0-2.9","3MTMREQS4W40NUGEJOUWLTAQ38GWA0","A2T675UCHNTSSW","3DFYDSXB2WMWAZWJRSN67LWQ0PPJUT","","","null","","","","","","","",""
"241.80000000074506","","image-keyboard-response","32","445418","0.0-2.0-0.10","3MTMREQS4W40NUGEJOUWLTAQ38GWA0","A2T675UCHNTSSW","3DFYDSXB2WMWAZWJRSN67LWQ0PPJUT","","img/practice/S2.jpg","74","2","practice","68","false","","","",""
"null","","html-keyboard-response","33","445721","0.0-2.0-1.10","3MTMREQS4W40NUGEJOUWLTAQ38GWA0","A2T675UCHNTSSW","3DFYDSXB2WMWAZWJRSN67LWQ0PPJUT","","<img src=""img/practice/S2.jpg"" width=""540"" height = ""360"">","null","","","","","","","",""
"null","","html-keyboard-response","34","445724","0.0-2.0-2.10","3MTMREQS4W40NUGEJOUWLTAQ38GWA0","A2T675UCHNTSSW","3DFYDSXB2WMWAZWJRSN67LWQ0PPJUT","","","null","","","","","","","",""
"1636.8999999985099","","image-keyboard-response","35","447362","0.0-2.0-0.11","3MTMREQS4W40NUGEJOUWLTAQ38GWA0","A2T675UCHNTSSW","3DFYDSXB2WMWAZWJRSN67LWQ0PPJUT","","img/practice/S4.jpg","83","4","practice","74","false","","","",""
"null","","html-keyboard-response","36","447665","0.0-2.0-1.11","3MTMREQS4W40NUGEJOUWLTAQ38GWA0","A2T675UCHNTSSW","3DFYDSXB2WMWAZWJRSN67LWQ0PPJUT","","<img src=""img/practice/S4.jpg"" width=""540"" height = ""360"">","null","","","","","","","",""
"null","","html-keyboard-response","37","447667","0.0-2.0-2.11","3MTMREQS4W40NUGEJOUWLTAQ38GWA0","A2T675UCHNTSSW","3DFYDSXB2WMWAZWJRSN67LWQ0PPJUT","","","null","","","","","","","",""
"1155","","image-keyboard-response","38","448824","0.0-2.0-0.12","3MTMREQS4W40NUGEJOUWLTAQ38GWA0","A2T675UCHNTSSW","3DFYDSXB2WMWAZWJRSN67LWQ0PPJUT","","img/practice/S3.jpg","68","3","practice","72","false","","","",""
"null","","html-keyboard-response","39","449126","0.0-2.0-1.12","3MTMREQS4W40NUGEJOUWLTAQ38GWA0","A2T675UCHNTSSW","3DFYDSXB2WMWAZWJRSN67LWQ0PPJUT","","<img src=""img/practice/S3.jpg"" width=""540"" height = ""360"">","null","","","","","","","",""
"null","","html-keyboard-response","40","449129","0.0-2.0-2.12","3MTMREQS4W40NUGEJOUWLTAQ38GWA0","A2T675UCHNTSSW","3DFYDSXB2WMWAZWJRSN67LWQ0PPJUT","","","null","","","","","","","",""
"524.1000000014901","","image-keyboard-response","41","449655","0.0-2.0-0.13","3MTMREQS4W40NUGEJOUWLTAQ38GWA0","A2T675UCHNTSSW","3DFYDSXB2WMWAZWJRSN67LWQ0PPJUT","","img/practice/S2.jpg","74","2","practice","68","false","","","",""
"null","","html-keyboard-response","42","449957","0.0-2.0-1.13","3MTMREQS4W40NUGEJOUWLTAQ38GWA0","A2T675UCHNTSSW","3DFYDSXB2WMWAZWJRSN67LWQ0PPJUT","","<img src=""img/practice/S2.jpg"" width=""540"" height = ""360"">","null","","","","","","","",""
"null","","html-keyboard-response","43","449965","0.0-2.0-2.13","3MTMREQS4W40NUGEJOUWLTAQ38GWA0","A2T675UCHNTSSW","3DFYDSXB2WMWAZWJRSN67LWQ0PPJUT","","","null","","","","","","","",""
"803.6999999992549","","image-keyboard-response","44","450771","0.0-2.0-0.14","3MTMREQS4W40NUGEJOUWLTAQ38GWA0","A2T675UCHNTSSW","3DFYDSXB2WMWAZWJRSN67LWQ0PPJUT","","img/practice/S4.jpg","74","4","practice","74","true","","","",""
"null","","html-keyboard-response","45","451073","0.0-2.0-1.14","3MTMREQS4W40NUGEJOUWLTAQ38GWA0","A2T675UCHNTSSW","3DFYDSXB2WMWAZWJRSN67LWQ0PPJUT","","<img src=""img/practice/S4.jpg"" width=""540"" height = ""360"" style=""border:16px solid orange"">","null","","","","","","","",""
"null","","html-keyboard-response","46","451076","0.0-2.0-2.14","3MTMREQS4W40NUGEJOUWLTAQ38GWA0","A2T675UCHNTSSW","3DFYDSXB2WMWAZWJRSN67LWQ0PPJUT","","","null","","","","","","","",""
"1259.300000000745","","image-keyboard-response","47","452336","0.0-2.0-0.15","3MTMREQS4W40NUGEJOUWLTAQ38GWA0","A2T675UCHNTSSW","3DFYDSXB2WMWAZWJRSN67LWQ0PPJUT","","img/practice/S1.jpg","74","1","practice","83","false","","","",""
"null","","html-keyboard-response","48","452638","0.0-2.0-1.15","3MTMREQS4W40NUGEJOUWLTAQ38GWA0","A2T675UCHNTSSW","3DFYDSXB2WMWAZWJRSN67LWQ0PPJUT","","<img src=""img/practice/S1.jpg"" width=""540"" height = ""360"">","null","","","","","","","",""
"null","","html-keyboard-response","49","452641","0.0-2.0-2.15","3MTMREQS4W40NUGEJOUWLTAQ38GWA0","A2T675UCHNTSSW","3DFYDSXB2WMWAZWJRSN67LWQ0PPJUT","","","null","","","","","","","",""
"839.6999999992549","","image-keyboard-response","50","453483","0.0-2.0-0.16","3MTMREQS4W40NUGEJOUWLTAQ38GWA0","A2T675UCHNTSSW","3DFYDSXB2WMWAZWJRSN67LWQ0PPJUT","","img/practice/S3.jpg","74","3","practice","72","false","","","",""
"null","","html-keyboard-response","51","453786","0.0-2.0-1.16","3MTMREQS4W40NUGEJOUWLTAQ38GWA0","A2T675UCHNTSSW","3DFYDSXB2WMWAZWJRSN67LWQ0PPJUT","","<img src=""img/practice/S3.jpg"" width=""540"" height = ""360"">","null","","","","","","","",""
"null","","html-keyboard-response","52","453816","0.0-2.0-2.16","3MTMREQS4W40NUGEJOUWLTAQ38GWA0","A2T675UCHNTSSW","3DFYDSXB2WMWAZWJRSN67LWQ0PPJUT","","","null","","","","","","","",""
"1270.1000000014901","","image-keyboard-response","53","455088","0.0-2.0-0.17","3MTMREQS4W40NUGEJOUWLTAQ38GWA0","A2T675UCHNTSSW","3DFYDSXB2WMWAZWJRSN67LWQ0PPJUT","","img/practice/S1.jpg","83","1","practice","83","true","","","",""
"null","","html-keyboard-response","54","455392","0.0-2.0-1.17","3MTMREQS4W40NUGEJOUWLTAQ38GWA0","A2T675UCHNTSSW","3DFYDSXB2WMWAZWJRSN67LWQ0PPJUT","","<img src=""img/practice/S1.jpg"" width=""540"" height = ""360"" style=""border:16px solid orange"">","null","","","","","","","",""
"null","","html-keyboard-response","55","455395","0.0-2.0-2.17","3MTMREQS4W40NUGEJOUWLTAQ38GWA0","A2T675UCHNTSSW","3DFYDSXB2WMWAZWJRSN67LWQ0PPJUT","","","null","","","","","","","",""
"871.1999999992549","","image-keyboard-response","56","456268","0.0-2.0-0.18","3MTMREQS4W40NUGEJOUWLTAQ38GWA0","A2T675UCHNTSSW","3DFYDSXB2WMWAZWJRSN67LWQ0PPJUT","","img/practice/S2.jpg","68","2","practice","68","true","","","",""
"null","","html-keyboard-response","57","456570","0.0-2.0-1.18","3MTMREQS4W40NUGEJOUWLTAQ38GWA0","A2T675UCHNTSSW","3DFYDSXB2WMWAZWJRSN67LWQ0PPJUT","","<img src=""img/practice/S2.jpg"" width=""540"" height = ""360"" style=""border:16px solid orange"">","null","","","","","","","",""
"null","","html-keyboard-response","58","456572","0.0-2.0-2.18","3MTMREQS4W40NUGEJOUWLTAQ38GWA0","A2T675UCHNTSSW","3DFYDSXB2WMWAZWJRSN67LWQ0PPJUT","","","null","","","","","","","",""
"899.0999999977648","","image-keyboard-response","59","457474","0.0-2.0-0.19","3MTMREQS4W40NUGEJOUWLTAQ38GWA0","A2T675UCHNTSSW","3DFYDSXB2WMWAZWJRSN67LWQ0PPJUT","","img/practice/S4.jpg","74","4","practice","74","true","","","",""
"null","","html-keyboard-response","60","457776","0.0-2.0-1.19","3MTMREQS4W40NUGEJOUWLTAQ38GWA0","A2T675UCHNTSSW","3DFYDSXB2WMWAZWJRSN67LWQ0PPJUT","","<img src=""img/practice/S4.jpg"" width=""540"" height = ""360"" style=""border:16px solid orange"">","null","","","","","","","",""
"null","","html-keyboard-response","61","457779","0.0-2.0-2.19","3MTMREQS4W40NUGEJOUWLTAQ38GWA0","A2T675UCHNTSSW","3DFYDSXB2WMWAZWJRSN67LWQ0PPJUT","","","null","","","","","","","",""
"2041","","image-keyboard-response","62","459822","0.0-2.0-0.20","3MTMREQS4W40NUGEJOUWLTAQ38GWA0","A2T675UCHNTSSW","3DFYDSXB2WMWAZWJRSN67LWQ0PPJUT","","img/practice/S3.jpg","74","3","practice","72","false","","","",""
"null","","html-keyboard-response","63","460124","0.0-2.0-1.20","3MTMREQS4W40NUGEJOUWLTAQ38GWA0","A2T675UCHNTSSW","3DFYDSXB2WMWAZWJRSN67LWQ0PPJUT","","<img src=""img/practice/S3.jpg"" width=""540"" height = ""360"">","null","","","","","","","",""
"null","","html-keyboard-response","64","460129","0.0-2.0-2.20","3MTMREQS4W40NUGEJOUWLTAQ38GWA0","A2T675UCHNTSSW","3DFYDSXB2WMWAZWJRSN67LWQ0PPJUT","","","null","","","","","","","",""
"631","","image-keyboard-response","65","460763","0.0-2.0-0.21","3MTMREQS4W40NUGEJOUWLTAQ38GWA0","A2T675UCHNTSSW","3DFYDSXB2WMWAZWJRSN67LWQ0PPJUT","","img/practice/S4.jpg","83","4","practice","74","false","","","",""
"null","","html-keyboard-response","66","461066","0.0-2.0-1.21","3MTMREQS4W40NUGEJOUWLTAQ38GWA0","A2T675UCHNTSSW","3DFYDSXB2WMWAZWJRSN67LWQ0PPJUT","","<img src=""img/practice/S4.jpg"" width=""540"" height = ""360"">","null","","","","","","","",""
"null","","html-keyboard-response","67","461069","0.0-2.0-2.21","3MTMREQS4W40NUGEJOUWLTAQ38GWA0","A2T675UCHNTSSW","3DFYDSXB2WMWAZWJRSN67LWQ0PPJUT","","","null","","","","","","","",""
"822.1000000014901","","image-keyboard-response","68","461892","0.0-2.0-0.22","3MTMREQS4W40NUGEJOUWLTAQ38GWA0","A2T675UCHNTSSW","3DFYDSXB2WMWAZWJRSN67LWQ0PPJUT","","img/practice/S2.jpg","83","2","practice","68","false","","","",""
"null","","html-keyboard-response","69","462195","0.0-2.0-1.22","3MTMREQS4W40NUGEJOUWLTAQ38GWA0","A2T675UCHNTSSW","3DFYDSXB2WMWAZWJRSN67LWQ0PPJUT","","<img src=""img/practice/S2.jpg"" width=""540"" height = ""360"">","null","","","","","","","",""
"null","","html-keyboard-response","70","462200","0.0-2.0-2.22","3MTMREQS4W40NUGEJOUWLTAQ38GWA0","A2T675UCHNTSSW","3DFYDSXB2WMWAZWJRSN67LWQ0PPJUT","","","null","","","","","","","",""
"552.9000000022352","","image-keyboard-response","71","462754","0.0-2.0-0.23","3MTMREQS4W40NUGEJOUWLTAQ38GWA0","A2T675UCHNTSSW","3DFYDSXB2WMWAZWJRSN67LWQ0PPJUT","","img/practice/S1.jpg","68","1","practice","83","false","","","",""
"null","","html-keyboard-response","72","463059","0.0-2.0-1.23","3MTMREQS4W40NUGEJOUWLTAQ38GWA0","A2T675UCHNTSSW","3DFYDSXB2WMWAZWJRSN67LWQ0PPJUT","","<img src=""img/practice/S1.jpg"" width=""540"" height = ""360"">","null","","","","","","","",""
"null","","html-keyboard-response","73","463065","0.0-2.0-2.23","3MTMREQS4W40NUGEJOUWLTAQ38GWA0","A2T675UCHNTSSW","3DFYDSXB2WMWAZWJRSN67LWQ0PPJUT","","","null","","","","","","","",""
"9072.70000000298","","instructions","74","472138","0.0-3.0","3MTMREQS4W40NUGEJOUWLTAQ38GWA0","A2T675UCHNTSSW","3DFYDSXB2WMWAZWJRSN67LWQ0PPJUT","[{""page_index"":0,""viewing_time"":9071.900000002235}]","","","","","","","","","",""
"39214.800000000745","","instructions","75","511354","0.0-4.0","3MTMREQS4W40NUGEJOUWLTAQ38GWA0","A2T675UCHNTSSW","3DFYDSXB2WMWAZWJRSN67LWQ0PPJUT","[{""page_index"":0,""viewing_time"":39214.199999999255}]","","","","","","","","","",""
"28575","","instructions","76","539929","0.0-5.0","3MTMREQS4W40NUGEJOUWLTAQ38GWA0","A2T675UCHNTSSW","3DFYDSXB2WMWAZWJRSN67LWQ0PPJUT","[{""page_index"":0,""viewing_time"":14958.300000000745},{""page_index"":1,""viewing_time"":13616}]","","","","","","","","","",""
"800.2000000029802","","image-keyboard-response","77","540731","0.0-6.0","3MTMREQS4W40NUGEJOUWLTAQ38GWA0","A2T675UCHNTSSW","3DFYDSXB2WMWAZWJRSN67LWQ0PPJUT","","img/set1/S2.jpg","83","2","structured_incentive","68","false","structured_incentive,random,structured_normal","2,3,1,2","",""
"null","","html-keyboard-response","78","541084","0.0-7.0","3MTMREQS4W40NUGEJOUWLTAQ38GWA0","A2T675UCHNTSSW","3DFYDSXB2WMWAZWJRSN67LWQ0PPJUT","","<img src=""img/set1/S2.jpg"" width=""540"" height = ""360"">","null","","","","","","","",""
"null","","html-keyboard-response","79","541087","0.0-8.0","3MTMREQS4W40NUGEJOUWLTAQ38GWA0","A2T675UCHNTSSW","3DFYDSXB2WMWAZWJRSN67LWQ0PPJUT","","","null","","","","","","","",""
"194.80000000074506","","image-keyboard-response","80","541284","0.0-9.0","3MTMREQS4W40NUGEJOUWLTAQ38GWA0","A2T675UCHNTSSW","3DFYDSXB2WMWAZWJRSN67LWQ0PPJUT","","img/set1/S3.jpg","68","3","structured_incentive","72","false","structured_incentive,random,structured_normal","2,3,1,2","",""
"null","","html-keyboard-response","81","541637","0.0-10.0","3MTMREQS4W40NUGEJOUWLTAQ38GWA0","A2T675UCHNTSSW","3DFYDSXB2WMWAZWJRSN67LWQ0PPJUT","","<img src=""img/set1/S3.jpg"" width=""540"" height = ""360"">","null","","","","","","","",""
"null","","html-keyboard-response","82","541640","0.0-11.0","3MTMREQS4W40NUGEJOUWLTAQ38GWA0","A2T675UCHNTSSW","3DFYDSXB2WMWAZWJRSN67LWQ0PPJUT","","","null","","","","","","","",""
"213.30000000074506","","image-keyboard-response","83","541856","0.0-12.0","3MTMREQS4W40NUGEJOUWLTAQ38GWA0","A2T675UCHNTSSW","3DFYDSXB2WMWAZWJRSN67LWQ0PPJUT","","img/set1/S3.jpg","83","3","structured_incentive","72","false","structured_incentive,random,structured_normal","2,3,1,2","",""
"null","","html-keyboard-response","84","542207","0.0-13.0","3MTMREQS4W40NUGEJOUWLTAQ38GWA0","A2T675UCHNTSSW","3DFYDSXB2WMWAZWJRSN67LWQ0PPJUT","","<img src=""img/set1/S3.jpg"" width=""540"" height = ""360"">","null","","","","","","","",""
"null","","html-keyboard-response","85","542209","0.0-14.0","3MTMREQS4W40NUGEJOUWLTAQ38GWA0","A2T675UCHNTSSW","3DFYDSXB2WMWAZWJRSN67LWQ0PPJUT","","","null","","","","","","","",""
"514","","image-keyboard-response","86","542725","0.0-15.0","3MTMREQS4W40NUGEJOUWLTAQ38GWA0","A2T675UCHNTSSW","3DFYDSXB2WMWAZWJRSN67LWQ0PPJUT","","img/set1/S4.jpg","74","4","structured_incentive","74","true","structured_incentive,random,structured_normal","2,3,1,2","",""
"null","","html-keyboard-response","87","543079","0.0-16.0","3MTMREQS4W40NUGEJOUWLTAQ38GWA0","A2T675UCHNTSSW","3DFYDSXB2WMWAZWJRSN67LWQ0PPJUT","","<img src=""img/set1/S4.jpg"" width=""540"" height = ""360"" style=""border:16px solid Violet"">","null","","","","","","","",""
"null","","html-keyboard-response","88","543082","0.0-17.0","3MTMREQS4W40NUGEJOUWLTAQ38GWA0","A2T675UCHNTSSW","3DFYDSXB2WMWAZWJRSN67LWQ0PPJUT","","","null","","","","","","","",""
"827.4000000022352","","image-keyboard-response","89","543911","0.0-18.0","3MTMREQS4W40NUGEJOUWLTAQ38GWA0","A2T675UCHNTSSW","3DFYDSXB2WMWAZWJRSN67LWQ0PPJUT","","img/set1/S2.jpg","83","2","structured_incentive","68","false","structured_incentive,random,structured_normal","2,3,1,2","",""
"null","","html-keyboard-response","90","544263","0.0-19.0","3MTMREQS4W40NUGEJOUWLTAQ38GWA0","A2T675UCHNTSSW","3DFYDSXB2WMWAZWJRSN67LWQ0PPJUT","","<img src=""img/set1/S2.jpg"" width=""540"" height = ""360"">","null","","","","","","","",""
"null","","html-keyboard-response","91","544265","0.0-20.0","3MTMREQS4W40NUGEJOUWLTAQ38GWA0","A2T675UCHNTSSW","3DFYDSXB2WMWAZWJRSN67LWQ0PPJUT","","","null","","","","","","","",""
"282.5999999977648","","image-keyboard-response","92","544550","0.0-21.0","3MTMREQS4W40NUGEJOUWLTAQ38GWA0","A2T675UCHNTSSW","3DFYDSXB2WMWAZWJRSN67LWQ0PPJUT","","img/set1/S3.jpg","68","3","structured_incentive","72","false","structured_incentive,random,structured_normal","2,3,1,2","",""
"null","","html-keyboard-response","93","544902","0.0-22.0","3MTMREQS4W40NUGEJOUWLTAQ38GWA0","A2T675UCHNTSSW","3DFYDSXB2WMWAZWJRSN67LWQ0PPJUT","","<img src=""img/set1/S3.jpg"" width=""540"" height = ""360"">","null","","","","","","","",""
"null","","html-keyboard-response","94","544905","0.0-23.0","3MTMREQS4W40NUGEJOUWLTAQ38GWA0","A2T675UCHNTSSW","3DFYDSXB2WMWAZWJRSN67LWQ0PPJUT","","","null","","","","","","","",""
"613.3000000007451","","image-keyboard-response","95","545521","0.0-24.0","3MTMREQS4W40NUGEJOUWLTAQ38GWA0","A2T675UCHNTSSW","3DFYDSXB2WMWAZWJRSN67LWQ0PPJUT","","img/set1/S4.jpg","74","4","structured_incentive","74","true","structured_incentive,random,structured_normal","2,3,1,2","",""
"null","","html-keyboard-response","96","545874","0.0-25.0","3MTMREQS4W40NUGEJOUWLTAQ38GWA0","A2T675UCHNTSSW","3DFYDSXB2WMWAZWJRSN67LWQ0PPJUT","","<img src=""img/set1/S4.jpg"" width=""540"" height = ""360"" style=""border:16px solid Violet"">","null","","","","","","","",""
"null","","html-keyboard-response","97","545879","0.0-26.0","3MTMREQS4W40NUGEJOUWLTAQ38GWA0","A2T675UCHNTSSW","3DFYDSXB2WMWAZWJRSN67LWQ0PPJUT","","","null","","","","","","","",""
"546.1999999992549","","image-keyboard-response","98","546426","0.0-27.0","3MTMREQS4W40NUGEJOUWLTAQ38GWA0","A2T675UCHNTSSW","3DFYDSXB2WMWAZWJRSN67LWQ0PPJUT","","img/set1/S4.jpg","83","4","structured_incentive","74","false","structured_incentive,random,structured_normal","2,3,1,2","",""
"null","","html-keyboard-response","99","546779","0.0-28.0","3MTMREQS4W40NUGEJOUWLTAQ38GWA0","A2T675UCHNTSSW","3DFYDSXB2WMWAZWJRSN67LWQ0PPJUT","","<img src=""img/set1/S4.jpg"" width=""540"" height = ""360"">","null","","","","","","","",""
"null","","html-keyboard-response","100","546782","0.0-29.0","3MTMREQS4W40NUGEJOUWLTAQ38GWA0","A2T675UCHNTSSW","3DFYDSXB2WMWAZWJRSN67LWQ0PPJUT","","","null","","","","","","","",""
"113.5","","image-keyboard-response","101","546897","0.0-30.0","3MTMREQS4W40NUGEJOUWLTAQ38GWA0","A2T675UCHNTSSW","3DFYDSXB2WMWAZWJRSN67LWQ0PPJUT","","img/set1/S1.jpg","68","1","structured_incentive","83","false","structured_incentive,random,structured_normal","2,3,1,2","",""
"null","","html-keyboard-response","102","547249","0.0-31.0","3MTMREQS4W40NUGEJOUWLTAQ38GWA0","A2T675UCHNTSSW","3DFYDSXB2WMWAZWJRSN67LWQ0PPJUT","","<img src=""img/set1/S1.jpg"" width=""540"" height = ""360"">","null","","","","","","","",""
"null","","html-keyboard-response","103","547270","0.0-32.0","3MTMREQS4W40NUGEJOUWLTAQ38GWA0","A2T675UCHNTSSW","3DFYDSXB2WMWAZWJRSN67LWQ0PPJUT","","","null","","","","","","","",""
"374.69999999925494","","image-keyboard-response","104","547647","0.0-33.0","3MTMREQS4W40NUGEJOUWLTAQ38GWA0","A2T675UCHNTSSW","3DFYDSXB2WMWAZWJRSN67LWQ0PPJUT","","img/set1/S4.jpg","74","4","structured_incentive","74","true","structured_incentive,random,structured_normal","2,3,1,2","",""
"null","","html-keyboard-response","105","548000","0.0-34.0","3MTMREQS4W40NUGEJOUWLTAQ38GWA0","A2T675UCHNTSSW","3DFYDSXB2WMWAZWJRSN67LWQ0PPJUT","","<img src=""img/set1/S4.jpg"" width=""540"" height = ""360"" style=""border:16px solid Violet"">","null","","","","","","","",""
"null","","html-keyboard-response","106","548005","0.0-35.0","3MTMREQS4W40NUGEJOUWLTAQ38GWA0","A2T675UCHNTSSW","3DFYDSXB2WMWAZWJRSN67LWQ0PPJUT","","","null","","","","","","","",""
"546.3000000007451","","image-keyboard-response","107","548553","0.0-36.0","3MTMREQS4W40NUGEJOUWLTAQ38GWA0","A2T675UCHNTSSW","3DFYDSXB2WMWAZWJRSN67LWQ0PPJUT","","img/set1/S2.jpg","68","2","structured_incentive","68","true","structured_incentive,random,structured_normal","2,3,1,2","",""
"null","","html-keyboard-response","108","548905","0.0-37.0","3MTMREQS4W40NUGEJOUWLTAQ38GWA0","A2T675UCHNTSSW","3DFYDSXB2WMWAZWJRSN67LWQ0PPJUT","","<img src=""img/set1/S2.jpg"" width=""540"" height = ""360"" style=""border:16px solid orange"">","null","","","","","","","",""
"null","","html-keyboard-response","109","548907","0.0-38.0","3MTMREQS4W40NUGEJOUWLTAQ38GWA0","A2T675UCHNTSSW","3DFYDSXB2WMWAZWJRSN67LWQ0PPJUT","","","null","","","","","","","",""
"489.6000000014901","","image-keyboard-response","110","549398","0.0-39.0","3MTMREQS4W40NUGEJOUWLTAQ38GWA0","A2T675UCHNTSSW","3DFYDSXB2WMWAZWJRSN67LWQ0PPJUT","","img/set1/S3.jpg","74","3","structured_incentive","72","false","structured_incentive,random,structured_normal","2,3,1,2","",""
"null","","html-keyboard-response","111","549750","0.0-40.0","3MTMREQS4W40NUGEJOUWLTAQ38GWA0","A2T675UCHNTSSW","3DFYDSXB2WMWAZWJRSN67LWQ0PPJUT","","<img src=""img/set1/S3.jpg"" width=""540"" height = ""360"">","null","","","","","","","",""
"null","","html-keyboard-response","112","549752","0.0-41.0","3MTMREQS4W40NUGEJOUWLTAQ38GWA0","A2T675UCHNTSSW","3DFYDSXB2WMWAZWJRSN67LWQ0PPJUT","","","null","","","","","","","",""
"781.1999999992549","","image-keyboard-response","113","550535","0.0-42.0","3MTMREQS4W40NUGEJOUWLTAQ38GWA0","A2T675UCHNTSSW","3DFYDSXB2WMWAZWJRSN67LWQ0PPJUT","","img/set1/S2.jpg","68","2","structured_incentive","68","true","structured_incentive,random,structured_normal","2,3,1,2","",""
"null","","html-keyboard-response","114","550888","0.0-43.0","3MTMREQS4W40NUGEJOUWLTAQ38GWA0","A2T675UCHNTSSW","3DFYDSXB2WMWAZWJRSN67LWQ0PPJUT","","<img src=""img/set1/S2.jpg"" width=""540"" height = ""360"" style=""border:16px solid orange"">","null","","","","","","","",""
"null","","html-keyboard-response","115","550892","0.0-44.0","3MTMREQS4W40NUGEJOUWLTAQ38GWA0","A2T675UCHNTSSW","3DFYDSXB2WMWAZWJRSN67LWQ0PPJUT","","","null","","","","","","","",""
"422.69999999925494","","image-keyboard-response","116","551317","0.0-45.0","3MTMREQS4W40NUGEJOUWLTAQ38GWA0","A2T675UCHNTSSW","3DFYDSXB2WMWAZWJRSN67LWQ0PPJUT","","img/set1/S3.jpg","74","3","structured_incentive","72","false","structured_incentive,random,structured_normal","2,3,1,2","",""
"null","","html-keyboard-response","117","551669","0.0-46.0","3MTMREQS4W40NUGEJOUWLTAQ38GWA0","A2T675UCHNTSSW","3DFYDSXB2WMWAZWJRSN67LWQ0PPJUT","","<img src=""img/set1/S3.jpg"" width=""540"" height = ""360"">","null","","","","","","","",""
"null","","html-keyboard-response","118","551673","0.0-47.0","3MTMREQS4W40NUGEJOUWLTAQ38GWA0","A2T675UCHNTSSW","3DFYDSXB2WMWAZWJRSN67LWQ0PPJUT","","","null","","","","","","","",""
"960.1999999992549","","image-keyboard-response","119","552636","0.0-48.0","3MTMREQS4W40NUGEJOUWLTAQ38GWA0","A2T675UCHNTSSW","3DFYDSXB2WMWAZWJRSN67LWQ0PPJUT","","img/set1/S2.jpg","83","2","structured_incentive","68","false","structured_incentive,random,structured_normal","2,3,1,2","",""
"null","","html-keyboard-response","120","552991","0.0-49.0","3MTMREQS4W40NUGEJOUWLTAQ38GWA0","A2T675UCHNTSSW","3DFYDSXB2WMWAZWJRSN67LWQ0PPJUT","","<img src=""img/set1/S2.jpg"" width=""540"" height = ""360"">","null","","","","","","","",""
"null","","html-keyboard-response","121","552994","0.0-50.0","3MTMREQS4W40NUGEJOUWLTAQ38GWA0","A2T675UCHNTSSW","3DFYDSXB2WMWAZWJRSN67LWQ0PPJUT","","","null","","","","","","","",""
"525.1999999992549","","image-keyboard-response","122","553521","0.0-51.0","3MTMREQS4W40NUGEJOUWLTAQ38GWA0","A2T675UCHNTSSW","3DFYDSXB2WMWAZWJRSN67LWQ0PPJUT","","img/set1/S3.jpg","68","3","structured_incentive","72","false","structured_incentive,random,structured_normal","2,3,1,2","",""
"null","","html-keyboard-response","123","553875","0.0-52.0","3MTMREQS4W40NUGEJOUWLTAQ38GWA0","A2T675UCHNTSSW","3DFYDSXB2WMWAZWJRSN67LWQ0PPJUT","","<img src=""img/set1/S3.jpg"" width=""540"" height = ""360"">","null","","","","","","","",""
"null","","html-keyboard-response","124","553878","0.0-53.0","3MTMREQS4W40NUGEJOUWLTAQ38GWA0","A2T675UCHNTSSW","3DFYDSXB2WMWAZWJRSN67LWQ0PPJUT","","","null","","","","","","","",""
"487.29999999701977","","image-keyboard-response","125","554367","0.0-54.0","3MTMREQS4W40NUGEJOUWLTAQ38GWA0","A2T675UCHNTSSW","3DFYDSXB2WMWAZWJRSN67LWQ0PPJUT","","img/set1/S2.jpg","74","2","structured_incentive","68","false","structured_incentive,random,structured_normal","2,3,1,2","",""
"null","","html-keyboard-response","126","554720","0.0-55.0","3MTMREQS4W40NUGEJOUWLTAQ38GWA0","A2T675UCHNTSSW","3DFYDSXB2WMWAZWJRSN67LWQ0PPJUT","","<img src=""img/set1/S2.jpg"" width=""540"" height = ""360"">","null","","","","","","","",""
"null","","html-keyboard-response","127","554722","0.0-56.0","3MTMREQS4W40NUGEJOUWLTAQ38GWA0","A2T675UCHNTSSW","3DFYDSXB2WMWAZWJRSN67LWQ0PPJUT","","","null","","","","","","","",""
"71.10000000149012","","image-keyboard-response","128","554794","0.0-57.0","3MTMREQS4W40NUGEJOUWLTAQ38GWA0","A2T675UCHNTSSW","3DFYDSXB2WMWAZWJRSN67LWQ0PPJUT","","img/set1/S3.jpg","83","3","structured_incentive","72","false","structured_incentive,random,structured_normal","2,3,1,2","",""
"null","","html-keyboard-response","129","555147","0.0-58.0","3MTMREQS4W40NUGEJOUWLTAQ38GWA0","A2T675UCHNTSSW","3DFYDSXB2WMWAZWJRSN67LWQ0PPJUT","","<img src=""img/set1/S3.jpg"" width=""540"" height = ""360"">","null","","","","","","","",""
"null","","html-keyboard-response","130","555149","0.0-59.0","3MTMREQS4W40NUGEJOUWLTAQ38GWA0","A2T675UCHNTSSW","3DFYDSXB2WMWAZWJRSN67LWQ0PPJUT","","","null","","","","","","","",""
"467.4000000022352","","image-keyboard-response","131","555619","0.0-60.0","3MTMREQS4W40NUGEJOUWLTAQ38GWA0","A2T675UCHNTSSW","3DFYDSXB2WMWAZWJRSN67LWQ0PPJUT","","img/set1/S1.jpg","83","1","structured_incentive","83","true","structured_incentive,random,structured_normal","2,3,1,2","",""
"null","","html-keyboard-response","132","555971","0.0-61.0","3MTMREQS4W40NUGEJOUWLTAQ38GWA0","A2T675UCHNTSSW","3DFYDSXB2WMWAZWJRSN67LWQ0PPJUT","","<img src=""img/set1/S1.jpg"" width=""540"" height = ""360"" style=""border:16px solid orange"">","null","","","","","","","",""
"null","","html-keyboard-response","133","555973","0.0-62.0","3MTMREQS4W40NUGEJOUWLTAQ38GWA0","A2T675UCHNTSSW","3DFYDSXB2WMWAZWJRSN67LWQ0PPJUT","","","null","","","","","","","",""
"1115","","image-keyboard-response","134","557090","0.0-63.0","3MTMREQS4W40NUGEJOUWLTAQ38GWA0","A2T675UCHNTSSW","3DFYDSXB2WMWAZWJRSN67LWQ0PPJUT","","img/set1/S2.jpg","83","2","structured_incentive","68","false","structured_incentive,random,structured_normal","2,3,1,2","",""
"null","","html-keyboard-response","135","557442","0.0-64.0","3MTMREQS4W40NUGEJOUWLTAQ38GWA0","A2T675UCHNTSSW","3DFYDSXB2WMWAZWJRSN67LWQ0PPJUT","","<img src=""img/set1/S2.jpg"" width=""540"" height = ""360"">","null","","","","","","","",""
"null","","html-keyboard-response","136","557444","0.0-65.0","3MTMREQS4W40NUGEJOUWLTAQ38GWA0","A2T675UCHNTSSW","3DFYDSXB2WMWAZWJRSN67LWQ0PPJUT","","","null","","","","","","","",""
"684.1999999992549","","image-keyboard-response","137","558130","0.0-66.0","3MTMREQS4W40NUGEJOUWLTAQ38GWA0","A2T675UCHNTSSW","3DFYDSXB2WMWAZWJRSN67LWQ0PPJUT","","img/set1/S3.jpg","68","3","structured_incentive","72","false","structured_incentive,random,structured_normal","2,3,1,2","",""
"null","","html-keyboard-response","138","558493","0.0-67.0","3MTMREQS4W40NUGEJOUWLTAQ38GWA0","A2T675UCHNTSSW","3DFYDSXB2WMWAZWJRSN67LWQ0PPJUT","","<img src=""img/set1/S3.jpg"" width=""540"" height = ""360"">","null","","","","","","","",""
"null","","html-keyboard-response","139","558507","0.0-68.0","3MTMREQS4W40NUGEJOUWLTAQ38GWA0","A2T675UCHNTSSW","3DFYDSXB2WMWAZWJRSN67LWQ0PPJUT","","","null","","","","","","","",""
"83.80000000074506","","image-keyboard-response","140","558593","0.0-69.0","3MTMREQS4W40NUGEJOUWLTAQ38GWA0","A2T675UCHNTSSW","3DFYDSXB2WMWAZWJRSN67LWQ0PPJUT","","img/set1/S4.jpg","74","4","structured_incentive","74","true","structured_incentive,random,structured_normal","2,3,1,2","",""
"null","","html-keyboard-response","141","558946","0.0-70.0","3MTMREQS4W40NUGEJOUWLTAQ38GWA0","A2T675UCHNTSSW","3DFYDSXB2WMWAZWJRSN67LWQ0PPJUT","","<img src=""img/set1/S4.jpg"" width=""540"" height = ""360"" style=""border:16px solid Violet"">","null","","","","","","","",""
"null","","html-keyboard-response","142","558949","0.0-71.0","3MTMREQS4W40NUGEJOUWLTAQ38GWA0","A2T675UCHNTSSW","3DFYDSXB2WMWAZWJRSN67LWQ0PPJUT","","","null","","","","","","","",""
"1447.5","","image-keyboard-response","143","560398","0.0-72.0","3MTMREQS4W40NUGEJOUWLTAQ38GWA0","A2T675UCHNTSSW","3DFYDSXB2WMWAZWJRSN67LWQ0PPJUT","","img/set1/S2.jpg","83","2","structured_incentive","68","false","structured_incentive,random,structured_normal","2,3,1,2","",""
"null","","html-keyboard-response","144","560752","0.0-73.0","3MTMREQS4W40NUGEJOUWLTAQ38GWA0","A2T675UCHNTSSW","3DFYDSXB2WMWAZWJRSN67LWQ0PPJUT","","<img src=""img/set1/S2.jpg"" width=""540"" height = ""360"">","null","","","","","","","",""
"null","","html-keyboard-response","145","560754","0.0-74.0","3MTMREQS4W40NUGEJOUWLTAQ38GWA0","A2T675UCHNTSSW","3DFYDSXB2WMWAZWJRSN67LWQ0PPJUT","","","null","","","","","","","",""
"252.59999999776483","","image-keyboard-response","146","561008","0.0-75.0","3MTMREQS4W40NUGEJOUWLTAQ38GWA0","A2T675UCHNTSSW","3DFYDSXB2WMWAZWJRSN67LWQ0PPJUT","","img/set1/S3.jpg","68","3","structured_incentive","72","false","structured_incentive,random,structured_normal","2,3,1,2","",""
"null","","html-keyboard-response","147","561361","0.0-76.0","3MTMREQS4W40NUGEJOUWLTAQ38GWA0","A2T675UCHNTSSW","3DFYDSXB2WMWAZWJRSN67LWQ0PPJUT","","<img src=""img/set1/S3.jpg"" width=""540"" height = ""360"">","null","","","","","","","",""
"null","","html-keyboard-response","148","561364","0.0-77.0","3MTMREQS4W40NUGEJOUWLTAQ38GWA0","A2T675UCHNTSSW","3DFYDSXB2WMWAZWJRSN67LWQ0PPJUT","","","null","","","","","","","",""
"2176","","image-keyboard-response","149","563542","0.0-78.0","3MTMREQS4W40NUGEJOUWLTAQ38GWA0","A2T675UCHNTSSW","3DFYDSXB2WMWAZWJRSN67LWQ0PPJUT","","img/set1/S1.jpg","83","1","structured_incentive","83","true","structured_incentive,random,structured_normal","2,3,1,2","",""
"null","","html-keyboard-response","150","563893","0.0-79.0","3MTMREQS4W40NUGEJOUWLTAQ38GWA0","A2T675UCHNTSSW","3DFYDSXB2WMWAZWJRSN67LWQ0PPJUT","","<img src=""img/set1/S1.jpg"" width=""540"" height = ""360"" style=""border:16px solid orange"">","null","","","","","","","",""
"null","","html-keyboard-response","151","563896","0.0-80.0","3MTMREQS4W40NUGEJOUWLTAQ38GWA0","A2T675UCHNTSSW","3DFYDSXB2WMWAZWJRSN67LWQ0PPJUT","","","null","","","","","","","",""
"914.6000000014901","","image-keyboard-response","152","564813","0.0-81.0","3MTMREQS4W40NUGEJOUWLTAQ38GWA0","A2T675UCHNTSSW","3DFYDSXB2WMWAZWJRSN67LWQ0PPJUT","","img/set1/S2.jpg","68","2","structured_incentive","68","true","structured_incentive,random,structured_normal","2,3,1,2","",""
"null","","html-keyboard-response","153","565166","0.0-82.0","3MTMREQS4W40NUGEJOUWLTAQ38GWA0","A2T675UCHNTSSW","3DFYDSXB2WMWAZWJRSN67LWQ0PPJUT","","<img src=""img/set1/S2.jpg"" width=""540"" height = ""360"" style=""border:16px solid orange"">","null","","","","","","","",""
"null","","html-keyboard-response","154","565168","0.0-83.0","3MTMREQS4W40NUGEJOUWLTAQ38GWA0","A2T675UCHNTSSW","3DFYDSXB2WMWAZWJRSN67LWQ0PPJUT","","","null","","","","","","","",""
"632.3000000007451","","image-keyboard-response","155","565802","0.0-84.0","3MTMREQS4W40NUGEJOUWLTAQ38GWA0","A2T675UCHNTSSW","3DFYDSXB2WMWAZWJRSN67LWQ0PPJUT","","img/set1/S3.jpg","74","3","structured_incentive","72","false","structured_incentive,random,structured_normal","2,3,1,2","",""
"null","","html-keyboard-response","156","566157","0.0-85.0","3MTMREQS4W40NUGEJOUWLTAQ38GWA0","A2T675UCHNTSSW","3DFYDSXB2WMWAZWJRSN67LWQ0PPJUT","","<img src=""img/set1/S3.jpg"" width=""540"" height = ""360"">","null","","","","","","","",""
"null","","html-keyboard-response","157","566162","0.0-86.0","3MTMREQS4W40NUGEJOUWLTAQ38GWA0","A2T675UCHNTSSW","3DFYDSXB2WMWAZWJRSN67LWQ0PPJUT","","","null","","","","","","","",""
"729.1000000014901","","image-keyboard-response","158","566895","0.0-87.0","3MTMREQS4W40NUGEJOUWLTAQ38GWA0","A2T675UCHNTSSW","3DFYDSXB2WMWAZWJRSN67LWQ0PPJUT","","img/set1/S4.jpg","74","4","structured_incentive","74","true","structured_incentive,random,structured_normal","2,3,1,2","",""
"null","","html-keyboard-response","159","567249","0.0-88.0","3MTMREQS4W40NUGEJOUWLTAQ38GWA0","A2T675UCHNTSSW","3DFYDSXB2WMWAZWJRSN67LWQ0PPJUT","","<img src=""img/set1/S4.jpg"" width=""540"" height = ""360"" style=""border:16px solid Violet"">","null","","","","","","","",""
"null","","html-keyboard-response","160","567253","0.0-89.0","3MTMREQS4W40NUGEJOUWLTAQ38GWA0","A2T675UCHNTSSW","3DFYDSXB2WMWAZWJRSN67LWQ0PPJUT","","","null","","","","","","","",""
"981.1999999992549","","image-keyboard-response","161","568237","0.0-90.0","3MTMREQS4W40NUGEJOUWLTAQ38GWA0","A2T675UCHNTSSW","3DFYDSXB2WMWAZWJRSN67LWQ0PPJUT","","img/set1/S2.jpg","83","2","structured_incentive","68","false","structured_incentive,random,structured_normal","2,3,1,2","",""
"null","","html-keyboard-response","162","568589","0.0-91.0","3MTMREQS4W40NUGEJOUWLTAQ38GWA0","A2T675UCHNTSSW","3DFYDSXB2WMWAZWJRSN67LWQ0PPJUT","","<img src=""img/set1/S2.jpg"" width=""540"" height = ""360"">","null","","","","","","","",""
"null","","html-keyboard-response","163","568592","0.0-92.0","3MTMREQS4W40NUGEJOUWLTAQ38GWA0","A2T675UCHNTSSW","3DFYDSXB2WMWAZWJRSN67LWQ0PPJUT","","","null","","","","","","","",""
"551.4000000022352","","image-keyboard-response","164","569145","0.0-93.0","3MTMREQS4W40NUGEJOUWLTAQ38GWA0","A2T675UCHNTSSW","3DFYDSXB2WMWAZWJRSN67LWQ0PPJUT","","img/set1/S3.jpg","68","3","structured_incentive","72","false","structured_incentive,random,structured_normal","2,3,1,2","",""
"null","","html-keyboard-response","165","569497","0.0-94.0","3MTMREQS4W40NUGEJOUWLTAQ38GWA0","A2T675UCHNTSSW","3DFYDSXB2WMWAZWJRSN67LWQ0PPJUT","","<img src=""img/set1/S3.jpg"" width=""540"" height = ""360"">","null","","","","","","","",""
"null","","html-keyboard-response","166","569500","0.0-95.0","3MTMREQS4W40NUGEJOUWLTAQ38GWA0","A2T675UCHNTSSW","3DFYDSXB2WMWAZWJRSN67LWQ0PPJUT","","","null","","","","","","","",""
"262.5999999977648","","image-keyboard-response","167","569765","0.0-96.0","3MTMREQS4W40NUGEJOUWLTAQ38GWA0","A2T675UCHNTSSW","3DFYDSXB2WMWAZWJRSN67LWQ0PPJUT","","img/set1/S2.jpg","74","2","structured_incentive","68","false","structured_incentive,random,structured_normal","2,3,1,2","",""
"null","","html-keyboard-response","168","570117","0.0-97.0","3MTMREQS4W40NUGEJOUWLTAQ38GWA0","A2T675UCHNTSSW","3DFYDSXB2WMWAZWJRSN67LWQ0PPJUT","","<img src=""img/set1/S2.jpg"" width=""540"" height = ""360"">","null","","","","","","","",""
"null","","html-keyboard-response","169","570120","0.0-98.0","3MTMREQS4W40NUGEJOUWLTAQ38GWA0","A2T675UCHNTSSW","3DFYDSXB2WMWAZWJRSN67LWQ0PPJUT","","","null","","","","","","","",""
"694.3999999985099","","image-keyboard-response","170","570816","0.0-99.0","3MTMREQS4W40NUGEJOUWLTAQ38GWA0","A2T675UCHNTSSW","3DFYDSXB2WMWAZWJRSN67LWQ0PPJUT","","img/set1/S4.jpg","74","4","structured_incentive","74","true","structured_incentive,random,structured_normal","2,3,1,2","",""
"null","","html-keyboard-response","171","571169","0.0-100.0","3MTMREQS4W40NUGEJOUWLTAQ38GWA0","A2T675UCHNTSSW","3DFYDSXB2WMWAZWJRSN67LWQ0PPJUT","","<img src=""img/set1/S4.jpg"" width=""540"" height = ""360"" style=""border:16px solid Violet"">","null","","","","","","","",""
"null","","html-keyboard-response","172","571171","0.0-101.0","3MTMREQS4W40NUGEJOUWLTAQ38GWA0","A2T675UCHNTSSW","3DFYDSXB2WMWAZWJRSN67LWQ0PPJUT","","","null","","","","","","","",""
"2207.599999997765","","image-keyboard-response","173","573381","0.0-102.0","3MTMREQS4W40NUGEJOUWLTAQ38GWA0","A2T675UCHNTSSW","3DFYDSXB2WMWAZWJRSN67LWQ0PPJUT","","img/set1/S1.jpg","83","1","structured_incentive","83","true","structured_incentive,random,structured_normal","2,3,1,2","",""
"null","","html-keyboard-response","174","573734","0.0-103.0","3MTMREQS4W40NUGEJOUWLTAQ38GWA0","A2T675UCHNTSSW","3DFYDSXB2WMWAZWJRSN67LWQ0PPJUT","","<img src=""img/set1/S1.jpg"" width=""540"" height = ""360"" style=""border:16px solid orange"">","null","","","","","","","",""
"null","","html-keyboard-response","175","573736","0.0-104.0","3MTMREQS4W40NUGEJOUWLTAQ38GWA0","A2T675UCHNTSSW","3DFYDSXB2WMWAZWJRSN67LWQ0PPJUT","","","null","","","","","","","",""
"745.6999999992549","","image-keyboard-response","176","574483","0.0-105.0","3MTMREQS4W40NUGEJOUWLTAQ38GWA0","A2T675UCHNTSSW","3DFYDSXB2WMWAZWJRSN67LWQ0PPJUT","","img/set1/S3.jpg","68","3","structured_incentive","72","false","structured_incentive,random,structured_normal","2,3,1,2","",""
"null","","html-keyboard-response","177","574838","0.0-106.0","3MTMREQS4W40NUGEJOUWLTAQ38GWA0","A2T675UCHNTSSW","3DFYDSXB2WMWAZWJRSN67LWQ0PPJUT","","<img src=""img/set1/S3.jpg"" width=""540"" height = ""360"">","null","","","","","","","",""
"null","","html-keyboard-response","178","574842","0.0-107.0","3MTMREQS4W40NUGEJOUWLTAQ38GWA0","A2T675UCHNTSSW","3DFYDSXB2WMWAZWJRSN67LWQ0PPJUT","","","null","","","","","","","",""
"211.20000000298023","","image-keyboard-response","179","575056","0.0-108.0","3MTMREQS4W40NUGEJOUWLTAQ38GWA0","A2T675UCHNTSSW","3DFYDSXB2WMWAZWJRSN67LWQ0PPJUT","","img/set1/S4.jpg","83","4","structured_incentive","74","false","structured_incentive,random,structured_normal","2,3,1,2","",""
"null","","html-keyboard-response","180","575408","0.0-109.0","3MTMREQS4W40NUGEJOUWLTAQ38GWA0","A2T675UCHNTSSW","3DFYDSXB2WMWAZWJRSN67LWQ0PPJUT","","<img src=""img/set1/S4.jpg"" width=""540"" height = ""360"">","null","","","","","","","",""
"null","","html-keyboard-response","181","575411","0.0-110.0","3MTMREQS4W40NUGEJOUWLTAQ38GWA0","A2T675UCHNTSSW","3DFYDSXB2WMWAZWJRSN67LWQ0PPJUT","","","null","","","","","","","",""
"238.90000000223517","","image-keyboard-response","182","575652","0.0-111.0","3MTMREQS4W40NUGEJOUWLTAQ38GWA0","A2T675UCHNTSSW","3DFYDSXB2WMWAZWJRSN67LWQ0PPJUT","","img/set1/S2.jpg","74","2","structured_incentive","68","false","structured_incentive,random,structured_normal","2,3,1,2","",""
"null","","html-keyboard-response","183","576004","0.0-112.0","3MTMREQS4W40NUGEJOUWLTAQ38GWA0","A2T675UCHNTSSW","3DFYDSXB2WMWAZWJRSN67LWQ0PPJUT","","<img src=""img/set1/S2.jpg"" width=""540"" height = ""360"">","null","","","","","","","",""
"null","","html-keyboard-response","184","576010","0.0-113.0","3MTMREQS4W40NUGEJOUWLTAQ38GWA0","A2T675UCHNTSSW","3DFYDSXB2WMWAZWJRSN67LWQ0PPJUT","","","null","","","","","","","",""
"853.8000000007451","","image-keyboard-response","185","576867","0.0-114.0","3MTMREQS4W40NUGEJOUWLTAQ38GWA0","A2T675UCHNTSSW","3DFYDSXB2WMWAZWJRSN67LWQ0PPJUT","","img/set1/S3.jpg","83","3","structured_incentive","72","false","structured_incentive,random,structured_normal","2,3,1,2","",""
"null","","html-keyboard-response","186","577220","0.0-115.0","3MTMREQS4W40NUGEJOUWLTAQ38GWA0","A2T675UCHNTSSW","3DFYDSXB2WMWAZWJRSN67LWQ0PPJUT","","<img src=""img/set1/S3.jpg"" width=""540"" height = ""360"">","null","","","","","","","",""
"null","","html-keyboard-response","187","577223","0.0-116.0","3MTMREQS4W40NUGEJOUWLTAQ38GWA0","A2T675UCHNTSSW","3DFYDSXB2WMWAZWJRSN67LWQ0PPJUT","","","null","","","","","","","",""
"145.19999999925494","","image-keyboard-response","188","577369","0.0-117.0","3MTMREQS4W40NUGEJOUWLTAQ38GWA0","A2T675UCHNTSSW","3DFYDSXB2WMWAZWJRSN67LWQ0PPJUT","","img/set1/S4.jpg","68","4","structured_incentive","74","false","structured_incentive,random,structured_normal","2,3,1,2","",""
"null","","html-keyboard-response","189","577722","0.0-118.0","3MTMREQS4W40NUGEJOUWLTAQ38GWA0","A2T675UCHNTSSW","3DFYDSXB2WMWAZWJRSN67LWQ0PPJUT","","<img src=""img/set1/S4.jpg"" width=""540"" height = ""360"">","null","","","","","","","",""
"null","","html-keyboard-response","190","577727","0.0-119.0","3MTMREQS4W40NUGEJOUWLTAQ38GWA0","A2T675UCHNTSSW","3DFYDSXB2WMWAZWJRSN67LWQ0PPJUT","","","null","","","","","","","",""
"178","","image-keyboard-response","191","577907","0.0-120.0","3MTMREQS4W40NUGEJOUWLTAQ38GWA0","A2T675UCHNTSSW","3DFYDSXB2WMWAZWJRSN67LWQ0PPJUT","","img/set1/S1.jpg","74","1","structured_incentive","83","false","structured_incentive,random,structured_normal","2,3,1,2","",""
"null","","html-keyboard-response","192","578259","0.0-121.0","3MTMREQS4W40NUGEJOUWLTAQ38GWA0","A2T675UCHNTSSW","3DFYDSXB2WMWAZWJRSN67LWQ0PPJUT","","<img src=""img/set1/S1.jpg"" width=""540"" height = ""360"">","null","","","","","","","",""
"null","","html-keyboard-response","193","578261","0.0-122.0","3MTMREQS4W40NUGEJOUWLTAQ38GWA0","A2T675UCHNTSSW","3DFYDSXB2WMWAZWJRSN67LWQ0PPJUT","","","null","","","","","","","",""
"1785.699999999255","","image-keyboard-response","194","580049","0.0-123.0","3MTMREQS4W40NUGEJOUWLTAQ38GWA0","A2T675UCHNTSSW","3DFYDSXB2WMWAZWJRSN67LWQ0PPJUT","","img/set1/S2.jpg","83","2","structured_incentive","68","false","structured_incentive,random,structured_normal","2,3,1,2","",""
"null","","html-keyboard-response","195","580408","0.0-124.0","3MTMREQS4W40NUGEJOUWLTAQ38GWA0","A2T675UCHNTSSW","3DFYDSXB2WMWAZWJRSN67LWQ0PPJUT","","<img src=""img/set1/S2.jpg"" width=""540"" height = ""360"">","null","","","","","","","",""
"null","","html-keyboard-response","196","580410","0.0-125.0","3MTMREQS4W40NUGEJOUWLTAQ38GWA0","A2T675UCHNTSSW","3DFYDSXB2WMWAZWJRSN67LWQ0PPJUT","","","null","","","","","","","",""
"616.6999999992549","","image-keyboard-response","197","581029","0.0-126.0","3MTMREQS4W40NUGEJOUWLTAQ38GWA0","A2T675UCHNTSSW","3DFYDSXB2WMWAZWJRSN67LWQ0PPJUT","","img/set1/S4.jpg","74","4","structured_incentive","74","true","structured_incentive,random,structured_normal","2,3,1,2","",""
"null","","html-keyboard-response","198","581382","0.0-127.0","3MTMREQS4W40NUGEJOUWLTAQ38GWA0","A2T675UCHNTSSW","3DFYDSXB2WMWAZWJRSN67LWQ0PPJUT","","<img src=""img/set1/S4.jpg"" width=""540"" height = ""360"" style=""border:16px solid Violet"">","null","","","","","","","",""
"null","","html-keyboard-response","199","581387","0.0-128.0","3MTMREQS4W40NUGEJOUWLTAQ38GWA0","A2T675UCHNTSSW","3DFYDSXB2WMWAZWJRSN67LWQ0PPJUT","","","null","","","","","","","",""
"508.3999999985099","","image-keyboard-response","200","581898","0.0-129.0","3MTMREQS4W40NUGEJOUWLTAQ38GWA0","A2T675UCHNTSSW","3DFYDSXB2WMWAZWJRSN67LWQ0PPJUT","","img/set1/S4.jpg","74","4","structured_incentive","74","true","structured_incentive,random,structured_normal","2,3,1,2","",""
"null","","html-keyboard-response","201","582252","0.0-130.0","3MTMREQS4W40NUGEJOUWLTAQ38GWA0","A2T675UCHNTSSW","3DFYDSXB2WMWAZWJRSN67LWQ0PPJUT","","<img src=""img/set1/S4.jpg"" width=""540"" height = ""360"" style=""border:16px solid Violet"">","null","","","","","","","",""
"null","","html-keyboard-response","202","582254","0.0-131.0","3MTMREQS4W40NUGEJOUWLTAQ38GWA0","A2T675UCHNTSSW","3DFYDSXB2WMWAZWJRSN67LWQ0PPJUT","","","null","","","","","","","",""
"856.8999999985099","","image-keyboard-response","203","583113","0.0-132.0","3MTMREQS4W40NUGEJOUWLTAQ38GWA0","A2T675UCHNTSSW","3DFYDSXB2WMWAZWJRSN67LWQ0PPJUT","","img/set1/S2.jpg","68","2","structured_incentive","68","true","structured_incentive,random,structured_normal","2,3,1,2","",""
"null","","html-keyboard-response","204","583466","0.0-133.0","3MTMREQS4W40NUGEJOUWLTAQ38GWA0","A2T675UCHNTSSW","3DFYDSXB2WMWAZWJRSN67LWQ0PPJUT","","<img src=""img/set1/S2.jpg"" width=""540"" height = ""360"" style=""border:16px solid orange"">","null","","","","","","","",""
"null","","html-keyboard-response","205","583470","0.0-134.0","3MTMREQS4W40NUGEJOUWLTAQ38GWA0","A2T675UCHNTSSW","3DFYDSXB2WMWAZWJRSN67LWQ0PPJUT","","","null","","","","","","","",""
"862.4000000022352","","image-keyboard-response","206","584335","0.0-135.0","3MTMREQS4W40NUGEJOUWLTAQ38GWA0","A2T675UCHNTSSW","3DFYDSXB2WMWAZWJRSN67LWQ0PPJUT","","img/set1/S3.jpg","83","3","structured_incentive","72","false","structured_incentive,random,structured_normal","2,3,1,2","",""
"null","","html-keyboard-response","207","584688","0.0-136.0","3MTMREQS4W40NUGEJOUWLTAQ38GWA0","A2T675UCHNTSSW","3DFYDSXB2WMWAZWJRSN67LWQ0PPJUT","","<img src=""img/set1/S3.jpg"" width=""540"" height = ""360"">","null","","","","","","","",""
"null","","html-keyboard-response","208","584691","0.0-137.0","3MTMREQS4W40NUGEJOUWLTAQ38GWA0","A2T675UCHNTSSW","3DFYDSXB2WMWAZWJRSN67LWQ0PPJUT","","","null","","","","","","","",""
"168.30000000074506","","image-keyboard-response","209","584862","0.0-138.0","3MTMREQS4W40NUGEJOUWLTAQ38GWA0","A2T675UCHNTSSW","3DFYDSXB2WMWAZWJRSN67LWQ0PPJUT","","img/set1/S4.jpg","68","4","structured_incentive","74","false","structured_incentive,random,structured_normal","2,3,1,2","",""
"null","","html-keyboard-response","210","585214","0.0-139.0","3MTMREQS4W40NUGEJOUWLTAQ38GWA0","A2T675UCHNTSSW","3DFYDSXB2WMWAZWJRSN67LWQ0PPJUT","","<img src=""img/set1/S4.jpg"" width=""540"" height = ""360"">","null","","","","","","","",""
"null","","html-keyboard-response","211","585216","0.0-140.0","3MTMREQS4W40NUGEJOUWLTAQ38GWA0","A2T675UCHNTSSW","3DFYDSXB2WMWAZWJRSN67LWQ0PPJUT","","","null","","","","","","","",""
"78","","image-keyboard-response","212","585297","0.0-141.0","3MTMREQS4W40NUGEJOUWLTAQ38GWA0","A2T675UCHNTSSW","3DFYDSXB2WMWAZWJRSN67LWQ0PPJUT","","img/set1/S1.jpg","74","1","structured_incentive","83","false","structured_incentive,random,structured_normal","2,3,1,2","",""
"null","","html-keyboard-response","213","585649","0.0-142.0","3MTMREQS4W40NUGEJOUWLTAQ38GWA0","A2T675UCHNTSSW","3DFYDSXB2WMWAZWJRSN67LWQ0PPJUT","","<img src=""img/set1/S1.jpg"" width=""540"" height = ""360"">","null","","","","","","","",""
"null","","html-keyboard-response","214","585654","0.0-143.0","3MTMREQS4W40NUGEJOUWLTAQ38GWA0","A2T675UCHNTSSW","3DFYDSXB2WMWAZWJRSN67LWQ0PPJUT","","","null","","","","","","","",""
"886.6000000014901","","image-keyboard-response","215","586543","0.0-144.0","3MTMREQS4W40NUGEJOUWLTAQ38GWA0","A2T675UCHNTSSW","3DFYDSXB2WMWAZWJRSN67LWQ0PPJUT","","img/set1/S1.jpg","74","1","structured_incentive","83","false","structured_incentive,random,structured_normal","2,3,1,2","",""
"null","","html-keyboard-response","216","586896","0.0-145.0","3MTMREQS4W40NUGEJOUWLTAQ38GWA0","A2T675UCHNTSSW","3DFYDSXB2WMWAZWJRSN67LWQ0PPJUT","","<img src=""img/set1/S1.jpg"" width=""540"" height = ""360"">","null","","","","","","","",""
"null","","html-keyboard-response","217","586899","0.0-146.0","3MTMREQS4W40NUGEJOUWLTAQ38GWA0","A2T675UCHNTSSW","3DFYDSXB2WMWAZWJRSN67LWQ0PPJUT","","","null","","","","","","","",""
"64.69999999925494","","image-keyboard-response","218","586965","0.0-147.0","3MTMREQS4W40NUGEJOUWLTAQ38GWA0","A2T675UCHNTSSW","3DFYDSXB2WMWAZWJRSN67LWQ0PPJUT","","img/set1/S2.jpg","68","2","structured_incentive","68","true","structured_incentive,random,structured_normal","2,3,1,2","",""
"null","","html-keyboard-response","219","587318","0.0-148.0","3MTMREQS4W40NUGEJOUWLTAQ38GWA0","A2T675UCHNTSSW","3DFYDSXB2WMWAZWJRSN67LWQ0PPJUT","","<img src=""img/set1/S2.jpg"" width=""540"" height = ""360"" style=""border:16px solid orange"">","null","","","","","","","",""
"null","","html-keyboard-response","220","587320","0.0-149.0","3MTMREQS4W40NUGEJOUWLTAQ38GWA0","A2T675UCHNTSSW","3DFYDSXB2WMWAZWJRSN67LWQ0PPJUT","","","null","","","","","","","",""
"816.6999999992549","","image-keyboard-response","221","588138","0.0-150.0","3MTMREQS4W40NUGEJOUWLTAQ38GWA0","A2T675UCHNTSSW","3DFYDSXB2WMWAZWJRSN67LWQ0PPJUT","","img/set1/S4.jpg","74","4","structured_incentive","74","true","structured_incentive,random,structured_normal","2,3,1,2","",""
"null","","html-keyboard-response","222","588490","0.0-151.0","3MTMREQS4W40NUGEJOUWLTAQ38GWA0","A2T675UCHNTSSW","3DFYDSXB2WMWAZWJRSN67LWQ0PPJUT","","<img src=""img/set1/S4.jpg"" width=""540"" height = ""360"" style=""border:16px solid Violet"">","null","","","","","","","",""
"null","","html-keyboard-response","223","588493","0.0-152.0","3MTMREQS4W40NUGEJOUWLTAQ38GWA0","A2T675UCHNTSSW","3DFYDSXB2WMWAZWJRSN67LWQ0PPJUT","","","null","","","","","","","",""
"573.0999999977648","","image-keyboard-response","224","589068","0.0-153.0","3MTMREQS4W40NUGEJOUWLTAQ38GWA0","A2T675UCHNTSSW","3DFYDSXB2WMWAZWJRSN67LWQ0PPJUT","","img/set1/S4.jpg","74","4","structured_incentive","74","true","structured_incentive,random,structured_normal","2,3,1,2","",""
"null","","html-keyboard-response","225","589421","0.0-154.0","3MTMREQS4W40NUGEJOUWLTAQ38GWA0","A2T675UCHNTSSW","3DFYDSXB2WMWAZWJRSN67LWQ0PPJUT","","<img src=""img/set1/S4.jpg"" width=""540"" height = ""360"" style=""border:16px solid Violet"">","null","","","","","","","",""
"null","","html-keyboard-response","226","589424","0.0-155.0","3MTMREQS4W40NUGEJOUWLTAQ38GWA0","A2T675UCHNTSSW","3DFYDSXB2WMWAZWJRSN67LWQ0PPJUT","","","null","","","","","","","",""
"1734.0999999977648","","image-keyboard-response","227","591159","0.0-156.0","3MTMREQS4W40NUGEJOUWLTAQ38GWA0","A2T675UCHNTSSW","3DFYDSXB2WMWAZWJRSN67LWQ0PPJUT","","img/set1/S2.jpg","83","2","structured_incentive","68","false","structured_incentive,random,structured_normal","2,3,1,2","",""
"null","","html-keyboard-response","228","591511","0.0-157.0","3MTMREQS4W40NUGEJOUWLTAQ38GWA0","A2T675UCHNTSSW","3DFYDSXB2WMWAZWJRSN67LWQ0PPJUT","","<img src=""img/set1/S2.jpg"" width=""540"" height = ""360"">","null","","","","","","","",""
"null","","html-keyboard-response","229","591514","0.0-158.0","3MTMREQS4W40NUGEJOUWLTAQ38GWA0","A2T675UCHNTSSW","3DFYDSXB2WMWAZWJRSN67LWQ0PPJUT","","","null","","","","","","","",""
"605.1999999992549","","image-keyboard-response","230","592121","0.0-159.0","3MTMREQS4W40NUGEJOUWLTAQ38GWA0","A2T675UCHNTSSW","3DFYDSXB2WMWAZWJRSN67LWQ0PPJUT","","img/set1/S3.jpg","74","3","structured_incentive","72","false","structured_incentive,random,structured_normal","2,3,1,2","",""
"null","","html-keyboard-response","231","592476","0.0-160.0","3MTMREQS4W40NUGEJOUWLTAQ38GWA0","A2T675UCHNTSSW","3DFYDSXB2WMWAZWJRSN67LWQ0PPJUT","","<img src=""img/set1/S3.jpg"" width=""540"" height = ""360"">","null","","","","","","","",""
"null","","html-keyboard-response","232","592479","0.0-161.0","3MTMREQS4W40NUGEJOUWLTAQ38GWA0","A2T675UCHNTSSW","3DFYDSXB2WMWAZWJRSN67LWQ0PPJUT","","","null","","","","","","","",""
"128.80000000074506","","image-keyboard-response","233","592610","0.0-162.0","3MTMREQS4W40NUGEJOUWLTAQ38GWA0","A2T675UCHNTSSW","3DFYDSXB2WMWAZWJRSN67LWQ0PPJUT","","img/set1/S4.jpg","83","4","structured_incentive","74","false","structured_incentive,random,structured_normal","2,3,1,2","",""
"null","","html-keyboard-response","234","592962","0.0-163.0","3MTMREQS4W40NUGEJOUWLTAQ38GWA0","A2T675UCHNTSSW","3DFYDSXB2WMWAZWJRSN67LWQ0PPJUT","","<img src=""img/set1/S4.jpg"" width=""540"" height = ""360"">","null","","","","","","","",""
"null","","html-keyboard-response","235","592964","0.0-164.0","3MTMREQS4W40NUGEJOUWLTAQ38GWA0","A2T675UCHNTSSW","3DFYDSXB2WMWAZWJRSN67LWQ0PPJUT","","","null","","","","","","","",""
"155.89999999850988","","image-keyboard-response","236","593121","0.0-165.0","3MTMREQS4W40NUGEJOUWLTAQ38GWA0","A2T675UCHNTSSW","3DFYDSXB2WMWAZWJRSN67LWQ0PPJUT","","img/set1/S4.jpg","74","4","structured_incentive","74","true","structured_incentive,random,structured_normal","2,3,1,2","",""
"null","","html-keyboard-response","237","593474","0.0-166.0","3MTMREQS4W40NUGEJOUWLTAQ38GWA0","A2T675UCHNTSSW","3DFYDSXB2WMWAZWJRSN67LWQ0PPJUT","","<img src=""img/set1/S4.jpg"" width=""540"" height = ""360"" style=""border:16px solid Violet"">","null","","","","","","","",""
"null","","html-keyboard-response","238","593485","0.0-167.0","3MTMREQS4W40NUGEJOUWLTAQ38GWA0","A2T675UCHNTSSW","3DFYDSXB2WMWAZWJRSN67LWQ0PPJUT","","","null","","","","","","","",""
"461.20000000298023","","image-keyboard-response","239","593947","0.0-168.0","3MTMREQS4W40NUGEJOUWLTAQ38GWA0","A2T675UCHNTSSW","3DFYDSXB2WMWAZWJRSN67LWQ0PPJUT","","img/set1/S4.jpg","74","4","structured_incentive","74","true","structured_incentive,random,structured_normal","2,3,1,2","",""
"null","","html-keyboard-response","240","594299","0.0-169.0","3MTMREQS4W40NUGEJOUWLTAQ38GWA0","A2T675UCHNTSSW","3DFYDSXB2WMWAZWJRSN67LWQ0PPJUT","","<img src=""img/set1/S4.jpg"" width=""540"" height = ""360"" style=""border:16px solid Violet"">","null","","","","","","","",""
"null","","html-keyboard-response","241","594301","0.0-170.0","3MTMREQS4W40NUGEJOUWLTAQ38GWA0","A2T675UCHNTSSW","3DFYDSXB2WMWAZWJRSN67LWQ0PPJUT","","","null","","","","","","","",""
"1087.4000000022352","","image-keyboard-response","242","595390","0.0-171.0","3MTMREQS4W40NUGEJOUWLTAQ38GWA0","A2T675UCHNTSSW","3DFYDSXB2WMWAZWJRSN67LWQ0PPJUT","","img/set1/S2.jpg","68","2","structured_incentive","68","true","structured_incentive,random,structured_normal","2,3,1,2","",""
"null","","html-keyboard-response","243","595743","0.0-172.0","3MTMREQS4W40NUGEJOUWLTAQ38GWA0","A2T675UCHNTSSW","3DFYDSXB2WMWAZWJRSN67LWQ0PPJUT","","<img src=""img/set1/S2.jpg"" width=""540"" height = ""360"" style=""border:16px solid orange"">","null","","","","","","","",""
"null","","html-keyboard-response","244","595745","0.0-173.0","3MTMREQS4W40NUGEJOUWLTAQ38GWA0","A2T675UCHNTSSW","3DFYDSXB2WMWAZWJRSN67LWQ0PPJUT","","","null","","","","","","","",""
"1204.5","","image-keyboard-response","245","596951","0.0-174.0","3MTMREQS4W40NUGEJOUWLTAQ38GWA0","A2T675UCHNTSSW","3DFYDSXB2WMWAZWJRSN67LWQ0PPJUT","","img/set1/S3.jpg","83","3","structured_incentive","72","false","structured_incentive,random,structured_normal","2,3,1,2","",""
"null","","html-keyboard-response","246","597304","0.0-175.0","3MTMREQS4W40NUGEJOUWLTAQ38GWA0","A2T675UCHNTSSW","3DFYDSXB2WMWAZWJRSN67LWQ0PPJUT","","<img src=""img/set1/S3.jpg"" width=""540"" height = ""360"">","null","","","","","","","",""
"null","","html-keyboard-response","247","597306","0.0-176.0","3MTMREQS4W40NUGEJOUWLTAQ38GWA0","A2T675UCHNTSSW","3DFYDSXB2WMWAZWJRSN67LWQ0PPJUT","","","null","","","","","","","",""
"31.5","","image-keyboard-response","248","597339","0.0-177.0","3MTMREQS4W40NUGEJOUWLTAQ38GWA0","A2T675UCHNTSSW","3DFYDSXB2WMWAZWJRSN67LWQ0PPJUT","","img/set1/S3.jpg","68","3","structured_incentive","72","false","structured_incentive,random,structured_normal","2,3,1,2","",""
"null","","html-keyboard-response","249","597692","0.0-178.0","3MTMREQS4W40NUGEJOUWLTAQ38GWA0","A2T675UCHNTSSW","3DFYDSXB2WMWAZWJRSN67LWQ0PPJUT","","<img src=""img/set1/S3.jpg"" width=""540"" height = ""360"">","null","","","","","","","",""
"null","","html-keyboard-response","250","597697","0.0-179.0","3MTMREQS4W40NUGEJOUWLTAQ38GWA0","A2T675UCHNTSSW","3DFYDSXB2WMWAZWJRSN67LWQ0PPJUT","","","null","","","","","","","",""
"464.1000000014901","","image-keyboard-response","251","598163","0.0-180.0","3MTMREQS4W40NUGEJOUWLTAQ38GWA0","A2T675UCHNTSSW","3DFYDSXB2WMWAZWJRSN67LWQ0PPJUT","","img/set1/S4.jpg","74","4","structured_incentive","74","true","structured_incentive,random,structured_normal","2,3,1,2","",""
"null","","html-keyboard-response","252","598516","0.0-181.0","3MTMREQS4W40NUGEJOUWLTAQ38GWA0","A2T675UCHNTSSW","3DFYDSXB2WMWAZWJRSN67LWQ0PPJUT","","<img src=""img/set1/S4.jpg"" width=""540"" height = ""360"" style=""border:16px solid Violet"">","null","","","","","","","",""
"null","","html-keyboard-response","253","598519","0.0-182.0","3MTMREQS4W40NUGEJOUWLTAQ38GWA0","A2T675UCHNTSSW","3DFYDSXB2WMWAZWJRSN67LWQ0PPJUT","","","null","","","","","","","",""
"1260.199999999255","","image-keyboard-response","254","599781","0.0-183.0","3MTMREQS4W40NUGEJOUWLTAQ38GWA0","A2T675UCHNTSSW","3DFYDSXB2WMWAZWJRSN67LWQ0PPJUT","","img/set1/S1.jpg","83","1","structured_incentive","83","true","structured_incentive,random,structured_normal","2,3,1,2","",""
"null","","html-keyboard-response","255","600133","0.0-184.0","3MTMREQS4W40NUGEJOUWLTAQ38GWA0","A2T675UCHNTSSW","3DFYDSXB2WMWAZWJRSN67LWQ0PPJUT","","<img src=""img/set1/S1.jpg"" width=""540"" height = ""360"" style=""border:16px solid orange"">","null","","","","","","","",""
"null","","html-keyboard-response","256","600135","0.0-185.0","3MTMREQS4W40NUGEJOUWLTAQ38GWA0","A2T675UCHNTSSW","3DFYDSXB2WMWAZWJRSN67LWQ0PPJUT","","","null","","","","","","","",""
"1142.2999999970198","","image-keyboard-response","257","601280","0.0-186.0","3MTMREQS4W40NUGEJOUWLTAQ38GWA0","A2T675UCHNTSSW","3DFYDSXB2WMWAZWJRSN67LWQ0PPJUT","","img/set1/S2.jpg","68","2","structured_incentive","68","true","structured_incentive,random,structured_normal","2,3,1,2","",""
"null","","html-keyboard-response","258","601634","0.0-187.0","3MTMREQS4W40NUGEJOUWLTAQ38GWA0","A2T675UCHNTSSW","3DFYDSXB2WMWAZWJRSN67LWQ0PPJUT","","<img src=""img/set1/S2.jpg"" width=""540"" height = ""360"" style=""border:16px solid orange"">","null","","","","","","","",""
"null","","html-keyboard-response","259","601637","0.0-188.0","3MTMREQS4W40NUGEJOUWLTAQ38GWA0","A2T675UCHNTSSW","3DFYDSXB2WMWAZWJRSN67LWQ0PPJUT","","","null","","","","","","","",""
"950.6999999992549","","image-keyboard-response","260","602589","0.0-189.0","3MTMREQS4W40NUGEJOUWLTAQ38GWA0","A2T675UCHNTSSW","3DFYDSXB2WMWAZWJRSN67LWQ0PPJUT","","img/set1/S3.jpg","83","3","structured_incentive","72","false","structured_incentive,random,structured_normal","2,3,1,2","",""
"null","","html-keyboard-response","261","602942","0.0-190.0","3MTMREQS4W40NUGEJOUWLTAQ38GWA0","A2T675UCHNTSSW","3DFYDSXB2WMWAZWJRSN67LWQ0PPJUT","","<img src=""img/set1/S3.jpg"" width=""540"" height = ""360"">","null","","","","","","","",""
"null","","html-keyboard-response","262","602944","0.0-191.0","3MTMREQS4W40NUGEJOUWLTAQ38GWA0","A2T675UCHNTSSW","3DFYDSXB2WMWAZWJRSN67LWQ0PPJUT","","","null","","","","","","","",""
"109.69999999925494","","image-keyboard-response","263","603056","0.0-192.0","3MTMREQS4W40NUGEJOUWLTAQ38GWA0","A2T675UCHNTSSW","3DFYDSXB2WMWAZWJRSN67LWQ0PPJUT","","img/set1/S1.jpg","68","1","structured_incentive","83","false","structured_incentive,random,structured_normal","2,3,1,2","",""
"null","","html-keyboard-response","264","603409","0.0-193.0","3MTMREQS4W40NUGEJOUWLTAQ38GWA0","A2T675UCHNTSSW","3DFYDSXB2WMWAZWJRSN67LWQ0PPJUT","","<img src=""img/set1/S1.jpg"" width=""540"" height = ""360"">","null","","","","","","","",""
"null","","html-keyboard-response","265","603418","0.0-194.0","3MTMREQS4W40NUGEJOUWLTAQ38GWA0","A2T675UCHNTSSW","3DFYDSXB2WMWAZWJRSN67LWQ0PPJUT","","","null","","","","","","","",""
"789.5","","image-keyboard-response","266","604210","0.0-195.0","3MTMREQS4W40NUGEJOUWLTAQ38GWA0","A2T675UCHNTSSW","3DFYDSXB2WMWAZWJRSN67LWQ0PPJUT","","img/set1/S2.jpg","68","2","structured_incentive","68","true","structured_incentive,random,structured_normal","2,3,1,2","",""
"null","","html-keyboard-response","267","604563","0.0-196.0","3MTMREQS4W40NUGEJOUWLTAQ38GWA0","A2T675UCHNTSSW","3DFYDSXB2WMWAZWJRSN67LWQ0PPJUT","","<img src=""img/set1/S2.jpg"" width=""540"" height = ""360"" style=""border:16px solid orange"">","null","","","","","","","",""
"null","","html-keyboard-response","268","604592","0.0-197.0","3MTMREQS4W40NUGEJOUWLTAQ38GWA0","A2T675UCHNTSSW","3DFYDSXB2WMWAZWJRSN67LWQ0PPJUT","","","null","","","","","","","",""
"779.8999999985099","","image-keyboard-response","269","605375","0.0-198.0","3MTMREQS4W40NUGEJOUWLTAQ38GWA0","A2T675UCHNTSSW","3DFYDSXB2WMWAZWJRSN67LWQ0PPJUT","","img/set1/S3.jpg","74","3","structured_incentive","72","false","structured_incentive,random,structured_normal","2,3,1,2","",""
"null","","html-keyboard-response","270","605728","0.0-199.0","3MTMREQS4W40NUGEJOUWLTAQ38GWA0","A2T675UCHNTSSW","3DFYDSXB2WMWAZWJRSN67LWQ0PPJUT","","<img src=""img/set1/S3.jpg"" width=""540"" height = ""360"">","null","","","","","","","",""
"null","","html-keyboard-response","271","605740","0.0-200.0","3MTMREQS4W40NUGEJOUWLTAQ38GWA0","A2T675UCHNTSSW","3DFYDSXB2WMWAZWJRSN67LWQ0PPJUT","","","null","","","","","","","",""
"77.89999999850988","","image-keyboard-response","272","605820","0.0-201.0","3MTMREQS4W40NUGEJOUWLTAQ38GWA0","A2T675UCHNTSSW","3DFYDSXB2WMWAZWJRSN67LWQ0PPJUT","","img/set1/S4.jpg","68","4","structured_incentive","74","false","structured_incentive,random,structured_normal","2,3,1,2","",""
"null","","html-keyboard-response","273","606173","0.0-202.0","3MTMREQS4W40NUGEJOUWLTAQ38GWA0","A2T675UCHNTSSW","3DFYDSXB2WMWAZWJRSN67LWQ0PPJUT","","<img src=""img/set1/S4.jpg"" width=""540"" height = ""360"">","null","","","","","","","",""
"null","","html-keyboard-response","274","606178","0.0-203.0","3MTMREQS4W40NUGEJOUWLTAQ38GWA0","A2T675UCHNTSSW","3DFYDSXB2WMWAZWJRSN67LWQ0PPJUT","","","null","","","","","","","",""
"82.79999999701977","","image-keyboard-response","275","606264","0.0-204.0","3MTMREQS4W40NUGEJOUWLTAQ38GWA0","A2T675UCHNTSSW","3DFYDSXB2WMWAZWJRSN67LWQ0PPJUT","","img/set1/S1.jpg","74","1","structured_incentive","83","false","structured_incentive,random,structured_normal","2,3,1,2","",""
"null","","html-keyboard-response","276","606617","0.0-205.0","3MTMREQS4W40NUGEJOUWLTAQ38GWA0","A2T675UCHNTSSW","3DFYDSXB2WMWAZWJRSN67LWQ0PPJUT","","<img src=""img/set1/S1.jpg"" width=""540"" height = ""360"">","null","","","","","","","",""
"null","","html-keyboard-response","277","606619","0.0-206.0","3MTMREQS4W40NUGEJOUWLTAQ38GWA0","A2T675UCHNTSSW","3DFYDSXB2WMWAZWJRSN67LWQ0PPJUT","","","null","","","","","","","",""
"684.5","","image-keyboard-response","278","607305","0.0-207.0","3MTMREQS4W40NUGEJOUWLTAQ38GWA0","A2T675UCHNTSSW","3DFYDSXB2WMWAZWJRSN67LWQ0PPJUT","","img/set1/S2.jpg","68","2","structured_incentive","68","true","structured_incentive,random,structured_normal","2,3,1,2","",""
"null","","html-keyboard-response","279","607668","0.0-208.0","3MTMREQS4W40NUGEJOUWLTAQ38GWA0","A2T675UCHNTSSW","3DFYDSXB2WMWAZWJRSN67LWQ0PPJUT","","<img src=""img/set1/S2.jpg"" width=""540"" height = ""360"" style=""border:16px solid orange"">","null","","","","","","","",""
"null","","html-keyboard-response","280","607670","0.0-209.0","3MTMREQS4W40NUGEJOUWLTAQ38GWA0","A2T675UCHNTSSW","3DFYDSXB2WMWAZWJRSN67LWQ0PPJUT","","","null","","","","","","","",""
"501.6000000014901","","image-keyboard-response","281","608173","0.0-210.0","3MTMREQS4W40NUGEJOUWLTAQ38GWA0","A2T675UCHNTSSW","3DFYDSXB2WMWAZWJRSN67LWQ0PPJUT","","img/set1/S4.jpg","74","4","structured_incentive","74","true","structured_incentive,random,structured_normal","2,3,1,2","",""
"null","","html-keyboard-response","282","608538","0.0-211.0","3MTMREQS4W40NUGEJOUWLTAQ38GWA0","A2T675UCHNTSSW","3DFYDSXB2WMWAZWJRSN67LWQ0PPJUT","","<img src=""img/set1/S4.jpg"" width=""540"" height = ""360"" style=""border:16px solid Violet"">","null","","","","","","","",""
"null","","html-keyboard-response","283","608541","0.0-212.0","3MTMREQS4W40NUGEJOUWLTAQ38GWA0","A2T675UCHNTSSW","3DFYDSXB2WMWAZWJRSN67LWQ0PPJUT","","","null","","","","","","","",""
"1769.8999999985099","","image-keyboard-response","284","610313","0.0-213.0","3MTMREQS4W40NUGEJOUWLTAQ38GWA0","A2T675UCHNTSSW","3DFYDSXB2WMWAZWJRSN67LWQ0PPJUT","","img/set1/S1.jpg","74","1","structured_incentive","83","false","structured_incentive,random,structured_normal","2,3,1,2","",""
"null","","html-keyboard-response","285","610665","0.0-214.0","3MTMREQS4W40NUGEJOUWLTAQ38GWA0","A2T675UCHNTSSW","3DFYDSXB2WMWAZWJRSN67LWQ0PPJUT","","<img src=""img/set1/S1.jpg"" width=""540"" height = ""360"">","null","","","","","","","",""
"null","","html-keyboard-response","286","610667","0.0-215.0","3MTMREQS4W40NUGEJOUWLTAQ38GWA0","A2T675UCHNTSSW","3DFYDSXB2WMWAZWJRSN67LWQ0PPJUT","","","null","","","","","","","",""
"207.69999999925494","","image-keyboard-response","287","610876","0.0-216.0","3MTMREQS4W40NUGEJOUWLTAQ38GWA0","A2T675UCHNTSSW","3DFYDSXB2WMWAZWJRSN67LWQ0PPJUT","","img/set1/S1.jpg","83","1","structured_incentive","83","true","structured_incentive,random,structured_normal","2,3,1,2","",""
"null","","html-keyboard-response","288","611238","0.0-217.0","3MTMREQS4W40NUGEJOUWLTAQ38GWA0","A2T675UCHNTSSW","3DFYDSXB2WMWAZWJRSN67LWQ0PPJUT","","<img src=""img/set1/S1.jpg"" width=""540"" height = ""360"" style=""border:16px solid orange"">","null","","","","","","","",""
"null","","html-keyboard-response","289","611241","0.0-218.0","3MTMREQS4W40NUGEJOUWLTAQ38GWA0","A2T675UCHNTSSW","3DFYDSXB2WMWAZWJRSN67LWQ0PPJUT","","","null","","","","","","","",""
"1030.300000000745","","image-keyboard-response","290","612274","0.0-219.0","3MTMREQS4W40NUGEJOUWLTAQ38GWA0","A2T675UCHNTSSW","3DFYDSXB2WMWAZWJRSN67LWQ0PPJUT","","img/set1/S1.jpg","68","1","structured_incentive","83","false","structured_incentive,random,structured_normal","2,3,1,2","",""
"null","","html-keyboard-response","291","612628","0.0-220.0","3MTMREQS4W40NUGEJOUWLTAQ38GWA0","A2T675UCHNTSSW","3DFYDSXB2WMWAZWJRSN67LWQ0PPJUT","","<img src=""img/set1/S1.jpg"" width=""540"" height = ""360"">","null","","","","","","","",""
"null","","html-keyboard-response","292","612630","0.0-221.0","3MTMREQS4W40NUGEJOUWLTAQ38GWA0","A2T675UCHNTSSW","3DFYDSXB2WMWAZWJRSN67LWQ0PPJUT","","","null","","","","","","","",""
"815.1000000014901","","image-keyboard-response","293","613447","0.0-222.0","3MTMREQS4W40NUGEJOUWLTAQ38GWA0","A2T675UCHNTSSW","3DFYDSXB2WMWAZWJRSN67LWQ0PPJUT","","img/set1/S2.jpg","68","2","structured_incentive","68","true","structured_incentive,random,structured_normal","2,3,1,2","",""
"null","","html-keyboard-response","294","613800","0.0-223.0","3MTMREQS4W40NUGEJOUWLTAQ38GWA0","A2T675UCHNTSSW","3DFYDSXB2WMWAZWJRSN67LWQ0PPJUT","","<img src=""img/set1/S2.jpg"" width=""540"" height = ""360"" style=""border:16px solid orange"">","null","","","","","","","",""
"null","","html-keyboard-response","295","613805","0.0-224.0","3MTMREQS4W40NUGEJOUWLTAQ38GWA0","A2T675UCHNTSSW","3DFYDSXB2WMWAZWJRSN67LWQ0PPJUT","","","null","","","","","","","",""
"724.2000000029802","","image-keyboard-response","296","614532","0.0-225.0","3MTMREQS4W40NUGEJOUWLTAQ38GWA0","A2T675UCHNTSSW","3DFYDSXB2WMWAZWJRSN67LWQ0PPJUT","","img/set1/S3.jpg","83","3","structured_incentive","72","false","structured_incentive,random,structured_normal","2,3,1,2","",""
"null","","html-keyboard-response","297","614885","0.0-226.0","3MTMREQS4W40NUGEJOUWLTAQ38GWA0","A2T675UCHNTSSW","3DFYDSXB2WMWAZWJRSN67LWQ0PPJUT","","<img src=""img/set1/S3.jpg"" width=""540"" height = ""360"">","null","","","","","","","",""
"null","","html-keyboard-response","298","614888","0.0-227.0","3MTMREQS4W40NUGEJOUWLTAQ38GWA0","A2T675UCHNTSSW","3DFYDSXB2WMWAZWJRSN67LWQ0PPJUT","","","null","","","","","","","",""
"74.80000000074506","","image-keyboard-response","299","614964","0.0-228.0","3MTMREQS4W40NUGEJOUWLTAQ38GWA0","A2T675UCHNTSSW","3DFYDSXB2WMWAZWJRSN67LWQ0PPJUT","","img/set1/S3.jpg","68","3","structured_incentive","72","false","structured_incentive,random,structured_normal","2,3,1,2","",""
"null","","html-keyboard-response","300","615316","0.0-229.0","3MTMREQS4W40NUGEJOUWLTAQ38GWA0","A2T675UCHNTSSW","3DFYDSXB2WMWAZWJRSN67LWQ0PPJUT","","<img src=""img/set1/S3.jpg"" width=""540"" height = ""360"">","null","","","","","","","",""
"null","","html-keyboard-response","301","615319","0.0-230.0","3MTMREQS4W40NUGEJOUWLTAQ38GWA0","A2T675UCHNTSSW","3DFYDSXB2WMWAZWJRSN67LWQ0PPJUT","","","null","","","","","","","",""
"603.1999999992549","","image-keyboard-response","302","615924","0.0-231.0","3MTMREQS4W40NUGEJOUWLTAQ38GWA0","A2T675UCHNTSSW","3DFYDSXB2WMWAZWJRSN67LWQ0PPJUT","","img/set1/S4.jpg","74","4","structured_incentive","74","true","structured_incentive,random,structured_normal","2,3,1,2","",""
"null","","html-keyboard-response","303","616277","0.0-232.0","3MTMREQS4W40NUGEJOUWLTAQ38GWA0","A2T675UCHNTSSW","3DFYDSXB2WMWAZWJRSN67LWQ0PPJUT","","<img src=""img/set1/S4.jpg"" width=""540"" height = ""360"" style=""border:16px solid Violet"">","null","","","","","","","",""
"null","","html-keyboard-response","304","616281","0.0-233.0","3MTMREQS4W40NUGEJOUWLTAQ38GWA0","A2T675UCHNTSSW","3DFYDSXB2WMWAZWJRSN67LWQ0PPJUT","","","null","","","","","","","",""
"719.0999999977648","","image-keyboard-response","305","617002","0.0-234.0","3MTMREQS4W40NUGEJOUWLTAQ38GWA0","A2T675UCHNTSSW","3DFYDSXB2WMWAZWJRSN67LWQ0PPJUT","","img/set1/S1.jpg","83","1","structured_incentive","83","true","structured_incentive,random,structured_normal","2,3,1,2","",""
"null","","html-keyboard-response","306","617357","0.0-235.0","3MTMREQS4W40NUGEJOUWLTAQ38GWA0","A2T675UCHNTSSW","3DFYDSXB2WMWAZWJRSN67LWQ0PPJUT","","<img src=""img/set1/S1.jpg"" width=""540"" height = ""360"" style=""border:16px solid orange"">","null","","","","","","","",""
"null","","html-keyboard-response","307","617361","0.0-236.0","3MTMREQS4W40NUGEJOUWLTAQ38GWA0","A2T675UCHNTSSW","3DFYDSXB2WMWAZWJRSN67LWQ0PPJUT","","","null","","","","","","","",""
"1151.5","","image-keyboard-response","308","618516","0.0-237.0","3MTMREQS4W40NUGEJOUWLTAQ38GWA0","A2T675UCHNTSSW","3DFYDSXB2WMWAZWJRSN67LWQ0PPJUT","","img/set1/S2.jpg","68","2","structured_incentive","68","true","structured_incentive,random,structured_normal","2,3,1,2","",""
"null","","html-keyboard-response","309","618868","0.0-238.0","3MTMREQS4W40NUGEJOUWLTAQ38GWA0","A2T675UCHNTSSW","3DFYDSXB2WMWAZWJRSN67LWQ0PPJUT","","<img src=""img/set1/S2.jpg"" width=""540"" height = ""360"" style=""border:16px solid orange"">","null","","","","","","","",""
"null","","html-keyboard-response","310","618871","0.0-239.0","3MTMREQS4W40NUGEJOUWLTAQ38GWA0","A2T675UCHNTSSW","3DFYDSXB2WMWAZWJRSN67LWQ0PPJUT","","","null","","","","","","","",""
"916.5999999977648","","image-keyboard-response","311","619790","0.0-240.0","3MTMREQS4W40NUGEJOUWLTAQ38GWA0","A2T675UCHNTSSW","3DFYDSXB2WMWAZWJRSN67LWQ0PPJUT","","img/set1/S3.jpg","83","3","structured_incentive","72","false","structured_incentive,random,structured_normal","2,3,1,2","",""
"null","","html-keyboard-response","312","620144","0.0-241.0","3MTMREQS4W40NUGEJOUWLTAQ38GWA0","A2T675UCHNTSSW","3DFYDSXB2WMWAZWJRSN67LWQ0PPJUT","","<img src=""img/set1/S3.jpg"" width=""540"" height = ""360"">","null","","","","","","","",""
"null","","html-keyboard-response","313","620149","0.0-242.0","3MTMREQS4W40NUGEJOUWLTAQ38GWA0","A2T675UCHNTSSW","3DFYDSXB2WMWAZWJRSN67LWQ0PPJUT","","","null","","","","","","","",""
"15.699999999254942","","image-keyboard-response","314","620168","0.0-243.0","3MTMREQS4W40NUGEJOUWLTAQ38GWA0","A2T675UCHNTSSW","3DFYDSXB2WMWAZWJRSN67LWQ0PPJUT","","img/set1/S1.jpg","68","1","structured_incentive","83","false","structured_incentive,random,structured_normal","2,3,1,2","",""
"null","","html-keyboard-response","315","620523","0.0-244.0","3MTMREQS4W40NUGEJOUWLTAQ38GWA0","A2T675UCHNTSSW","3DFYDSXB2WMWAZWJRSN67LWQ0PPJUT","","<img src=""img/set1/S1.jpg"" width=""540"" height = ""360"">","null","","","","","","","",""
"null","","html-keyboard-response","316","620530","0.0-245.0","3MTMREQS4W40NUGEJOUWLTAQ38GWA0","A2T675UCHNTSSW","3DFYDSXB2WMWAZWJRSN67LWQ0PPJUT","","","null","","","","","","","",""
"839.1000000014901","","image-keyboard-response","317","621372","0.0-246.0","3MTMREQS4W40NUGEJOUWLTAQ38GWA0","A2T675UCHNTSSW","3DFYDSXB2WMWAZWJRSN67LWQ0PPJUT","","img/set1/S1.jpg","74","1","structured_incentive","83","false","structured_incentive,random,structured_normal","2,3,1,2","",""
"null","","html-keyboard-response","318","621742","0.0-247.0","3MTMREQS4W40NUGEJOUWLTAQ38GWA0","A2T675UCHNTSSW","3DFYDSXB2WMWAZWJRSN67LWQ0PPJUT","","<img src=""img/set1/S1.jpg"" width=""540"" height = ""360"">","null","","","","","","","",""
"null","","html-keyboard-response","319","621746","0.0-248.0","3MTMREQS4W40NUGEJOUWLTAQ38GWA0","A2T675UCHNTSSW","3DFYDSXB2WMWAZWJRSN67LWQ0PPJUT","","","null","","","","","","","",""
"612.5","","image-keyboard-response","320","622363","0.0-249.0","3MTMREQS4W40NUGEJOUWLTAQ38GWA0","A2T675UCHNTSSW","3DFYDSXB2WMWAZWJRSN67LWQ0PPJUT","","img/set1/S2.jpg","68","2","structured_incentive","68","true","structured_incentive,random,structured_normal","2,3,1,2","",""
"null","","html-keyboard-response","321","622719","0.0-250.0","3MTMREQS4W40NUGEJOUWLTAQ38GWA0","A2T675UCHNTSSW","3DFYDSXB2WMWAZWJRSN67LWQ0PPJUT","","<img src=""img/set1/S2.jpg"" width=""540"" height = ""360"" style=""border:16px solid orange"">","null","","","","","","","",""
"null","","html-keyboard-response","322","622725","0.0-251.0","3MTMREQS4W40NUGEJOUWLTAQ38GWA0","A2T675UCHNTSSW","3DFYDSXB2WMWAZWJRSN67LWQ0PPJUT","","","null","","","","","","","",""
"492.1000000014901","","image-keyboard-response","323","623219","0.0-252.0","3MTMREQS4W40NUGEJOUWLTAQ38GWA0","A2T675UCHNTSSW","3DFYDSXB2WMWAZWJRSN67LWQ0PPJUT","","img/set1/S4.jpg","74","4","structured_incentive","74","true","structured_incentive,random,structured_normal","2,3,1,2","",""
"null","","html-keyboard-response","324","623572","0.0-253.0","3MTMREQS4W40NUGEJOUWLTAQ38GWA0","A2T675UCHNTSSW","3DFYDSXB2WMWAZWJRSN67LWQ0PPJUT","","<img src=""img/set1/S4.jpg"" width=""540"" height = ""360"" style=""border:16px solid Violet"">","null","","","","","","","",""
"null","","html-keyboard-response","325","623576","0.0-254.0","3MTMREQS4W40NUGEJOUWLTAQ38GWA0","A2T675UCHNTSSW","3DFYDSXB2WMWAZWJRSN67LWQ0PPJUT","","","null","","","","","","","",""
"549.8999999985099","","image-keyboard-response","326","624130","0.0-255.0","3MTMREQS4W40NUGEJOUWLTAQ38GWA0","A2T675UCHNTSSW","3DFYDSXB2WMWAZWJRSN67LWQ0PPJUT","","img/set1/S2.jpg","68","2","structured_incentive","68","true","structured_incentive,random,structured_normal","2,3,1,2","",""
"null","","html-keyboard-response","327","624482","0.0-256.0","3MTMREQS4W40NUGEJOUWLTAQ38GWA0","A2T675UCHNTSSW","3DFYDSXB2WMWAZWJRSN67LWQ0PPJUT","","<img src=""img/set1/S2.jpg"" width=""540"" height = ""360"" style=""border:16px solid orange"">","null","","","","","","","",""
"null","","html-keyboard-response","328","624484","0.0-257.0","3MTMREQS4W40NUGEJOUWLTAQ38GWA0","A2T675UCHNTSSW","3DFYDSXB2WMWAZWJRSN67LWQ0PPJUT","","","null","","","","","","","",""
"970.3999999985099","","image-keyboard-response","329","625456","0.0-258.0","3MTMREQS4W40NUGEJOUWLTAQ38GWA0","A2T675UCHNTSSW","3DFYDSXB2WMWAZWJRSN67LWQ0PPJUT","","img/set1/S3.jpg","83","3","structured_incentive","72","false","structured_incentive,random,structured_normal","2,3,1,2","",""
"null","","html-keyboard-response","330","625809","0.0-259.0","3MTMREQS4W40NUGEJOUWLTAQ38GWA0","A2T675UCHNTSSW","3DFYDSXB2WMWAZWJRSN67LWQ0PPJUT","","<img src=""img/set1/S3.jpg"" width=""540"" height = ""360"">","null","","","","","","","",""
"null","","html-keyboard-response","331","625823","0.0-260.0","3MTMREQS4W40NUGEJOUWLTAQ38GWA0","A2T675UCHNTSSW","3DFYDSXB2WMWAZWJRSN67LWQ0PPJUT","","","null","","","","","","","",""
"180.09999999776483","","image-keyboard-response","332","626006","0.0-261.0","3MTMREQS4W40NUGEJOUWLTAQ38GWA0","A2T675UCHNTSSW","3DFYDSXB2WMWAZWJRSN67LWQ0PPJUT","","img/set1/S4.jpg","68","4","structured_incentive","74","false","structured_incentive,random,structured_normal","2,3,1,2","",""
"null","","html-keyboard-response","333","626360","0.0-262.0","3MTMREQS4W40NUGEJOUWLTAQ38GWA0","A2T675UCHNTSSW","3DFYDSXB2WMWAZWJRSN67LWQ0PPJUT","","<img src=""img/set1/S4.jpg"" width=""540"" height = ""360"">","null","","","","","","","",""
"null","","html-keyboard-response","334","626364","0.0-263.0","3MTMREQS4W40NUGEJOUWLTAQ38GWA0","A2T675UCHNTSSW","3DFYDSXB2WMWAZWJRSN67LWQ0PPJUT","","","null","","","","","","","",""
"86.39999999850988","","image-keyboard-response","335","626453","0.0-264.0","3MTMREQS4W40NUGEJOUWLTAQ38GWA0","A2T675UCHNTSSW","3DFYDSXB2WMWAZWJRSN67LWQ0PPJUT","","img/set1/S2.jpg","74","2","structured_incentive","68","false","structured_incentive,random,structured_normal","2,3,1,2","",""
"null","","html-keyboard-response","336","626806","0.0-265.0","3MTMREQS4W40NUGEJOUWLTAQ38GWA0","A2T675UCHNTSSW","3DFYDSXB2WMWAZWJRSN67LWQ0PPJUT","","<img src=""img/set1/S2.jpg"" width=""540"" height = ""360"">","null","","","","","","","",""
"null","","html-keyboard-response","337","626811","0.0-266.0","3MTMREQS4W40NUGEJOUWLTAQ38GWA0","A2T675UCHNTSSW","3DFYDSXB2WMWAZWJRSN67LWQ0PPJUT","","","null","","","","","","","",""
"204.90000000223517","","image-keyboard-response","338","627020","0.0-267.0","3MTMREQS4W40NUGEJOUWLTAQ38GWA0","A2T675UCHNTSSW","3DFYDSXB2WMWAZWJRSN67LWQ0PPJUT","","img/set1/S3.jpg","74","3","structured_incentive","72","false","structured_incentive,random,structured_normal","2,3,1,2","",""
"null","","html-keyboard-response","339","627374","0.0-268.0","3MTMREQS4W40NUGEJOUWLTAQ38GWA0","A2T675UCHNTSSW","3DFYDSXB2WMWAZWJRSN67LWQ0PPJUT","","<img src=""img/set1/S3.jpg"" width=""540"" height = ""360"">","null","","","","","","","",""
"null","","html-keyboard-response","340","627378","0.0-269.0","3MTMREQS4W40NUGEJOUWLTAQ38GWA0","A2T675UCHNTSSW","3DFYDSXB2WMWAZWJRSN67LWQ0PPJUT","","","null","","","","","","","",""
"559.1000000014901","","image-keyboard-response","341","627940","0.0-270.0","3MTMREQS4W40NUGEJOUWLTAQ38GWA0","A2T675UCHNTSSW","3DFYDSXB2WMWAZWJRSN67LWQ0PPJUT","","img/set1/S4.jpg","74","4","structured_incentive","74","true","structured_incentive,random,structured_normal","2,3,1,2","",""
"null","","html-keyboard-response","342","628294","0.0-271.0","3MTMREQS4W40NUGEJOUWLTAQ38GWA0","A2T675UCHNTSSW","3DFYDSXB2WMWAZWJRSN67LWQ0PPJUT","","<img src=""img/set1/S4.jpg"" width=""540"" height = ""360"" style=""border:16px solid Violet"">","null","","","","","","","",""
"null","","html-keyboard-response","343","628298","0.0-272.0","3MTMREQS4W40NUGEJOUWLTAQ38GWA0","A2T675UCHNTSSW","3DFYDSXB2WMWAZWJRSN67LWQ0PPJUT","","","null","","","","","","","",""
"639.1000000014901","","image-keyboard-response","344","628940","0.0-273.0","3MTMREQS4W40NUGEJOUWLTAQ38GWA0","A2T675UCHNTSSW","3DFYDSXB2WMWAZWJRSN67LWQ0PPJUT","","img/set1/S2.jpg","68","2","structured_incentive","68","true","structured_incentive,random,structured_normal","2,3,1,2","",""
"null","","html-keyboard-response","345","629309","0.0-274.0","3MTMREQS4W40NUGEJOUWLTAQ38GWA0","A2T675UCHNTSSW","3DFYDSXB2WMWAZWJRSN67LWQ0PPJUT","","<img src=""img/set1/S2.jpg"" width=""540"" height = ""360"" style=""border:16px solid orange"">","null","","","","","","","",""
"null","","html-keyboard-response","346","629312","0.0-275.0","3MTMREQS4W40NUGEJOUWLTAQ38GWA0","A2T675UCHNTSSW","3DFYDSXB2WMWAZWJRSN67LWQ0PPJUT","","","null","","","","","","","",""
"671.5","","image-keyboard-response","347","629987","0.0-276.0","3MTMREQS4W40NUGEJOUWLTAQ38GWA0","A2T675UCHNTSSW","3DFYDSXB2WMWAZWJRSN67LWQ0PPJUT","","img/set1/S3.jpg","83","3","structured_incentive","72","false","structured_incentive,random,structured_normal","2,3,1,2","",""
"null","","html-keyboard-response","348","630339","0.0-277.0","3MTMREQS4W40NUGEJOUWLTAQ38GWA0","A2T675UCHNTSSW","3DFYDSXB2WMWAZWJRSN67LWQ0PPJUT","","<img src=""img/set1/S3.jpg"" width=""540"" height = ""360"">","null","","","","","","","",""
"null","","html-keyboard-response","349","630343","0.0-278.0","3MTMREQS4W40NUGEJOUWLTAQ38GWA0","A2T675UCHNTSSW","3DFYDSXB2WMWAZWJRSN67LWQ0PPJUT","","","null","","","","","","","",""
"36.399999998509884","","image-keyboard-response","350","630383","0.0-279.0","3MTMREQS4W40NUGEJOUWLTAQ38GWA0","A2T675UCHNTSSW","3DFYDSXB2WMWAZWJRSN67LWQ0PPJUT","","img/set1/S1.jpg","68","1","structured_incentive","83","false","structured_incentive,random,structured_normal","2,3,1,2","",""
"null","","html-keyboard-response","351","630737","0.0-280.0","3MTMREQS4W40NUGEJOUWLTAQ38GWA0","A2T675UCHNTSSW","3DFYDSXB2WMWAZWJRSN67LWQ0PPJUT","","<img src=""img/set1/S1.jpg"" width=""540"" height = ""360"">","null","","","","","","","",""
"null","","html-keyboard-response","352","630740","0.0-281.0","3MTMREQS4W40NUGEJOUWLTAQ38GWA0","A2T675UCHNTSSW","3DFYDSXB2WMWAZWJRSN67LWQ0PPJUT","","","null","","","","","","","",""
"1147.199999999255","","image-keyboard-response","353","631891","0.0-282.0","3MTMREQS4W40NUGEJOUWLTAQ38GWA0","A2T675UCHNTSSW","3DFYDSXB2WMWAZWJRSN67LWQ0PPJUT","","img/set1/S1.jpg","68","1","structured_incentive","83","false","structured_incentive,random,structured_normal","2,3,1,2","",""
"null","","html-keyboard-response","354","632244","0.0-283.0","3MTMREQS4W40NUGEJOUWLTAQ38GWA0","A2T675UCHNTSSW","3DFYDSXB2WMWAZWJRSN67LWQ0PPJUT","","<img src=""img/set1/S1.jpg"" width=""540"" height = ""360"">","null","","","","","","","",""
"null","","html-keyboard-response","355","632247","0.0-284.0","3MTMREQS4W40NUGEJOUWLTAQ38GWA0","A2T675UCHNTSSW","3DFYDSXB2WMWAZWJRSN67LWQ0PPJUT","","","null","","","","","","","",""
"595.3999999985099","","image-keyboard-response","356","632845","0.0-285.0","3MTMREQS4W40NUGEJOUWLTAQ38GWA0","A2T675UCHNTSSW","3DFYDSXB2WMWAZWJRSN67LWQ0PPJUT","","img/set1/S2.jpg","83","2","structured_incentive","68","false","structured_incentive,random,structured_normal","2,3,1,2","",""
"null","","html-keyboard-response","357","633198","0.0-286.0","3MTMREQS4W40NUGEJOUWLTAQ38GWA0","A2T675UCHNTSSW","3DFYDSXB2WMWAZWJRSN67LWQ0PPJUT","","<img src=""img/set1/S2.jpg"" width=""540"" height = ""360"">","null","","","","","","","",""
"null","","html-keyboard-response","358","633201","0.0-287.0","3MTMREQS4W40NUGEJOUWLTAQ38GWA0","A2T675UCHNTSSW","3DFYDSXB2WMWAZWJRSN67LWQ0PPJUT","","","null","","","","","","","",""
"505","","image-keyboard-response","359","633710","0.0-288.0","3MTMREQS4W40NUGEJOUWLTAQ38GWA0","A2T675UCHNTSSW","3DFYDSXB2WMWAZWJRSN67LWQ0PPJUT","","img/set1/S3.jpg","74","3","structured_incentive","72","false","structured_incentive,random,structured_normal","2,3,1,2","",""
"null","","html-keyboard-response","360","634064","0.0-289.0","3MTMREQS4W40NUGEJOUWLTAQ38GWA0","A2T675UCHNTSSW","3DFYDSXB2WMWAZWJRSN67LWQ0PPJUT","","<img src=""img/set1/S3.jpg"" width=""540"" height = ""360"">","null","","","","","","","",""
"null","","html-keyboard-response","361","634068","0.0-290.0","3MTMREQS4W40NUGEJOUWLTAQ38GWA0","A2T675UCHNTSSW","3DFYDSXB2WMWAZWJRSN67LWQ0PPJUT","","","null","","","","","","","",""
"681.8999999985099","","image-keyboard-response","362","634753","0.0-291.0","3MTMREQS4W40NUGEJOUWLTAQ38GWA0","A2T675UCHNTSSW","3DFYDSXB2WMWAZWJRSN67LWQ0PPJUT","","img/set1/S1.jpg","68","1","structured_incentive","83","false","structured_incentive,random,structured_normal","2,3,1,2","",""
"null","","html-keyboard-response","363","635107","0.0-292.0","3MTMREQS4W40NUGEJOUWLTAQ38GWA0","A2T675UCHNTSSW","3DFYDSXB2WMWAZWJRSN67LWQ0PPJUT","","<img src=""img/set1/S1.jpg"" width=""540"" height = ""360"">","null","","","","","","","",""
"null","","html-keyboard-response","364","635110","0.0-293.0","3MTMREQS4W40NUGEJOUWLTAQ38GWA0","A2T675UCHNTSSW","3DFYDSXB2WMWAZWJRSN67LWQ0PPJUT","","","null","","","","","","","",""
"497","","image-keyboard-response","365","635610","0.0-294.0","3MTMREQS4W40NUGEJOUWLTAQ38GWA0","A2T675UCHNTSSW","3DFYDSXB2WMWAZWJRSN67LWQ0PPJUT","","img/set1/S1.jpg","68","1","structured_incentive","83","false","structured_incentive,random,structured_normal","2,3,1,2","",""
"null","","html-keyboard-response","366","635965","0.0-295.0","3MTMREQS4W40NUGEJOUWLTAQ38GWA0","A2T675UCHNTSSW","3DFYDSXB2WMWAZWJRSN67LWQ0PPJUT","","<img src=""img/set1/S1.jpg"" width=""540"" height = ""360"">","null","","","","","","","",""
"null","","html-keyboard-response","367","635968","0.0-296.0","3MTMREQS4W40NUGEJOUWLTAQ38GWA0","A2T675UCHNTSSW","3DFYDSXB2WMWAZWJRSN67LWQ0PPJUT","","","null","","","","","","","",""
"348.30000000074506","","image-keyboard-response","368","636320","0.0-297.0","3MTMREQS4W40NUGEJOUWLTAQ38GWA0","A2T675UCHNTSSW","3DFYDSXB2WMWAZWJRSN67LWQ0PPJUT","","img/set1/S2.jpg","83","2","structured_incentive","68","false","structured_incentive,random,structured_normal","2,3,1,2","",""
"null","","html-keyboard-response","369","636674","0.0-298.0","3MTMREQS4W40NUGEJOUWLTAQ38GWA0","A2T675UCHNTSSW","3DFYDSXB2WMWAZWJRSN67LWQ0PPJUT","","<img src=""img/set1/S2.jpg"" width=""540"" height = ""360"">","null","","","","","","","",""
"null","","html-keyboard-response","370","636678","0.0-299.0","3MTMREQS4W40NUGEJOUWLTAQ38GWA0","A2T675UCHNTSSW","3DFYDSXB2WMWAZWJRSN67LWQ0PPJUT","","","null","","","","","","","",""
"620.3000000007451","","image-keyboard-response","371","637302","0.0-300.0","3MTMREQS4W40NUGEJOUWLTAQ38GWA0","A2T675UCHNTSSW","3DFYDSXB2WMWAZWJRSN67LWQ0PPJUT","","img/set1/S4.jpg","83","4","structured_incentive","74","false","structured_incentive,random,structured_normal","2,3,1,2","",""
"null","","html-keyboard-response","372","637655","0.0-301.0","3MTMREQS4W40NUGEJOUWLTAQ38GWA0","A2T675UCHNTSSW","3DFYDSXB2WMWAZWJRSN67LWQ0PPJUT","","<img src=""img/set1/S4.jpg"" width=""540"" height = ""360"">","null","","","","","","","",""
"null","","html-keyboard-response","373","637657","0.0-302.0","3MTMREQS4W40NUGEJOUWLTAQ38GWA0","A2T675UCHNTSSW","3DFYDSXB2WMWAZWJRSN67LWQ0PPJUT","","","null","","","","","","","",""
"1261.800000000745","","image-keyboard-response","374","638921","0.0-303.0","3MTMREQS4W40NUGEJOUWLTAQ38GWA0","A2T675UCHNTSSW","3DFYDSXB2WMWAZWJRSN67LWQ0PPJUT","","img/set1/S2.jpg","83","2","structured_incentive","68","false","structured_incentive,random,structured_normal","2,3,1,2","",""
"null","","html-keyboard-response","375","639288","0.0-304.0","3MTMREQS4W40NUGEJOUWLTAQ38GWA0","A2T675UCHNTSSW","3DFYDSXB2WMWAZWJRSN67LWQ0PPJUT","","<img src=""img/set1/S2.jpg"" width=""540"" height = ""360"">","null","","","","","","","",""
"null","","html-keyboard-response","376","639290","0.0-305.0","3MTMREQS4W40NUGEJOUWLTAQ38GWA0","A2T675UCHNTSSW","3DFYDSXB2WMWAZWJRSN67LWQ0PPJUT","","","null","","","","","","","",""
"226.89999999850988","","image-keyboard-response","377","639518","0.0-306.0","3MTMREQS4W40NUGEJOUWLTAQ38GWA0","A2T675UCHNTSSW","3DFYDSXB2WMWAZWJRSN67LWQ0PPJUT","","img/set1/S3.jpg","68","3","structured_incentive","72","false","structured_incentive,random,structured_normal","2,3,1,2","",""
"null","","html-keyboard-response","378","639872","0.0-307.0","3MTMREQS4W40NUGEJOUWLTAQ38GWA0","A2T675UCHNTSSW","3DFYDSXB2WMWAZWJRSN67LWQ0PPJUT","","<img src=""img/set1/S3.jpg"" width=""540"" height = ""360"">","null","","","","","","","",""
"null","","html-keyboard-response","379","639877","0.0-308.0","3MTMREQS4W40NUGEJOUWLTAQ38GWA0","A2T675UCHNTSSW","3DFYDSXB2WMWAZWJRSN67LWQ0PPJUT","","","null","","","","","","","",""
"20.400000002235174","","image-keyboard-response","380","639900","0.0-309.0","3MTMREQS4W40NUGEJOUWLTAQ38GWA0","A2T675UCHNTSSW","3DFYDSXB2WMWAZWJRSN67LWQ0PPJUT","","img/set1/S1.jpg","74","1","structured_incentive","83","false","structured_incentive,random,structured_normal","2,3,1,2","",""
"null","","html-keyboard-response","381","640252","0.0-310.0","3MTMREQS4W40NUGEJOUWLTAQ38GWA0","A2T675UCHNTSSW","3DFYDSXB2WMWAZWJRSN67LWQ0PPJUT","","<img src=""img/set1/S1.jpg"" width=""540"" height = ""360"">","null","","","","","","","",""
"null","","html-keyboard-response","382","640254","0.0-311.0","3MTMREQS4W40NUGEJOUWLTAQ38GWA0","A2T675UCHNTSSW","3DFYDSXB2WMWAZWJRSN67LWQ0PPJUT","","","null","","","","","","","",""
"1210.6000000014901","","image-keyboard-response","383","641466","0.0-312.0","3MTMREQS4W40NUGEJOUWLTAQ38GWA0","A2T675UCHNTSSW","3DFYDSXB2WMWAZWJRSN67LWQ0PPJUT","","img/set1/S2.jpg","83","2","structured_incentive","68","false","structured_incentive,random,structured_normal","2,3,1,2","",""
"null","","html-keyboard-response","384","641818","0.0-313.0","3MTMREQS4W40NUGEJOUWLTAQ38GWA0","A2T675UCHNTSSW","3DFYDSXB2WMWAZWJRSN67LWQ0PPJUT","","<img src=""img/set1/S2.jpg"" width=""540"" height = ""360"">","null","","","","","","","",""
"null","","html-keyboard-response","385","641821","0.0-314.0","3MTMREQS4W40NUGEJOUWLTAQ38GWA0","A2T675UCHNTSSW","3DFYDSXB2WMWAZWJRSN67LWQ0PPJUT","","","null","","","","","","","",""
"543.6000000014901","","image-keyboard-response","386","642366","0.0-315.0","3MTMREQS4W40NUGEJOUWLTAQ38GWA0","A2T675UCHNTSSW","3DFYDSXB2WMWAZWJRSN67LWQ0PPJUT","","img/set1/S3.jpg","74","3","structured_incentive","72","false","structured_incentive,random,structured_normal","2,3,1,2","",""
"null","","html-keyboard-response","387","642718","0.0-316.0","3MTMREQS4W40NUGEJOUWLTAQ38GWA0","A2T675UCHNTSSW","3DFYDSXB2WMWAZWJRSN67LWQ0PPJUT","","<img src=""img/set1/S3.jpg"" width=""540"" height = ""360"">","null","","","","","","","",""
"null","","html-keyboard-response","388","642720","0.0-317.0","3MTMREQS4W40NUGEJOUWLTAQ38GWA0","A2T675UCHNTSSW","3DFYDSXB2WMWAZWJRSN67LWQ0PPJUT","","","null","","","","","","","",""
"619.6000000014901","","image-keyboard-response","389","643342","0.0-318.0","3MTMREQS4W40NUGEJOUWLTAQ38GWA0","A2T675UCHNTSSW","3DFYDSXB2WMWAZWJRSN67LWQ0PPJUT","","img/set1/S4.jpg","74","4","structured_incentive","74","true","structured_incentive,random,structured_normal","2,3,1,2","",""
"null","","html-keyboard-response","390","643694","0.0-319.0","3MTMREQS4W40NUGEJOUWLTAQ38GWA0","A2T675UCHNTSSW","3DFYDSXB2WMWAZWJRSN67LWQ0PPJUT","","<img src=""img/set1/S4.jpg"" width=""540"" height = ""360"" style=""border:16px solid Violet"">","null","","","","","","","",""
"null","","html-keyboard-response","391","643696","0.0-320.0","3MTMREQS4W40NUGEJOUWLTAQ38GWA0","A2T675UCHNTSSW","3DFYDSXB2WMWAZWJRSN67LWQ0PPJUT","","","null","","","","","","","",""
"648.8000000007451","","image-keyboard-response","392","644347","0.0-321.0","3MTMREQS4W40NUGEJOUWLTAQ38GWA0","A2T675UCHNTSSW","3DFYDSXB2WMWAZWJRSN67LWQ0PPJUT","","img/set1/S1.jpg","68","1","structured_incentive","83","false","structured_incentive,random,structured_normal","2,3,1,2","",""
"null","","html-keyboard-response","393","644699","0.0-322.0","3MTMREQS4W40NUGEJOUWLTAQ38GWA0","A2T675UCHNTSSW","3DFYDSXB2WMWAZWJRSN67LWQ0PPJUT","","<img src=""img/set1/S1.jpg"" width=""540"" height = ""360"">","null","","","","","","","",""
"null","","html-keyboard-response","394","644701","0.0-323.0","3MTMREQS4W40NUGEJOUWLTAQ38GWA0","A2T675UCHNTSSW","3DFYDSXB2WMWAZWJRSN67LWQ0PPJUT","","","null","","","","","","","",""
"174.80000000074506","","image-keyboard-response","395","644877","0.0-324.0","3MTMREQS4W40NUGEJOUWLTAQ38GWA0","A2T675UCHNTSSW","3DFYDSXB2WMWAZWJRSN67LWQ0PPJUT","","img/set1/S1.jpg","74","1","structured_incentive","83","false","structured_incentive,random,structured_normal","2,3,1,2","",""
"null","","html-keyboard-response","396","645229","0.0-325.0","3MTMREQS4W40NUGEJOUWLTAQ38GWA0","A2T675UCHNTSSW","3DFYDSXB2WMWAZWJRSN67LWQ0PPJUT","","<img src=""img/set1/S1.jpg"" width=""540"" height = ""360"">","null","","","","","","","",""
"null","","html-keyboard-response","397","645233","0.0-326.0","3MTMREQS4W40NUGEJOUWLTAQ38GWA0","A2T675UCHNTSSW","3DFYDSXB2WMWAZWJRSN67LWQ0PPJUT","","","null","","","","","","","",""
"341.30000000074506","","image-keyboard-response","398","645576","0.0-327.0","3MTMREQS4W40NUGEJOUWLTAQ38GWA0","A2T675UCHNTSSW","3DFYDSXB2WMWAZWJRSN67LWQ0PPJUT","","img/set1/S2.jpg","83","2","structured_incentive","68","false","structured_incentive,random,structured_normal","2,3,1,2","",""
"null","","html-keyboard-response","399","645931","0.0-328.0","3MTMREQS4W40NUGEJOUWLTAQ38GWA0","A2T675UCHNTSSW","3DFYDSXB2WMWAZWJRSN67LWQ0PPJUT","","<img src=""img/set1/S2.jpg"" width=""540"" height = ""360"">","null","","","","","","","",""
"null","","html-keyboard-response","400","645934","0.0-329.0","3MTMREQS4W40NUGEJOUWLTAQ38GWA0","A2T675UCHNTSSW","3DFYDSXB2WMWAZWJRSN67LWQ0PPJUT","","","null","","","","","","","",""
"426.9000000022352","","image-keyboard-response","401","646362","0.0-330.0","3MTMREQS4W40NUGEJOUWLTAQ38GWA0","A2T675UCHNTSSW","3DFYDSXB2WMWAZWJRSN67LWQ0PPJUT","","img/set1/S3.jpg","83","3","structured_incentive","72","false","structured_incentive,random,structured_normal","2,3,1,2","",""
"null","","html-keyboard-response","402","646714","0.0-331.0","3MTMREQS4W40NUGEJOUWLTAQ38GWA0","A2T675UCHNTSSW","3DFYDSXB2WMWAZWJRSN67LWQ0PPJUT","","<img src=""img/set1/S3.jpg"" width=""540"" height = ""360"">","null","","","","","","","",""
"null","","html-keyboard-response","403","646715","0.0-332.0","3MTMREQS4W40NUGEJOUWLTAQ38GWA0","A2T675UCHNTSSW","3DFYDSXB2WMWAZWJRSN67LWQ0PPJUT","","","null","","","","","","","",""
"528.5","","image-keyboard-response","404","647246","0.0-333.0","3MTMREQS4W40NUGEJOUWLTAQ38GWA0","A2T675UCHNTSSW","3DFYDSXB2WMWAZWJRSN67LWQ0PPJUT","","img/set1/S1.jpg","83","1","structured_incentive","83","true","structured_incentive,random,structured_normal","2,3,1,2","",""
"null","","html-keyboard-response","405","647599","0.0-334.0","3MTMREQS4W40NUGEJOUWLTAQ38GWA0","A2T675UCHNTSSW","3DFYDSXB2WMWAZWJRSN67LWQ0PPJUT","","<img src=""img/set1/S1.jpg"" width=""540"" height = ""360"" style=""border:16px solid orange"">","null","","","","","","","",""
"null","","html-keyboard-response","406","647601","0.0-335.0","3MTMREQS4W40NUGEJOUWLTAQ38GWA0","A2T675UCHNTSSW","3DFYDSXB2WMWAZWJRSN67LWQ0PPJUT","","","null","","","","","","","",""
"692.2999999970198","","image-keyboard-response","407","648295","0.0-336.0","3MTMREQS4W40NUGEJOUWLTAQ38GWA0","A2T675UCHNTSSW","3DFYDSXB2WMWAZWJRSN67LWQ0PPJUT","","img/set1/S1.jpg","83","1","structured_incentive","83","true","structured_incentive,random,structured_normal","2,3,1,2","",""
"null","","html-keyboard-response","408","648647","0.0-337.0","3MTMREQS4W40NUGEJOUWLTAQ38GWA0","A2T675UCHNTSSW","3DFYDSXB2WMWAZWJRSN67LWQ0PPJUT","","<img src=""img/set1/S1.jpg"" width=""540"" height = ""360"" style=""border:16px solid orange"">","null","","","","","","","",""
"null","","html-keyboard-response","409","648649","0.0-338.0","3MTMREQS4W40NUGEJOUWLTAQ38GWA0","A2T675UCHNTSSW","3DFYDSXB2WMWAZWJRSN67LWQ0PPJUT","","","null","","","","","","","",""
"484.20000000298023","","image-keyboard-response","410","649135","0.0-339.0","3MTMREQS4W40NUGEJOUWLTAQ38GWA0","A2T675UCHNTSSW","3DFYDSXB2WMWAZWJRSN67LWQ0PPJUT","","img/set1/S1.jpg","83","1","structured_incentive","83","true","structured_incentive,random,structured_normal","2,3,1,2","",""
"null","","html-keyboard-response","411","649488","0.0-340.0","3MTMREQS4W40NUGEJOUWLTAQ38GWA0","A2T675UCHNTSSW","3DFYDSXB2WMWAZWJRSN67LWQ0PPJUT","","<img src=""img/set1/S1.jpg"" width=""540"" height = ""360"" style=""border:16px solid orange"">","null","","","","","","","",""
"null","","html-keyboard-response","412","649491","0.0-341.0","3MTMREQS4W40NUGEJOUWLTAQ38GWA0","A2T675UCHNTSSW","3DFYDSXB2WMWAZWJRSN67LWQ0PPJUT","","","null","","","","","","","",""
"743","","image-keyboard-response","413","650236","0.0-342.0","3MTMREQS4W40NUGEJOUWLTAQ38GWA0","A2T675UCHNTSSW","3DFYDSXB2WMWAZWJRSN67LWQ0PPJUT","","img/set1/S4.jpg","74","4","structured_incentive","74","true","structured_incentive,random,structured_normal","2,3,1,2","",""
"null","","html-keyboard-response","414","650589","0.0-343.0","3MTMREQS4W40NUGEJOUWLTAQ38GWA0","A2T675UCHNTSSW","3DFYDSXB2WMWAZWJRSN67LWQ0PPJUT","","<img src=""img/set1/S4.jpg"" width=""540"" height = ""360"" style=""border:16px solid Violet"">","null","","","","","","","",""
"null","","html-keyboard-response","415","650592","0.0-344.0","3MTMREQS4W40NUGEJOUWLTAQ38GWA0","A2T675UCHNTSSW","3DFYDSXB2WMWAZWJRSN67LWQ0PPJUT","","","null","","","","","","","",""
