"rt","url","trial_type","trial_index","time_elapsed","internal_node_id","assignmentID","mturkID","hitID","view_history","stimulus","key_press","state","test_part","correct_response","correct","order_block","order_chunk","bonus","responses"
"10926.100000023842","consent.html","external-html","0","11083","0.0-0.0","3JBT3HLQF9OB4TRLJUW0AST3JXCPZT","A2VNWJU49OOVFC","39N6W9XWRD9306QNTNZSDTAN4LJGYK","","","","","","","","","","",""
"176794.29999995232","","instructions","1","187878","0.0-1.0","3JBT3HLQF9OB4TRLJUW0AST3JXCPZT","A2VNWJU49OOVFC","39N6W9XWRD9306QNTNZSDTAN4LJGYK","[{""page_index"":0,""viewing_time"":6733.5},{""page_index"":1,""viewing_time"":19108.899999976158},{""page_index"":2,""viewing_time"":26475.100000023842},{""page_index"":3,""viewing_time"":20684.099999964237},{""page_index"":4,""viewing_time"":16525.19999998808},{""page_index"":5,""viewing_time"":33530.80000001192},{""page_index"":6,""viewing_time"":16319.100000023842},{""page_index"":7,""viewing_time"":37417}]","","","","","","","","","",""
"null","","image-keyboard-response","2","190383","0.0-2.0-0.0","3JBT3HLQF9OB4TRLJUW0AST3JXCPZT","A2VNWJU49OOVFC","39N6W9XWRD9306QNTNZSDTAN4LJGYK","","img/practice/S1.jpg","null","1","practice","83","false","","","",""
"null","","html-keyboard-response","3","190687","0.0-2.0-1.0","3JBT3HLQF9OB4TRLJUW0AST3JXCPZT","A2VNWJU49OOVFC","39N6W9XWRD9306QNTNZSDTAN4LJGYK","","<img src=""img/practice/S1.jpg"" width=""540"" height = ""360"">","null","","","","","","","",""
"null","","html-keyboard-response","4","190690","0.0-2.0-2.0","3JBT3HLQF9OB4TRLJUW0AST3JXCPZT","A2VNWJU49OOVFC","39N6W9XWRD9306QNTNZSDTAN4LJGYK","","","null","","","","","","","",""
"1170","","image-keyboard-response","5","191864","0.0-2.0-0.1","3JBT3HLQF9OB4TRLJUW0AST3JXCPZT","A2VNWJU49OOVFC","39N6W9XWRD9306QNTNZSDTAN4LJGYK","","img/practice/S2.jpg","72","2","practice","68","false","","","",""
"null","","html-keyboard-response","6","192182","0.0-2.0-1.1","3JBT3HLQF9OB4TRLJUW0AST3JXCPZT","A2VNWJU49OOVFC","39N6W9XWRD9306QNTNZSDTAN4LJGYK","","<img src=""img/practice/S2.jpg"" width=""540"" height = ""360"">","null","","","","","","","",""
"null","","html-keyboard-response","7","192187","0.0-2.0-2.1","3JBT3HLQF9OB4TRLJUW0AST3JXCPZT","A2VNWJU49OOVFC","39N6W9XWRD9306QNTNZSDTAN4LJGYK","","","null","","","","","","","",""
"801.1999999880791","","image-keyboard-response","8","192990","0.0-2.0-0.2","3JBT3HLQF9OB4TRLJUW0AST3JXCPZT","A2VNWJU49OOVFC","39N6W9XWRD9306QNTNZSDTAN4LJGYK","","img/practice/S4.jpg","74","4","practice","74","true","","","",""
"null","","html-keyboard-response","9","193306","0.0-2.0-1.2","3JBT3HLQF9OB4TRLJUW0AST3JXCPZT","A2VNWJU49OOVFC","39N6W9XWRD9306QNTNZSDTAN4LJGYK","","<img src=""img/practice/S4.jpg"" width=""540"" height = ""360"" style=""border:16px solid orange"">","null","","","","","","","",""
"null","","html-keyboard-response","10","193308","0.0-2.0-2.2","3JBT3HLQF9OB4TRLJUW0AST3JXCPZT","A2VNWJU49OOVFC","39N6W9XWRD9306QNTNZSDTAN4LJGYK","","","null","","","","","","","",""
"927.9000000357628","","image-keyboard-response","11","194238","0.0-2.0-0.3","3JBT3HLQF9OB4TRLJUW0AST3JXCPZT","A2VNWJU49OOVFC","39N6W9XWRD9306QNTNZSDTAN4LJGYK","","img/practice/S3.jpg","74","3","practice","72","false","","","",""
"null","","html-keyboard-response","12","194546","0.0-2.0-1.3","3JBT3HLQF9OB4TRLJUW0AST3JXCPZT","A2VNWJU49OOVFC","39N6W9XWRD9306QNTNZSDTAN4LJGYK","","<img src=""img/practice/S3.jpg"" width=""540"" height = ""360"">","null","","","","","","","",""
"null","","html-keyboard-response","13","194549","0.0-2.0-2.3","3JBT3HLQF9OB4TRLJUW0AST3JXCPZT","A2VNWJU49OOVFC","39N6W9XWRD9306QNTNZSDTAN4LJGYK","","","null","","","","","","","",""
"855","","image-keyboard-response","14","195406","0.0-2.0-0.4","3JBT3HLQF9OB4TRLJUW0AST3JXCPZT","A2VNWJU49OOVFC","39N6W9XWRD9306QNTNZSDTAN4LJGYK","","img/practice/S1.jpg","83","1","practice","83","true","","","",""
"null","","html-keyboard-response","15","195722","0.0-2.0-1.4","3JBT3HLQF9OB4TRLJUW0AST3JXCPZT","A2VNWJU49OOVFC","39N6W9XWRD9306QNTNZSDTAN4LJGYK","","<img src=""img/practice/S1.jpg"" width=""540"" height = ""360"" style=""border:16px solid orange"">","null","","","","","","","",""
"null","","html-keyboard-response","16","195724","0.0-2.0-2.4","3JBT3HLQF9OB4TRLJUW0AST3JXCPZT","A2VNWJU49OOVFC","39N6W9XWRD9306QNTNZSDTAN4LJGYK","","","null","","","","","","","",""
"1039.0999999642372","","image-keyboard-response","17","196766","0.0-2.0-0.5","3JBT3HLQF9OB4TRLJUW0AST3JXCPZT","A2VNWJU49OOVFC","39N6W9XWRD9306QNTNZSDTAN4LJGYK","","img/practice/S3.jpg","83","3","practice","72","false","","","",""
"null","","html-keyboard-response","18","197077","0.0-2.0-1.5","3JBT3HLQF9OB4TRLJUW0AST3JXCPZT","A2VNWJU49OOVFC","39N6W9XWRD9306QNTNZSDTAN4LJGYK","","<img src=""img/practice/S3.jpg"" width=""540"" height = ""360"">","null","","","","","","","",""
"null","","html-keyboard-response","19","197080","0.0-2.0-2.5","3JBT3HLQF9OB4TRLJUW0AST3JXCPZT","A2VNWJU49OOVFC","39N6W9XWRD9306QNTNZSDTAN4LJGYK","","","null","","","","","","","",""
"948.9000000357628","","image-keyboard-response","20","198031","0.0-2.0-0.6","3JBT3HLQF9OB4TRLJUW0AST3JXCPZT","A2VNWJU49OOVFC","39N6W9XWRD9306QNTNZSDTAN4LJGYK","","img/practice/S2.jpg","72","2","practice","68","false","","","",""
"null","","html-keyboard-response","21","198334","0.0-2.0-1.6","3JBT3HLQF9OB4TRLJUW0AST3JXCPZT","A2VNWJU49OOVFC","39N6W9XWRD9306QNTNZSDTAN4LJGYK","","<img src=""img/practice/S2.jpg"" width=""540"" height = ""360"">","null","","","","","","","",""
"null","","html-keyboard-response","22","198336","0.0-2.0-2.6","3JBT3HLQF9OB4TRLJUW0AST3JXCPZT","A2VNWJU49OOVFC","39N6W9XWRD9306QNTNZSDTAN4LJGYK","","","null","","","","","","","",""
"715.9000000357628","","image-keyboard-response","23","199054","0.0-2.0-0.7","3JBT3HLQF9OB4TRLJUW0AST3JXCPZT","A2VNWJU49OOVFC","39N6W9XWRD9306QNTNZSDTAN4LJGYK","","img/practice/S4.jpg","74","4","practice","74","true","","","",""
"null","","html-keyboard-response","24","199358","0.0-2.0-1.7","3JBT3HLQF9OB4TRLJUW0AST3JXCPZT","A2VNWJU49OOVFC","39N6W9XWRD9306QNTNZSDTAN4LJGYK","","<img src=""img/practice/S4.jpg"" width=""540"" height = ""360"" style=""border:16px solid orange"">","null","","","","","","","",""
"null","","html-keyboard-response","25","199360","0.0-2.0-2.7","3JBT3HLQF9OB4TRLJUW0AST3JXCPZT","A2VNWJU49OOVFC","39N6W9XWRD9306QNTNZSDTAN4LJGYK","","","null","","","","","","","",""
"780.5999999642372","","image-keyboard-response","26","200142","0.0-2.0-0.8","3JBT3HLQF9OB4TRLJUW0AST3JXCPZT","A2VNWJU49OOVFC","39N6W9XWRD9306QNTNZSDTAN4LJGYK","","img/practice/S1.jpg","74","1","practice","83","false","","","",""
"null","","html-keyboard-response","27","200454","0.0-2.0-1.8","3JBT3HLQF9OB4TRLJUW0AST3JXCPZT","A2VNWJU49OOVFC","39N6W9XWRD9306QNTNZSDTAN4LJGYK","","<img src=""img/practice/S1.jpg"" width=""540"" height = ""360"">","null","","","","","","","",""
"null","","html-keyboard-response","28","200457","0.0-2.0-2.8","3JBT3HLQF9OB4TRLJUW0AST3JXCPZT","A2VNWJU49OOVFC","39N6W9XWRD9306QNTNZSDTAN4LJGYK","","","null","","","","","","","",""
"903.5","","image-keyboard-response","29","201362","0.0-2.0-0.9","3JBT3HLQF9OB4TRLJUW0AST3JXCPZT","A2VNWJU49OOVFC","39N6W9XWRD9306QNTNZSDTAN4LJGYK","","img/practice/S4.jpg","74","4","practice","74","true","","","",""
"null","","html-keyboard-response","30","201672","0.0-2.0-1.9","3JBT3HLQF9OB4TRLJUW0AST3JXCPZT","A2VNWJU49OOVFC","39N6W9XWRD9306QNTNZSDTAN4LJGYK","","<img src=""img/practice/S4.jpg"" width=""540"" height = ""360"" style=""border:16px solid orange"">","null","","","","","","","",""
"null","","html-keyboard-response","31","201674","0.0-2.0-2.9","3JBT3HLQF9OB4TRLJUW0AST3JXCPZT","A2VNWJU49OOVFC","39N6W9XWRD9306QNTNZSDTAN4LJGYK","","","null","","","","","","","",""
"993.8000000119209","","image-keyboard-response","32","202670","0.0-2.0-0.10","3JBT3HLQF9OB4TRLJUW0AST3JXCPZT","A2VNWJU49OOVFC","39N6W9XWRD9306QNTNZSDTAN4LJGYK","","img/practice/S3.jpg","83","3","practice","72","false","","","",""
"null","","html-keyboard-response","33","202975","0.0-2.0-1.10","3JBT3HLQF9OB4TRLJUW0AST3JXCPZT","A2VNWJU49OOVFC","39N6W9XWRD9306QNTNZSDTAN4LJGYK","","<img src=""img/practice/S3.jpg"" width=""540"" height = ""360"">","null","","","","","","","",""
"null","","html-keyboard-response","34","202978","0.0-2.0-2.10","3JBT3HLQF9OB4TRLJUW0AST3JXCPZT","A2VNWJU49OOVFC","39N6W9XWRD9306QNTNZSDTAN4LJGYK","","","null","","","","","","","",""
"1098.6000000238419","","image-keyboard-response","35","204078","0.0-2.0-0.11","3JBT3HLQF9OB4TRLJUW0AST3JXCPZT","A2VNWJU49OOVFC","39N6W9XWRD9306QNTNZSDTAN4LJGYK","","img/practice/S2.jpg","68","2","practice","68","true","","","",""
"null","","html-keyboard-response","36","204381","0.0-2.0-1.11","3JBT3HLQF9OB4TRLJUW0AST3JXCPZT","A2VNWJU49OOVFC","39N6W9XWRD9306QNTNZSDTAN4LJGYK","","<img src=""img/practice/S2.jpg"" width=""540"" height = ""360"" style=""border:16px solid orange"">","null","","","","","","","",""
"null","","html-keyboard-response","37","204384","0.0-2.0-2.11","3JBT3HLQF9OB4TRLJUW0AST3JXCPZT","A2VNWJU49OOVFC","39N6W9XWRD9306QNTNZSDTAN4LJGYK","","","null","","","","","","","",""
"1236","","image-keyboard-response","38","205622","0.0-2.0-0.12","3JBT3HLQF9OB4TRLJUW0AST3JXCPZT","A2VNWJU49OOVFC","39N6W9XWRD9306QNTNZSDTAN4LJGYK","","img/practice/S1.jpg","72","1","practice","83","false","","","",""
"null","","html-keyboard-response","39","205930","0.0-2.0-1.12","3JBT3HLQF9OB4TRLJUW0AST3JXCPZT","A2VNWJU49OOVFC","39N6W9XWRD9306QNTNZSDTAN4LJGYK","","<img src=""img/practice/S1.jpg"" width=""540"" height = ""360"">","null","","","","","","","",""
"null","","html-keyboard-response","40","205933","0.0-2.0-2.12","3JBT3HLQF9OB4TRLJUW0AST3JXCPZT","A2VNWJU49OOVFC","39N6W9XWRD9306QNTNZSDTAN4LJGYK","","","null","","","","","","","",""
"1087.300000011921","","image-keyboard-response","41","207022","0.0-2.0-0.13","3JBT3HLQF9OB4TRLJUW0AST3JXCPZT","A2VNWJU49OOVFC","39N6W9XWRD9306QNTNZSDTAN4LJGYK","","img/practice/S3.jpg","68","3","practice","72","false","","","",""
"null","","html-keyboard-response","42","207339","0.0-2.0-1.13","3JBT3HLQF9OB4TRLJUW0AST3JXCPZT","A2VNWJU49OOVFC","39N6W9XWRD9306QNTNZSDTAN4LJGYK","","<img src=""img/practice/S3.jpg"" width=""540"" height = ""360"">","null","","","","","","","",""
"null","","html-keyboard-response","43","207342","0.0-2.0-2.13","3JBT3HLQF9OB4TRLJUW0AST3JXCPZT","A2VNWJU49OOVFC","39N6W9XWRD9306QNTNZSDTAN4LJGYK","","","null","","","","","","","",""
"830.3000000119209","","image-keyboard-response","44","208174","0.0-2.0-0.14","3JBT3HLQF9OB4TRLJUW0AST3JXCPZT","A2VNWJU49OOVFC","39N6W9XWRD9306QNTNZSDTAN4LJGYK","","img/practice/S4.jpg","74","4","practice","74","true","","","",""
"null","","html-keyboard-response","45","208491","0.0-2.0-1.14","3JBT3HLQF9OB4TRLJUW0AST3JXCPZT","A2VNWJU49OOVFC","39N6W9XWRD9306QNTNZSDTAN4LJGYK","","<img src=""img/practice/S4.jpg"" width=""540"" height = ""360"" style=""border:16px solid orange"">","null","","","","","","","",""
"null","","html-keyboard-response","46","208493","0.0-2.0-2.14","3JBT3HLQF9OB4TRLJUW0AST3JXCPZT","A2VNWJU49OOVFC","39N6W9XWRD9306QNTNZSDTAN4LJGYK","","","null","","","","","","","",""
"894.5999999642372","","image-keyboard-response","47","209390","0.0-2.0-0.15","3JBT3HLQF9OB4TRLJUW0AST3JXCPZT","A2VNWJU49OOVFC","39N6W9XWRD9306QNTNZSDTAN4LJGYK","","img/practice/S2.jpg","83","2","practice","68","false","","","",""
"null","","html-keyboard-response","48","209700","0.0-2.0-1.15","3JBT3HLQF9OB4TRLJUW0AST3JXCPZT","A2VNWJU49OOVFC","39N6W9XWRD9306QNTNZSDTAN4LJGYK","","<img src=""img/practice/S2.jpg"" width=""540"" height = ""360"">","null","","","","","","","",""
"null","","html-keyboard-response","49","209702","0.0-2.0-2.15","3JBT3HLQF9OB4TRLJUW0AST3JXCPZT","A2VNWJU49OOVFC","39N6W9XWRD9306QNTNZSDTAN4LJGYK","","","null","","","","","","","",""
"918","","image-keyboard-response","50","210622","0.0-2.0-0.16","3JBT3HLQF9OB4TRLJUW0AST3JXCPZT","A2VNWJU49OOVFC","39N6W9XWRD9306QNTNZSDTAN4LJGYK","","img/practice/S1.jpg","68","1","practice","83","false","","","",""
"null","","html-keyboard-response","51","210939","0.0-2.0-1.16","3JBT3HLQF9OB4TRLJUW0AST3JXCPZT","A2VNWJU49OOVFC","39N6W9XWRD9306QNTNZSDTAN4LJGYK","","<img src=""img/practice/S1.jpg"" width=""540"" height = ""360"">","null","","","","","","","",""
"null","","html-keyboard-response","52","210941","0.0-2.0-2.16","3JBT3HLQF9OB4TRLJUW0AST3JXCPZT","A2VNWJU49OOVFC","39N6W9XWRD9306QNTNZSDTAN4LJGYK","","","null","","","","","","","",""
"1014.8000000119209","","image-keyboard-response","53","211958","0.0-2.0-0.17","3JBT3HLQF9OB4TRLJUW0AST3JXCPZT","A2VNWJU49OOVFC","39N6W9XWRD9306QNTNZSDTAN4LJGYK","","img/practice/S2.jpg","83","2","practice","68","false","","","",""
"null","","html-keyboard-response","54","212273","0.0-2.0-1.17","3JBT3HLQF9OB4TRLJUW0AST3JXCPZT","A2VNWJU49OOVFC","39N6W9XWRD9306QNTNZSDTAN4LJGYK","","<img src=""img/practice/S2.jpg"" width=""540"" height = ""360"">","null","","","","","","","",""
"null","","html-keyboard-response","55","212275","0.0-2.0-2.17","3JBT3HLQF9OB4TRLJUW0AST3JXCPZT","A2VNWJU49OOVFC","39N6W9XWRD9306QNTNZSDTAN4LJGYK","","","null","","","","","","","",""
"920.6999999880791","","image-keyboard-response","56","213198","0.0-2.0-0.18","3JBT3HLQF9OB4TRLJUW0AST3JXCPZT","A2VNWJU49OOVFC","39N6W9XWRD9306QNTNZSDTAN4LJGYK","","img/practice/S3.jpg","74","3","practice","72","false","","","",""
"null","","html-keyboard-response","57","213512","0.0-2.0-1.18","3JBT3HLQF9OB4TRLJUW0AST3JXCPZT","A2VNWJU49OOVFC","39N6W9XWRD9306QNTNZSDTAN4LJGYK","","<img src=""img/practice/S3.jpg"" width=""540"" height = ""360"">","null","","","","","","","",""
"null","","html-keyboard-response","58","213514","0.0-2.0-2.18","3JBT3HLQF9OB4TRLJUW0AST3JXCPZT","A2VNWJU49OOVFC","39N6W9XWRD9306QNTNZSDTAN4LJGYK","","","null","","","","","","","",""
"930","","image-keyboard-response","59","214446","0.0-2.0-0.19","3JBT3HLQF9OB4TRLJUW0AST3JXCPZT","A2VNWJU49OOVFC","39N6W9XWRD9306QNTNZSDTAN4LJGYK","","img/practice/S4.jpg","74","4","practice","74","true","","","",""
"null","","html-keyboard-response","60","214760","0.0-2.0-1.19","3JBT3HLQF9OB4TRLJUW0AST3JXCPZT","A2VNWJU49OOVFC","39N6W9XWRD9306QNTNZSDTAN4LJGYK","","<img src=""img/practice/S4.jpg"" width=""540"" height = ""360"" style=""border:16px solid orange"">","null","","","","","","","",""
"null","","html-keyboard-response","61","214762","0.0-2.0-2.19","3JBT3HLQF9OB4TRLJUW0AST3JXCPZT","A2VNWJU49OOVFC","39N6W9XWRD9306QNTNZSDTAN4LJGYK","","","null","","","","","","","",""
"1562.1000000238419","","image-keyboard-response","62","216326","0.0-2.0-0.20","3JBT3HLQF9OB4TRLJUW0AST3JXCPZT","A2VNWJU49OOVFC","39N6W9XWRD9306QNTNZSDTAN4LJGYK","","img/practice/S1.jpg","72","1","practice","83","false","","","",""
"null","","html-keyboard-response","63","216637","0.0-2.0-1.20","3JBT3HLQF9OB4TRLJUW0AST3JXCPZT","A2VNWJU49OOVFC","39N6W9XWRD9306QNTNZSDTAN4LJGYK","","<img src=""img/practice/S1.jpg"" width=""540"" height = ""360"">","null","","","","","","","",""
"null","","html-keyboard-response","64","216640","0.0-2.0-2.20","3JBT3HLQF9OB4TRLJUW0AST3JXCPZT","A2VNWJU49OOVFC","39N6W9XWRD9306QNTNZSDTAN4LJGYK","","","null","","","","","","","",""
"1299.699999988079","","image-keyboard-response","65","217942","0.0-2.0-0.21","3JBT3HLQF9OB4TRLJUW0AST3JXCPZT","A2VNWJU49OOVFC","39N6W9XWRD9306QNTNZSDTAN4LJGYK","","img/practice/S3.jpg","74","3","practice","72","false","","","",""
"null","","html-keyboard-response","66","218259","0.0-2.0-1.21","3JBT3HLQF9OB4TRLJUW0AST3JXCPZT","A2VNWJU49OOVFC","39N6W9XWRD9306QNTNZSDTAN4LJGYK","","<img src=""img/practice/S3.jpg"" width=""540"" height = ""360"">","null","","","","","","","",""
"null","","html-keyboard-response","67","218261","0.0-2.0-2.21","3JBT3HLQF9OB4TRLJUW0AST3JXCPZT","A2VNWJU49OOVFC","39N6W9XWRD9306QNTNZSDTAN4LJGYK","","","null","","","","","","","",""
"1127.699999988079","","image-keyboard-response","68","219390","0.0-2.0-0.22","3JBT3HLQF9OB4TRLJUW0AST3JXCPZT","A2VNWJU49OOVFC","39N6W9XWRD9306QNTNZSDTAN4LJGYK","","img/practice/S4.jpg","74","4","practice","74","true","","","",""
"null","","html-keyboard-response","69","219699","0.0-2.0-1.22","3JBT3HLQF9OB4TRLJUW0AST3JXCPZT","A2VNWJU49OOVFC","39N6W9XWRD9306QNTNZSDTAN4LJGYK","","<img src=""img/practice/S4.jpg"" width=""540"" height = ""360"" style=""border:16px solid orange"">","null","","","","","","","",""
"null","","html-keyboard-response","70","219704","0.0-2.0-2.22","3JBT3HLQF9OB4TRLJUW0AST3JXCPZT","A2VNWJU49OOVFC","39N6W9XWRD9306QNTNZSDTAN4LJGYK","","","null","","","","","","","",""
"964.4000000357628","","image-keyboard-response","71","220671","0.0-2.0-0.23","3JBT3HLQF9OB4TRLJUW0AST3JXCPZT","A2VNWJU49OOVFC","39N6W9XWRD9306QNTNZSDTAN4LJGYK","","img/practice/S2.jpg","68","2","practice","68","true","","","",""
"null","","html-keyboard-response","72","220984","0.0-2.0-1.23","3JBT3HLQF9OB4TRLJUW0AST3JXCPZT","A2VNWJU49OOVFC","39N6W9XWRD9306QNTNZSDTAN4LJGYK","","<img src=""img/practice/S2.jpg"" width=""540"" height = ""360"" style=""border:16px solid orange"">","null","","","","","","","",""
"null","","html-keyboard-response","73","220986","0.0-2.0-2.23","3JBT3HLQF9OB4TRLJUW0AST3JXCPZT","A2VNWJU49OOVFC","39N6W9XWRD9306QNTNZSDTAN4LJGYK","","","null","","","","","","","",""
"8206.699999988079","","instructions","74","229194","0.0-3.0","3JBT3HLQF9OB4TRLJUW0AST3JXCPZT","A2VNWJU49OOVFC","39N6W9XWRD9306QNTNZSDTAN4LJGYK","[{""page_index"":0,""viewing_time"":8206.600000023842}]","","","","","","","","","",""
"17872.400000035763","","instructions","75","247067","0.0-4.0","3JBT3HLQF9OB4TRLJUW0AST3JXCPZT","A2VNWJU49OOVFC","39N6W9XWRD9306QNTNZSDTAN4LJGYK","[{""page_index"":0,""viewing_time"":17872.30000001192}]","","","","","","","","","",""
"9908.199999988079","","instructions","76","256976","0.0-5.0","3JBT3HLQF9OB4TRLJUW0AST3JXCPZT","A2VNWJU49OOVFC","39N6W9XWRD9306QNTNZSDTAN4LJGYK","[{""page_index"":0,""viewing_time"":9908.099999964237}]","","","","","","","","","",""
"1133.800000011921","","image-keyboard-response","77","258111","0.0-6.0","3JBT3HLQF9OB4TRLJUW0AST3JXCPZT","A2VNWJU49OOVFC","39N6W9XWRD9306QNTNZSDTAN4LJGYK","","img/set1/S3.jpg","74","3","random","72","false","random,structured_normal,structured_incentive","2,3,1,2","",""
"null","","html-keyboard-response","78","258466","0.0-7.0","3JBT3HLQF9OB4TRLJUW0AST3JXCPZT","A2VNWJU49OOVFC","39N6W9XWRD9306QNTNZSDTAN4LJGYK","","<img src=""img/set1/S3.jpg"" width=""540"" height = ""360"">","null","","","","","","","",""
"null","","html-keyboard-response","79","258468","0.0-8.0","3JBT3HLQF9OB4TRLJUW0AST3JXCPZT","A2VNWJU49OOVFC","39N6W9XWRD9306QNTNZSDTAN4LJGYK","","","null","","","","","","","",""
"583.8999999761581","","image-keyboard-response","80","259054","0.0-9.0","3JBT3HLQF9OB4TRLJUW0AST3JXCPZT","A2VNWJU49OOVFC","39N6W9XWRD9306QNTNZSDTAN4LJGYK","","img/set1/S4.jpg","72","4","random","74","false","random,structured_normal,structured_incentive","2,3,1,2","",""
"null","","html-keyboard-response","81","259409","0.0-10.0","3JBT3HLQF9OB4TRLJUW0AST3JXCPZT","A2VNWJU49OOVFC","39N6W9XWRD9306QNTNZSDTAN4LJGYK","","<img src=""img/set1/S4.jpg"" width=""540"" height = ""360"">","null","","","","","","","",""
"null","","html-keyboard-response","82","259411","0.0-11.0","3JBT3HLQF9OB4TRLJUW0AST3JXCPZT","A2VNWJU49OOVFC","39N6W9XWRD9306QNTNZSDTAN4LJGYK","","","null","","","","","","","",""
"497.10000002384186","","image-keyboard-response","83","259910","0.0-12.0","3JBT3HLQF9OB4TRLJUW0AST3JXCPZT","A2VNWJU49OOVFC","39N6W9XWRD9306QNTNZSDTAN4LJGYK","","img/set1/S4.jpg","74","4","random","74","true","random,structured_normal,structured_incentive","2,3,1,2","",""
"null","","html-keyboard-response","84","260274","0.0-13.0","3JBT3HLQF9OB4TRLJUW0AST3JXCPZT","A2VNWJU49OOVFC","39N6W9XWRD9306QNTNZSDTAN4LJGYK","","<img src=""img/set1/S4.jpg"" width=""540"" height = ""360"" style=""border:16px solid orange"">","null","","","","","","","",""
"null","","html-keyboard-response","85","260276","0.0-14.0","3JBT3HLQF9OB4TRLJUW0AST3JXCPZT","A2VNWJU49OOVFC","39N6W9XWRD9306QNTNZSDTAN4LJGYK","","","null","","","","","","","",""
"655.6999999880791","","image-keyboard-response","86","260933","0.0-15.0","3JBT3HLQF9OB4TRLJUW0AST3JXCPZT","A2VNWJU49OOVFC","39N6W9XWRD9306QNTNZSDTAN4LJGYK","","img/set1/S4.jpg","74","4","random","74","true","random,structured_normal,structured_incentive","2,3,1,2","",""
"null","","html-keyboard-response","87","261295","0.0-16.0","3JBT3HLQF9OB4TRLJUW0AST3JXCPZT","A2VNWJU49OOVFC","39N6W9XWRD9306QNTNZSDTAN4LJGYK","","<img src=""img/set1/S4.jpg"" width=""540"" height = ""360"" style=""border:16px solid orange"">","null","","","","","","","",""
"null","","html-keyboard-response","88","261297","0.0-17.0","3JBT3HLQF9OB4TRLJUW0AST3JXCPZT","A2VNWJU49OOVFC","39N6W9XWRD9306QNTNZSDTAN4LJGYK","","","null","","","","","","","",""
"514.1999999880791","","image-keyboard-response","89","261813","0.0-18.0","3JBT3HLQF9OB4TRLJUW0AST3JXCPZT","A2VNWJU49OOVFC","39N6W9XWRD9306QNTNZSDTAN4LJGYK","","img/set1/S4.jpg","74","4","random","74","true","random,structured_normal,structured_incentive","2,3,1,2","",""
"null","","html-keyboard-response","90","262179","0.0-19.0","3JBT3HLQF9OB4TRLJUW0AST3JXCPZT","A2VNWJU49OOVFC","39N6W9XWRD9306QNTNZSDTAN4LJGYK","","<img src=""img/set1/S4.jpg"" width=""540"" height = ""360"" style=""border:16px solid orange"">","null","","","","","","","",""
"null","","html-keyboard-response","91","262181","0.0-20.0","3JBT3HLQF9OB4TRLJUW0AST3JXCPZT","A2VNWJU49OOVFC","39N6W9XWRD9306QNTNZSDTAN4LJGYK","","","null","","","","","","","",""
"662.9000000357628","","image-keyboard-response","92","262846","0.0-21.0","3JBT3HLQF9OB4TRLJUW0AST3JXCPZT","A2VNWJU49OOVFC","39N6W9XWRD9306QNTNZSDTAN4LJGYK","","img/set1/S2.jpg","83","2","random","68","false","random,structured_normal,structured_incentive","2,3,1,2","",""
"null","","html-keyboard-response","93","263206","0.0-22.0","3JBT3HLQF9OB4TRLJUW0AST3JXCPZT","A2VNWJU49OOVFC","39N6W9XWRD9306QNTNZSDTAN4LJGYK","","<img src=""img/set1/S2.jpg"" width=""540"" height = ""360"">","null","","","","","","","",""
"null","","html-keyboard-response","94","263208","0.0-23.0","3JBT3HLQF9OB4TRLJUW0AST3JXCPZT","A2VNWJU49OOVFC","39N6W9XWRD9306QNTNZSDTAN4LJGYK","","","null","","","","","","","",""
"764.5","","image-keyboard-response","95","263974","0.0-24.0","3JBT3HLQF9OB4TRLJUW0AST3JXCPZT","A2VNWJU49OOVFC","39N6W9XWRD9306QNTNZSDTAN4LJGYK","","img/set1/S3.jpg","68","3","random","72","false","random,structured_normal,structured_incentive","2,3,1,2","",""
"null","","html-keyboard-response","96","264338","0.0-25.0","3JBT3HLQF9OB4TRLJUW0AST3JXCPZT","A2VNWJU49OOVFC","39N6W9XWRD9306QNTNZSDTAN4LJGYK","","<img src=""img/set1/S3.jpg"" width=""540"" height = ""360"">","null","","","","","","","",""
"null","","html-keyboard-response","97","264340","0.0-26.0","3JBT3HLQF9OB4TRLJUW0AST3JXCPZT","A2VNWJU49OOVFC","39N6W9XWRD9306QNTNZSDTAN4LJGYK","","","null","","","","","","","",""
"624.6999999880791","","image-keyboard-response","98","264966","0.0-27.0","3JBT3HLQF9OB4TRLJUW0AST3JXCPZT","A2VNWJU49OOVFC","39N6W9XWRD9306QNTNZSDTAN4LJGYK","","img/set1/S2.jpg","68","2","random","68","true","random,structured_normal,structured_incentive","2,3,1,2","",""
"null","","html-keyboard-response","99","265326","0.0-28.0","3JBT3HLQF9OB4TRLJUW0AST3JXCPZT","A2VNWJU49OOVFC","39N6W9XWRD9306QNTNZSDTAN4LJGYK","","<img src=""img/set1/S2.jpg"" width=""540"" height = ""360"" style=""border:16px solid orange"">","null","","","","","","","",""
"null","","html-keyboard-response","100","265328","0.0-29.0","3JBT3HLQF9OB4TRLJUW0AST3JXCPZT","A2VNWJU49OOVFC","39N6W9XWRD9306QNTNZSDTAN4LJGYK","","","null","","","","","","","",""
"828.6999999880791","","image-keyboard-response","101","266158","0.0-30.0","3JBT3HLQF9OB4TRLJUW0AST3JXCPZT","A2VNWJU49OOVFC","39N6W9XWRD9306QNTNZSDTAN4LJGYK","","img/set1/S2.jpg","68","2","random","68","true","random,structured_normal,structured_incentive","2,3,1,2","",""
"null","","html-keyboard-response","102","266521","0.0-31.0","3JBT3HLQF9OB4TRLJUW0AST3JXCPZT","A2VNWJU49OOVFC","39N6W9XWRD9306QNTNZSDTAN4LJGYK","","<img src=""img/set1/S2.jpg"" width=""540"" height = ""360"" style=""border:16px solid orange"">","null","","","","","","","",""
"null","","html-keyboard-response","103","266523","0.0-32.0","3JBT3HLQF9OB4TRLJUW0AST3JXCPZT","A2VNWJU49OOVFC","39N6W9XWRD9306QNTNZSDTAN4LJGYK","","","null","","","","","","","",""
"812.3000000119209","","image-keyboard-response","104","267337","0.0-33.0","3JBT3HLQF9OB4TRLJUW0AST3JXCPZT","A2VNWJU49OOVFC","39N6W9XWRD9306QNTNZSDTAN4LJGYK","","img/set1/S3.jpg","74","3","random","72","false","random,structured_normal,structured_incentive","2,3,1,2","",""
"null","","html-keyboard-response","105","267701","0.0-34.0","3JBT3HLQF9OB4TRLJUW0AST3JXCPZT","A2VNWJU49OOVFC","39N6W9XWRD9306QNTNZSDTAN4LJGYK","","<img src=""img/set1/S3.jpg"" width=""540"" height = ""360"">","null","","","","","","","",""
"null","","html-keyboard-response","106","267703","0.0-35.0","3JBT3HLQF9OB4TRLJUW0AST3JXCPZT","A2VNWJU49OOVFC","39N6W9XWRD9306QNTNZSDTAN4LJGYK","","","null","","","","","","","",""
"1214","","image-keyboard-response","107","268919","0.0-36.0","3JBT3HLQF9OB4TRLJUW0AST3JXCPZT","A2VNWJU49OOVFC","39N6W9XWRD9306QNTNZSDTAN4LJGYK","","img/set1/S1.jpg","83","1","random","83","true","random,structured_normal,structured_incentive","2,3,1,2","",""
"null","","html-keyboard-response","108","269279","0.0-37.0","3JBT3HLQF9OB4TRLJUW0AST3JXCPZT","A2VNWJU49OOVFC","39N6W9XWRD9306QNTNZSDTAN4LJGYK","","<img src=""img/set1/S1.jpg"" width=""540"" height = ""360"" style=""border:16px solid orange"">","null","","","","","","","",""
"null","","html-keyboard-response","109","269281","0.0-38.0","3JBT3HLQF9OB4TRLJUW0AST3JXCPZT","A2VNWJU49OOVFC","39N6W9XWRD9306QNTNZSDTAN4LJGYK","","","null","","","","","","","",""
"723.5","","image-keyboard-response","110","270006","0.0-39.0","3JBT3HLQF9OB4TRLJUW0AST3JXCPZT","A2VNWJU49OOVFC","39N6W9XWRD9306QNTNZSDTAN4LJGYK","","img/set1/S2.jpg","83","2","random","68","false","random,structured_normal,structured_incentive","2,3,1,2","",""
"null","","html-keyboard-response","111","270361","0.0-40.0","3JBT3HLQF9OB4TRLJUW0AST3JXCPZT","A2VNWJU49OOVFC","39N6W9XWRD9306QNTNZSDTAN4LJGYK","","<img src=""img/set1/S2.jpg"" width=""540"" height = ""360"">","null","","","","","","","",""
"null","","html-keyboard-response","112","270363","0.0-41.0","3JBT3HLQF9OB4TRLJUW0AST3JXCPZT","A2VNWJU49OOVFC","39N6W9XWRD9306QNTNZSDTAN4LJGYK","","","null","","","","","","","",""
"697.5","","image-keyboard-response","113","271062","0.0-42.0","3JBT3HLQF9OB4TRLJUW0AST3JXCPZT","A2VNWJU49OOVFC","39N6W9XWRD9306QNTNZSDTAN4LJGYK","","img/set1/S2.jpg","68","2","random","68","true","random,structured_normal,structured_incentive","2,3,1,2","",""
"null","","html-keyboard-response","114","271429","0.0-43.0","3JBT3HLQF9OB4TRLJUW0AST3JXCPZT","A2VNWJU49OOVFC","39N6W9XWRD9306QNTNZSDTAN4LJGYK","","<img src=""img/set1/S2.jpg"" width=""540"" height = ""360"" style=""border:16px solid orange"">","null","","","","","","","",""
"null","","html-keyboard-response","115","271431","0.0-44.0","3JBT3HLQF9OB4TRLJUW0AST3JXCPZT","A2VNWJU49OOVFC","39N6W9XWRD9306QNTNZSDTAN4LJGYK","","","null","","","","","","","",""
"1077.5","","image-keyboard-response","116","272510","0.0-45.0","3JBT3HLQF9OB4TRLJUW0AST3JXCPZT","A2VNWJU49OOVFC","39N6W9XWRD9306QNTNZSDTAN4LJGYK","","img/set1/S4.jpg","72","4","random","74","false","random,structured_normal,structured_incentive","2,3,1,2","",""
"null","","html-keyboard-response","117","272872","0.0-46.0","3JBT3HLQF9OB4TRLJUW0AST3JXCPZT","A2VNWJU49OOVFC","39N6W9XWRD9306QNTNZSDTAN4LJGYK","","<img src=""img/set1/S4.jpg"" width=""540"" height = ""360"">","null","","","","","","","",""
"null","","html-keyboard-response","118","272874","0.0-47.0","3JBT3HLQF9OB4TRLJUW0AST3JXCPZT","A2VNWJU49OOVFC","39N6W9XWRD9306QNTNZSDTAN4LJGYK","","","null","","","","","","","",""
"1122.4000000357628","","image-keyboard-response","119","273998","0.0-48.0","3JBT3HLQF9OB4TRLJUW0AST3JXCPZT","A2VNWJU49OOVFC","39N6W9XWRD9306QNTNZSDTAN4LJGYK","","img/set1/S1.jpg","83","1","random","83","true","random,structured_normal,structured_incentive","2,3,1,2","",""
"null","","html-keyboard-response","120","274359","0.0-49.0","3JBT3HLQF9OB4TRLJUW0AST3JXCPZT","A2VNWJU49OOVFC","39N6W9XWRD9306QNTNZSDTAN4LJGYK","","<img src=""img/set1/S1.jpg"" width=""540"" height = ""360"" style=""border:16px solid orange"">","null","","","","","","","",""
"null","","html-keyboard-response","121","274361","0.0-50.0","3JBT3HLQF9OB4TRLJUW0AST3JXCPZT","A2VNWJU49OOVFC","39N6W9XWRD9306QNTNZSDTAN4LJGYK","","","null","","","","","","","",""
"555.0999999642372","","image-keyboard-response","122","274918","0.0-51.0","3JBT3HLQF9OB4TRLJUW0AST3JXCPZT","A2VNWJU49OOVFC","39N6W9XWRD9306QNTNZSDTAN4LJGYK","","img/set1/S1.jpg","83","1","random","83","true","random,structured_normal,structured_incentive","2,3,1,2","",""
"null","","html-keyboard-response","123","275285","0.0-52.0","3JBT3HLQF9OB4TRLJUW0AST3JXCPZT","A2VNWJU49OOVFC","39N6W9XWRD9306QNTNZSDTAN4LJGYK","","<img src=""img/set1/S1.jpg"" width=""540"" height = ""360"" style=""border:16px solid orange"">","null","","","","","","","",""
"null","","html-keyboard-response","124","275287","0.0-53.0","3JBT3HLQF9OB4TRLJUW0AST3JXCPZT","A2VNWJU49OOVFC","39N6W9XWRD9306QNTNZSDTAN4LJGYK","","","null","","","","","","","",""
"1333.6000000238419","","image-keyboard-response","125","276622","0.0-54.0","3JBT3HLQF9OB4TRLJUW0AST3JXCPZT","A2VNWJU49OOVFC","39N6W9XWRD9306QNTNZSDTAN4LJGYK","","img/set1/S2.jpg","74","2","random","68","false","random,structured_normal,structured_incentive","2,3,1,2","",""
"null","","html-keyboard-response","126","276982","0.0-55.0","3JBT3HLQF9OB4TRLJUW0AST3JXCPZT","A2VNWJU49OOVFC","39N6W9XWRD9306QNTNZSDTAN4LJGYK","","<img src=""img/set1/S2.jpg"" width=""540"" height = ""360"">","null","","","","","","","",""
"null","","html-keyboard-response","127","276985","0.0-56.0","3JBT3HLQF9OB4TRLJUW0AST3JXCPZT","A2VNWJU49OOVFC","39N6W9XWRD9306QNTNZSDTAN4LJGYK","","","null","","","","","","","",""
"1099.699999988079","","image-keyboard-response","128","278086","0.0-57.0","3JBT3HLQF9OB4TRLJUW0AST3JXCPZT","A2VNWJU49OOVFC","39N6W9XWRD9306QNTNZSDTAN4LJGYK","","img/set1/S1.jpg","72","1","random","83","false","random,structured_normal,structured_incentive","2,3,1,2","",""
"null","","html-keyboard-response","129","278450","0.0-58.0","3JBT3HLQF9OB4TRLJUW0AST3JXCPZT","A2VNWJU49OOVFC","39N6W9XWRD9306QNTNZSDTAN4LJGYK","","<img src=""img/set1/S1.jpg"" width=""540"" height = ""360"">","null","","","","","","","",""
"null","","html-keyboard-response","130","278453","0.0-59.0","3JBT3HLQF9OB4TRLJUW0AST3JXCPZT","A2VNWJU49OOVFC","39N6W9XWRD9306QNTNZSDTAN4LJGYK","","","null","","","","","","","",""
"560.1000000238419","","image-keyboard-response","131","279014","0.0-60.0","3JBT3HLQF9OB4TRLJUW0AST3JXCPZT","A2VNWJU49OOVFC","39N6W9XWRD9306QNTNZSDTAN4LJGYK","","img/set1/S1.jpg","68","1","random","83","false","random,structured_normal,structured_incentive","2,3,1,2","",""
"null","","html-keyboard-response","132","279380","0.0-61.0","3JBT3HLQF9OB4TRLJUW0AST3JXCPZT","A2VNWJU49OOVFC","39N6W9XWRD9306QNTNZSDTAN4LJGYK","","<img src=""img/set1/S1.jpg"" width=""540"" height = ""360"">","null","","","","","","","",""
"null","","html-keyboard-response","133","279382","0.0-62.0","3JBT3HLQF9OB4TRLJUW0AST3JXCPZT","A2VNWJU49OOVFC","39N6W9XWRD9306QNTNZSDTAN4LJGYK","","","null","","","","","","","",""
"934.7999999523163","","image-keyboard-response","134","280318","0.0-63.0","3JBT3HLQF9OB4TRLJUW0AST3JXCPZT","A2VNWJU49OOVFC","39N6W9XWRD9306QNTNZSDTAN4LJGYK","","img/set1/S1.jpg","83","1","random","83","true","random,structured_normal,structured_incentive","2,3,1,2","",""
"null","","html-keyboard-response","135","280685","0.0-64.0","3JBT3HLQF9OB4TRLJUW0AST3JXCPZT","A2VNWJU49OOVFC","39N6W9XWRD9306QNTNZSDTAN4LJGYK","","<img src=""img/set1/S1.jpg"" width=""540"" height = ""360"" style=""border:16px solid orange"">","null","","","","","","","",""
"null","","html-keyboard-response","136","280687","0.0-65.0","3JBT3HLQF9OB4TRLJUW0AST3JXCPZT","A2VNWJU49OOVFC","39N6W9XWRD9306QNTNZSDTAN4LJGYK","","","null","","","","","","","",""
"973.3000000119209","","image-keyboard-response","137","281662","0.0-66.0","3JBT3HLQF9OB4TRLJUW0AST3JXCPZT","A2VNWJU49OOVFC","39N6W9XWRD9306QNTNZSDTAN4LJGYK","","img/set1/S4.jpg","83","4","random","74","false","random,structured_normal,structured_incentive","2,3,1,2","",""
"null","","html-keyboard-response","138","282029","0.0-67.0","3JBT3HLQF9OB4TRLJUW0AST3JXCPZT","A2VNWJU49OOVFC","39N6W9XWRD9306QNTNZSDTAN4LJGYK","","<img src=""img/set1/S4.jpg"" width=""540"" height = ""360"">","null","","","","","","","",""
"null","","html-keyboard-response","139","282031","0.0-68.0","3JBT3HLQF9OB4TRLJUW0AST3JXCPZT","A2VNWJU49OOVFC","39N6W9XWRD9306QNTNZSDTAN4LJGYK","","","null","","","","","","","",""
"1029","","image-keyboard-response","140","283062","0.0-69.0","3JBT3HLQF9OB4TRLJUW0AST3JXCPZT","A2VNWJU49OOVFC","39N6W9XWRD9306QNTNZSDTAN4LJGYK","","img/set1/S2.jpg","83","2","random","68","false","random,structured_normal,structured_incentive","2,3,1,2","",""
"null","","html-keyboard-response","141","283429","0.0-70.0","3JBT3HLQF9OB4TRLJUW0AST3JXCPZT","A2VNWJU49OOVFC","39N6W9XWRD9306QNTNZSDTAN4LJGYK","","<img src=""img/set1/S2.jpg"" width=""540"" height = ""360"">","null","","","","","","","",""
"null","","html-keyboard-response","142","283431","0.0-71.0","3JBT3HLQF9OB4TRLJUW0AST3JXCPZT","A2VNWJU49OOVFC","39N6W9XWRD9306QNTNZSDTAN4LJGYK","","","null","","","","","","","",""
"853","","image-keyboard-response","143","284286","0.0-72.0","3JBT3HLQF9OB4TRLJUW0AST3JXCPZT","A2VNWJU49OOVFC","39N6W9XWRD9306QNTNZSDTAN4LJGYK","","img/set1/S3.jpg","72","3","random","72","true","random,structured_normal,structured_incentive","2,3,1,2","",""
"null","","html-keyboard-response","144","284649","0.0-73.0","3JBT3HLQF9OB4TRLJUW0AST3JXCPZT","A2VNWJU49OOVFC","39N6W9XWRD9306QNTNZSDTAN4LJGYK","","<img src=""img/set1/S3.jpg"" width=""540"" height = ""360"" style=""border:16px solid orange"">","null","","","","","","","",""
"null","","html-keyboard-response","145","284651","0.0-74.0","3JBT3HLQF9OB4TRLJUW0AST3JXCPZT","A2VNWJU49OOVFC","39N6W9XWRD9306QNTNZSDTAN4LJGYK","","","null","","","","","","","",""
"569.6999999880791","","image-keyboard-response","146","285222","0.0-75.0","3JBT3HLQF9OB4TRLJUW0AST3JXCPZT","A2VNWJU49OOVFC","39N6W9XWRD9306QNTNZSDTAN4LJGYK","","img/set1/S3.jpg","72","3","random","72","true","random,structured_normal,structured_incentive","2,3,1,2","",""
"null","","html-keyboard-response","147","285587","0.0-76.0","3JBT3HLQF9OB4TRLJUW0AST3JXCPZT","A2VNWJU49OOVFC","39N6W9XWRD9306QNTNZSDTAN4LJGYK","","<img src=""img/set1/S3.jpg"" width=""540"" height = ""360"" style=""border:16px solid orange"">","null","","","","","","","",""
"null","","html-keyboard-response","148","285589","0.0-77.0","3JBT3HLQF9OB4TRLJUW0AST3JXCPZT","A2VNWJU49OOVFC","39N6W9XWRD9306QNTNZSDTAN4LJGYK","","","null","","","","","","","",""
"920.7999999523163","","image-keyboard-response","149","286511","0.0-78.0","3JBT3HLQF9OB4TRLJUW0AST3JXCPZT","A2VNWJU49OOVFC","39N6W9XWRD9306QNTNZSDTAN4LJGYK","","img/set1/S4.jpg","74","4","random","74","true","random,structured_normal,structured_incentive","2,3,1,2","",""
"null","","html-keyboard-response","150","286873","0.0-79.0","3JBT3HLQF9OB4TRLJUW0AST3JXCPZT","A2VNWJU49OOVFC","39N6W9XWRD9306QNTNZSDTAN4LJGYK","","<img src=""img/set1/S4.jpg"" width=""540"" height = ""360"" style=""border:16px solid orange"">","null","","","","","","","",""
"null","","html-keyboard-response","151","286875","0.0-80.0","3JBT3HLQF9OB4TRLJUW0AST3JXCPZT","A2VNWJU49OOVFC","39N6W9XWRD9306QNTNZSDTAN4LJGYK","","","null","","","","","","","",""
"1026","","image-keyboard-response","152","287902","0.0-81.0","3JBT3HLQF9OB4TRLJUW0AST3JXCPZT","A2VNWJU49OOVFC","39N6W9XWRD9306QNTNZSDTAN4LJGYK","","img/set1/S1.jpg","68","1","random","83","false","random,structured_normal,structured_incentive","2,3,1,2","",""
"null","","html-keyboard-response","153","288265","0.0-82.0","3JBT3HLQF9OB4TRLJUW0AST3JXCPZT","A2VNWJU49OOVFC","39N6W9XWRD9306QNTNZSDTAN4LJGYK","","<img src=""img/set1/S1.jpg"" width=""540"" height = ""360"">","null","","","","","","","",""
"null","","html-keyboard-response","154","288267","0.0-83.0","3JBT3HLQF9OB4TRLJUW0AST3JXCPZT","A2VNWJU49OOVFC","39N6W9XWRD9306QNTNZSDTAN4LJGYK","","","null","","","","","","","",""
"1417.800000011921","","image-keyboard-response","155","289686","0.0-84.0","3JBT3HLQF9OB4TRLJUW0AST3JXCPZT","A2VNWJU49OOVFC","39N6W9XWRD9306QNTNZSDTAN4LJGYK","","img/set1/S4.jpg","72","4","random","74","false","random,structured_normal,structured_incentive","2,3,1,2","",""
"null","","html-keyboard-response","156","290041","0.0-85.0","3JBT3HLQF9OB4TRLJUW0AST3JXCPZT","A2VNWJU49OOVFC","39N6W9XWRD9306QNTNZSDTAN4LJGYK","","<img src=""img/set1/S4.jpg"" width=""540"" height = ""360"">","null","","","","","","","",""
"null","","html-keyboard-response","157","290043","0.0-86.0","3JBT3HLQF9OB4TRLJUW0AST3JXCPZT","A2VNWJU49OOVFC","39N6W9XWRD9306QNTNZSDTAN4LJGYK","","","null","","","","","","","",""
"697.1999999880791","","image-keyboard-response","158","290742","0.0-87.0","3JBT3HLQF9OB4TRLJUW0AST3JXCPZT","A2VNWJU49OOVFC","39N6W9XWRD9306QNTNZSDTAN4LJGYK","","img/set1/S3.jpg","74","3","random","72","false","random,structured_normal,structured_incentive","2,3,1,2","",""
"null","","html-keyboard-response","159","291099","0.0-88.0","3JBT3HLQF9OB4TRLJUW0AST3JXCPZT","A2VNWJU49OOVFC","39N6W9XWRD9306QNTNZSDTAN4LJGYK","","<img src=""img/set1/S3.jpg"" width=""540"" height = ""360"">","null","","","","","","","",""
"null","","html-keyboard-response","160","291101","0.0-89.0","3JBT3HLQF9OB4TRLJUW0AST3JXCPZT","A2VNWJU49OOVFC","39N6W9XWRD9306QNTNZSDTAN4LJGYK","","","null","","","","","","","",""
"407.39999997615814","","image-keyboard-response","161","291510","0.0-90.0","3JBT3HLQF9OB4TRLJUW0AST3JXCPZT","A2VNWJU49OOVFC","39N6W9XWRD9306QNTNZSDTAN4LJGYK","","img/set1/S1.jpg","83","1","random","83","true","random,structured_normal,structured_incentive","2,3,1,2","",""
"null","","html-keyboard-response","162","291870","0.0-91.0","3JBT3HLQF9OB4TRLJUW0AST3JXCPZT","A2VNWJU49OOVFC","39N6W9XWRD9306QNTNZSDTAN4LJGYK","","<img src=""img/set1/S1.jpg"" width=""540"" height = ""360"" style=""border:16px solid orange"">","null","","","","","","","",""
"null","","html-keyboard-response","163","291872","0.0-92.0","3JBT3HLQF9OB4TRLJUW0AST3JXCPZT","A2VNWJU49OOVFC","39N6W9XWRD9306QNTNZSDTAN4LJGYK","","","null","","","","","","","",""
"515.9000000357628","","image-keyboard-response","164","292390","0.0-93.0","3JBT3HLQF9OB4TRLJUW0AST3JXCPZT","A2VNWJU49OOVFC","39N6W9XWRD9306QNTNZSDTAN4LJGYK","","img/set1/S1.jpg","83","1","random","83","true","random,structured_normal,structured_incentive","2,3,1,2","",""
"null","","html-keyboard-response","165","292754","0.0-94.0","3JBT3HLQF9OB4TRLJUW0AST3JXCPZT","A2VNWJU49OOVFC","39N6W9XWRD9306QNTNZSDTAN4LJGYK","","<img src=""img/set1/S1.jpg"" width=""540"" height = ""360"" style=""border:16px solid orange"">","null","","","","","","","",""
"null","","html-keyboard-response","166","292756","0.0-95.0","3JBT3HLQF9OB4TRLJUW0AST3JXCPZT","A2VNWJU49OOVFC","39N6W9XWRD9306QNTNZSDTAN4LJGYK","","","null","","","","","","","",""
"816.6000000238419","","image-keyboard-response","167","293574","0.0-96.0","3JBT3HLQF9OB4TRLJUW0AST3JXCPZT","A2VNWJU49OOVFC","39N6W9XWRD9306QNTNZSDTAN4LJGYK","","img/set1/S4.jpg","68","4","random","74","false","random,structured_normal,structured_incentive","2,3,1,2","",""
"null","","html-keyboard-response","168","293930","0.0-97.0","3JBT3HLQF9OB4TRLJUW0AST3JXCPZT","A2VNWJU49OOVFC","39N6W9XWRD9306QNTNZSDTAN4LJGYK","","<img src=""img/set1/S4.jpg"" width=""540"" height = ""360"">","null","","","","","","","",""
"null","","html-keyboard-response","169","293932","0.0-98.0","3JBT3HLQF9OB4TRLJUW0AST3JXCPZT","A2VNWJU49OOVFC","39N6W9XWRD9306QNTNZSDTAN4LJGYK","","","null","","","","","","","",""
"376.5999999642372","","image-keyboard-response","170","294310","0.0-99.0","3JBT3HLQF9OB4TRLJUW0AST3JXCPZT","A2VNWJU49OOVFC","39N6W9XWRD9306QNTNZSDTAN4LJGYK","","img/set1/S2.jpg","72","2","random","68","false","random,structured_normal,structured_incentive","2,3,1,2","",""
"null","","html-keyboard-response","171","294673","0.0-100.0","3JBT3HLQF9OB4TRLJUW0AST3JXCPZT","A2VNWJU49OOVFC","39N6W9XWRD9306QNTNZSDTAN4LJGYK","","<img src=""img/set1/S2.jpg"" width=""540"" height = ""360"">","null","","","","","","","",""
"null","","html-keyboard-response","172","294675","0.0-101.0","3JBT3HLQF9OB4TRLJUW0AST3JXCPZT","A2VNWJU49OOVFC","39N6W9XWRD9306QNTNZSDTAN4LJGYK","","","null","","","","","","","",""
"513.5","","image-keyboard-response","173","295190","0.0-102.0","3JBT3HLQF9OB4TRLJUW0AST3JXCPZT","A2VNWJU49OOVFC","39N6W9XWRD9306QNTNZSDTAN4LJGYK","","img/set1/S4.jpg","83","4","random","74","false","random,structured_normal,structured_incentive","2,3,1,2","",""
"null","","html-keyboard-response","174","295555","0.0-103.0","3JBT3HLQF9OB4TRLJUW0AST3JXCPZT","A2VNWJU49OOVFC","39N6W9XWRD9306QNTNZSDTAN4LJGYK","","<img src=""img/set1/S4.jpg"" width=""540"" height = ""360"">","null","","","","","","","",""
"null","","html-keyboard-response","175","295557","0.0-104.0","3JBT3HLQF9OB4TRLJUW0AST3JXCPZT","A2VNWJU49OOVFC","39N6W9XWRD9306QNTNZSDTAN4LJGYK","","","null","","","","","","","",""
"1143.699999988079","","image-keyboard-response","176","296702","0.0-105.0","3JBT3HLQF9OB4TRLJUW0AST3JXCPZT","A2VNWJU49OOVFC","39N6W9XWRD9306QNTNZSDTAN4LJGYK","","img/set1/S2.jpg","83","2","random","68","false","random,structured_normal,structured_incentive","2,3,1,2","",""
"null","","html-keyboard-response","177","297063","0.0-106.0","3JBT3HLQF9OB4TRLJUW0AST3JXCPZT","A2VNWJU49OOVFC","39N6W9XWRD9306QNTNZSDTAN4LJGYK","","<img src=""img/set1/S2.jpg"" width=""540"" height = ""360"">","null","","","","","","","",""
"null","","html-keyboard-response","178","297065","0.0-107.0","3JBT3HLQF9OB4TRLJUW0AST3JXCPZT","A2VNWJU49OOVFC","39N6W9XWRD9306QNTNZSDTAN4LJGYK","","","null","","","","","","","",""
"1588.199999988079","","image-keyboard-response","179","298655","0.0-108.0","3JBT3HLQF9OB4TRLJUW0AST3JXCPZT","A2VNWJU49OOVFC","39N6W9XWRD9306QNTNZSDTAN4LJGYK","","img/set1/S3.jpg","74","3","random","72","false","random,structured_normal,structured_incentive","2,3,1,2","",""
"null","","html-keyboard-response","180","299022","0.0-109.0","3JBT3HLQF9OB4TRLJUW0AST3JXCPZT","A2VNWJU49OOVFC","39N6W9XWRD9306QNTNZSDTAN4LJGYK","","<img src=""img/set1/S3.jpg"" width=""540"" height = ""360"">","null","","","","","","","",""
"null","","html-keyboard-response","181","299024","0.0-110.0","3JBT3HLQF9OB4TRLJUW0AST3JXCPZT","A2VNWJU49OOVFC","39N6W9XWRD9306QNTNZSDTAN4LJGYK","","","null","","","","","","","",""
"933","","image-keyboard-response","182","299959","0.0-111.0","3JBT3HLQF9OB4TRLJUW0AST3JXCPZT","A2VNWJU49OOVFC","39N6W9XWRD9306QNTNZSDTAN4LJGYK","","img/set1/S1.jpg","72","1","random","83","false","random,structured_normal,structured_incentive","2,3,1,2","",""
"null","","html-keyboard-response","183","300312","0.0-112.0","3JBT3HLQF9OB4TRLJUW0AST3JXCPZT","A2VNWJU49OOVFC","39N6W9XWRD9306QNTNZSDTAN4LJGYK","","<img src=""img/set1/S1.jpg"" width=""540"" height = ""360"">","null","","","","","","","",""
"null","","html-keyboard-response","184","300314","0.0-113.0","3JBT3HLQF9OB4TRLJUW0AST3JXCPZT","A2VNWJU49OOVFC","39N6W9XWRD9306QNTNZSDTAN4LJGYK","","","null","","","","","","","",""
"1274.699999988079","","image-keyboard-response","185","301591","0.0-114.0","3JBT3HLQF9OB4TRLJUW0AST3JXCPZT","A2VNWJU49OOVFC","39N6W9XWRD9306QNTNZSDTAN4LJGYK","","img/set1/S3.jpg","72","3","random","72","true","random,structured_normal,structured_incentive","2,3,1,2","",""
"null","","html-keyboard-response","186","301950","0.0-115.0","3JBT3HLQF9OB4TRLJUW0AST3JXCPZT","A2VNWJU49OOVFC","39N6W9XWRD9306QNTNZSDTAN4LJGYK","","<img src=""img/set1/S3.jpg"" width=""540"" height = ""360"" style=""border:16px solid orange"">","null","","","","","","","",""
"null","","html-keyboard-response","187","301952","0.0-116.0","3JBT3HLQF9OB4TRLJUW0AST3JXCPZT","A2VNWJU49OOVFC","39N6W9XWRD9306QNTNZSDTAN4LJGYK","","","null","","","","","","","",""
"604.5999999642372","","image-keyboard-response","188","302559","0.0-117.0","3JBT3HLQF9OB4TRLJUW0AST3JXCPZT","A2VNWJU49OOVFC","39N6W9XWRD9306QNTNZSDTAN4LJGYK","","img/set1/S3.jpg","72","3","random","72","true","random,structured_normal,structured_incentive","2,3,1,2","",""
"null","","html-keyboard-response","189","302926","0.0-118.0","3JBT3HLQF9OB4TRLJUW0AST3JXCPZT","A2VNWJU49OOVFC","39N6W9XWRD9306QNTNZSDTAN4LJGYK","","<img src=""img/set1/S3.jpg"" width=""540"" height = ""360"" style=""border:16px solid orange"">","null","","","","","","","",""
"null","","html-keyboard-response","190","302928","0.0-119.0","3JBT3HLQF9OB4TRLJUW0AST3JXCPZT","A2VNWJU49OOVFC","39N6W9XWRD9306QNTNZSDTAN4LJGYK","","","null","","","","","","","",""
"1396.5","","image-keyboard-response","191","304327","0.0-120.0","3JBT3HLQF9OB4TRLJUW0AST3JXCPZT","A2VNWJU49OOVFC","39N6W9XWRD9306QNTNZSDTAN4LJGYK","","img/set1/S2.jpg","68","2","random","68","true","random,structured_normal,structured_incentive","2,3,1,2","",""
"null","","html-keyboard-response","192","304690","0.0-121.0","3JBT3HLQF9OB4TRLJUW0AST3JXCPZT","A2VNWJU49OOVFC","39N6W9XWRD9306QNTNZSDTAN4LJGYK","","<img src=""img/set1/S2.jpg"" width=""540"" height = ""360"" style=""border:16px solid orange"">","null","","","","","","","",""
"null","","html-keyboard-response","193","304692","0.0-122.0","3JBT3HLQF9OB4TRLJUW0AST3JXCPZT","A2VNWJU49OOVFC","39N6W9XWRD9306QNTNZSDTAN4LJGYK","","","null","","","","","","","",""
"1054.699999988079","","image-keyboard-response","194","305751","0.0-123.0","3JBT3HLQF9OB4TRLJUW0AST3JXCPZT","A2VNWJU49OOVFC","39N6W9XWRD9306QNTNZSDTAN4LJGYK","","img/set1/S4.jpg","83","4","random","74","false","random,structured_normal,structured_incentive","2,3,1,2","",""
"null","","html-keyboard-response","195","306110","0.0-124.0","3JBT3HLQF9OB4TRLJUW0AST3JXCPZT","A2VNWJU49OOVFC","39N6W9XWRD9306QNTNZSDTAN4LJGYK","","<img src=""img/set1/S4.jpg"" width=""540"" height = ""360"">","null","","","","","","","",""
"null","","html-keyboard-response","196","306112","0.0-125.0","3JBT3HLQF9OB4TRLJUW0AST3JXCPZT","A2VNWJU49OOVFC","39N6W9XWRD9306QNTNZSDTAN4LJGYK","","","null","","","","","","","",""
"988.6000000238419","","image-keyboard-response","197","307103","0.0-126.0","3JBT3HLQF9OB4TRLJUW0AST3JXCPZT","A2VNWJU49OOVFC","39N6W9XWRD9306QNTNZSDTAN4LJGYK","","img/set1/S2.jpg","68","2","random","68","true","random,structured_normal,structured_incentive","2,3,1,2","",""
"null","","html-keyboard-response","198","307464","0.0-127.0","3JBT3HLQF9OB4TRLJUW0AST3JXCPZT","A2VNWJU49OOVFC","39N6W9XWRD9306QNTNZSDTAN4LJGYK","","<img src=""img/set1/S2.jpg"" width=""540"" height = ""360"" style=""border:16px solid orange"">","null","","","","","","","",""
"null","","html-keyboard-response","199","307466","0.0-128.0","3JBT3HLQF9OB4TRLJUW0AST3JXCPZT","A2VNWJU49OOVFC","39N6W9XWRD9306QNTNZSDTAN4LJGYK","","","null","","","","","","","",""
"641.8999999761581","","image-keyboard-response","200","308111","0.0-129.0","3JBT3HLQF9OB4TRLJUW0AST3JXCPZT","A2VNWJU49OOVFC","39N6W9XWRD9306QNTNZSDTAN4LJGYK","","img/set1/S4.jpg","72","4","random","74","false","random,structured_normal,structured_incentive","2,3,1,2","",""
"null","","html-keyboard-response","201","308473","0.0-130.0","3JBT3HLQF9OB4TRLJUW0AST3JXCPZT","A2VNWJU49OOVFC","39N6W9XWRD9306QNTNZSDTAN4LJGYK","","<img src=""img/set1/S4.jpg"" width=""540"" height = ""360"">","null","","","","","","","",""
"null","","html-keyboard-response","202","308475","0.0-131.0","3JBT3HLQF9OB4TRLJUW0AST3JXCPZT","A2VNWJU49OOVFC","39N6W9XWRD9306QNTNZSDTAN4LJGYK","","","null","","","","","","","",""
"1010.0999999642372","","image-keyboard-response","203","309487","0.0-132.0","3JBT3HLQF9OB4TRLJUW0AST3JXCPZT","A2VNWJU49OOVFC","39N6W9XWRD9306QNTNZSDTAN4LJGYK","","img/set1/S1.jpg","72","1","random","83","false","random,structured_normal,structured_incentive","2,3,1,2","",""
"null","","html-keyboard-response","204","309846","0.0-133.0","3JBT3HLQF9OB4TRLJUW0AST3JXCPZT","A2VNWJU49OOVFC","39N6W9XWRD9306QNTNZSDTAN4LJGYK","","<img src=""img/set1/S1.jpg"" width=""540"" height = ""360"">","null","","","","","","","",""
"null","","html-keyboard-response","205","309848","0.0-134.0","3JBT3HLQF9OB4TRLJUW0AST3JXCPZT","A2VNWJU49OOVFC","39N6W9XWRD9306QNTNZSDTAN4LJGYK","","","null","","","","","","","",""
"1101.2000000476837","","image-keyboard-response","206","310951","0.0-135.0","3JBT3HLQF9OB4TRLJUW0AST3JXCPZT","A2VNWJU49OOVFC","39N6W9XWRD9306QNTNZSDTAN4LJGYK","","img/set1/S3.jpg","74","3","random","72","false","random,structured_normal,structured_incentive","2,3,1,2","",""
"null","","html-keyboard-response","207","311315","0.0-136.0","3JBT3HLQF9OB4TRLJUW0AST3JXCPZT","A2VNWJU49OOVFC","39N6W9XWRD9306QNTNZSDTAN4LJGYK","","<img src=""img/set1/S3.jpg"" width=""540"" height = ""360"">","null","","","","","","","",""
"null","","html-keyboard-response","208","311317","0.0-137.0","3JBT3HLQF9OB4TRLJUW0AST3JXCPZT","A2VNWJU49OOVFC","39N6W9XWRD9306QNTNZSDTAN4LJGYK","","","null","","","","","","","",""
"1151.3999999761581","","image-keyboard-response","209","312471","0.0-138.0","3JBT3HLQF9OB4TRLJUW0AST3JXCPZT","A2VNWJU49OOVFC","39N6W9XWRD9306QNTNZSDTAN4LJGYK","","img/set1/S2.jpg","68","2","random","68","true","random,structured_normal,structured_incentive","2,3,1,2","",""
"null","","html-keyboard-response","210","312833","0.0-139.0","3JBT3HLQF9OB4TRLJUW0AST3JXCPZT","A2VNWJU49OOVFC","39N6W9XWRD9306QNTNZSDTAN4LJGYK","","<img src=""img/set1/S2.jpg"" width=""540"" height = ""360"" style=""border:16px solid orange"">","null","","","","","","","",""
"null","","html-keyboard-response","211","312835","0.0-140.0","3JBT3HLQF9OB4TRLJUW0AST3JXCPZT","A2VNWJU49OOVFC","39N6W9XWRD9306QNTNZSDTAN4LJGYK","","","null","","","","","","","",""
"1246.7000000476837","","image-keyboard-response","212","314084","0.0-141.0","3JBT3HLQF9OB4TRLJUW0AST3JXCPZT","A2VNWJU49OOVFC","39N6W9XWRD9306QNTNZSDTAN4LJGYK","","img/set1/S3.jpg","72","3","random","72","true","random,structured_normal,structured_incentive","2,3,1,2","",""
"null","","html-keyboard-response","213","314442","0.0-142.0","3JBT3HLQF9OB4TRLJUW0AST3JXCPZT","A2VNWJU49OOVFC","39N6W9XWRD9306QNTNZSDTAN4LJGYK","","<img src=""img/set1/S3.jpg"" width=""540"" height = ""360"" style=""border:16px solid orange"">","null","","","","","","","",""
"null","","html-keyboard-response","214","314444","0.0-143.0","3JBT3HLQF9OB4TRLJUW0AST3JXCPZT","A2VNWJU49OOVFC","39N6W9XWRD9306QNTNZSDTAN4LJGYK","","","null","","","","","","","",""
"1152.6000000238419","","image-keyboard-response","215","315599","0.0-144.0","3JBT3HLQF9OB4TRLJUW0AST3JXCPZT","A2VNWJU49OOVFC","39N6W9XWRD9306QNTNZSDTAN4LJGYK","","img/set1/S4.jpg","74","4","random","74","true","random,structured_normal,structured_incentive","2,3,1,2","",""
"null","","html-keyboard-response","216","315958","0.0-145.0","3JBT3HLQF9OB4TRLJUW0AST3JXCPZT","A2VNWJU49OOVFC","39N6W9XWRD9306QNTNZSDTAN4LJGYK","","<img src=""img/set1/S4.jpg"" width=""540"" height = ""360"" style=""border:16px solid orange"">","null","","","","","","","",""
"null","","html-keyboard-response","217","315960","0.0-146.0","3JBT3HLQF9OB4TRLJUW0AST3JXCPZT","A2VNWJU49OOVFC","39N6W9XWRD9306QNTNZSDTAN4LJGYK","","","null","","","","","","","",""
"1092.7999999523163","","image-keyboard-response","218","317055","0.0-147.0","3JBT3HLQF9OB4TRLJUW0AST3JXCPZT","A2VNWJU49OOVFC","39N6W9XWRD9306QNTNZSDTAN4LJGYK","","img/set1/S1.jpg","83","1","random","83","true","random,structured_normal,structured_incentive","2,3,1,2","",""
"null","","html-keyboard-response","219","317413","0.0-148.0","3JBT3HLQF9OB4TRLJUW0AST3JXCPZT","A2VNWJU49OOVFC","39N6W9XWRD9306QNTNZSDTAN4LJGYK","","<img src=""img/set1/S1.jpg"" width=""540"" height = ""360"" style=""border:16px solid orange"">","null","","","","","","","",""
"null","","html-keyboard-response","220","317415","0.0-149.0","3JBT3HLQF9OB4TRLJUW0AST3JXCPZT","A2VNWJU49OOVFC","39N6W9XWRD9306QNTNZSDTAN4LJGYK","","","null","","","","","","","",""
"821.8999999761581","","image-keyboard-response","221","318239","0.0-150.0","3JBT3HLQF9OB4TRLJUW0AST3JXCPZT","A2VNWJU49OOVFC","39N6W9XWRD9306QNTNZSDTAN4LJGYK","","img/set1/S4.jpg","72","4","random","74","false","random,structured_normal,structured_incentive","2,3,1,2","",""
"null","","html-keyboard-response","222","318606","0.0-151.0","3JBT3HLQF9OB4TRLJUW0AST3JXCPZT","A2VNWJU49OOVFC","39N6W9XWRD9306QNTNZSDTAN4LJGYK","","<img src=""img/set1/S4.jpg"" width=""540"" height = ""360"">","null","","","","","","","",""
"null","","html-keyboard-response","223","318608","0.0-152.0","3JBT3HLQF9OB4TRLJUW0AST3JXCPZT","A2VNWJU49OOVFC","39N6W9XWRD9306QNTNZSDTAN4LJGYK","","","null","","","","","","","",""
"1052.7999999523163","","image-keyboard-response","224","319663","0.0-153.0","3JBT3HLQF9OB4TRLJUW0AST3JXCPZT","A2VNWJU49OOVFC","39N6W9XWRD9306QNTNZSDTAN4LJGYK","","img/set1/S2.jpg","68","2","random","68","true","random,structured_normal,structured_incentive","2,3,1,2","",""
"null","","html-keyboard-response","225","320017","0.0-154.0","3JBT3HLQF9OB4TRLJUW0AST3JXCPZT","A2VNWJU49OOVFC","39N6W9XWRD9306QNTNZSDTAN4LJGYK","","<img src=""img/set1/S2.jpg"" width=""540"" height = ""360"" style=""border:16px solid orange"">","null","","","","","","","",""
"null","","html-keyboard-response","226","320019","0.0-155.0","3JBT3HLQF9OB4TRLJUW0AST3JXCPZT","A2VNWJU49OOVFC","39N6W9XWRD9306QNTNZSDTAN4LJGYK","","","null","","","","","","","",""
"1146.300000011921","","image-keyboard-response","227","321167","0.0-156.0","3JBT3HLQF9OB4TRLJUW0AST3JXCPZT","A2VNWJU49OOVFC","39N6W9XWRD9306QNTNZSDTAN4LJGYK","","img/set1/S1.jpg","74","1","random","83","false","random,structured_normal,structured_incentive","2,3,1,2","",""
"null","","html-keyboard-response","228","321527","0.0-157.0","3JBT3HLQF9OB4TRLJUW0AST3JXCPZT","A2VNWJU49OOVFC","39N6W9XWRD9306QNTNZSDTAN4LJGYK","","<img src=""img/set1/S1.jpg"" width=""540"" height = ""360"">","null","","","","","","","",""
"null","","html-keyboard-response","229","321529","0.0-158.0","3JBT3HLQF9OB4TRLJUW0AST3JXCPZT","A2VNWJU49OOVFC","39N6W9XWRD9306QNTNZSDTAN4LJGYK","","","null","","","","","","","",""
"779.7999999523163","","image-keyboard-response","230","322311","0.0-159.0","3JBT3HLQF9OB4TRLJUW0AST3JXCPZT","A2VNWJU49OOVFC","39N6W9XWRD9306QNTNZSDTAN4LJGYK","","img/set1/S1.jpg","72","1","random","83","false","random,structured_normal,structured_incentive","2,3,1,2","",""
"null","","html-keyboard-response","231","322675","0.0-160.0","3JBT3HLQF9OB4TRLJUW0AST3JXCPZT","A2VNWJU49OOVFC","39N6W9XWRD9306QNTNZSDTAN4LJGYK","","<img src=""img/set1/S1.jpg"" width=""540"" height = ""360"">","null","","","","","","","",""
"null","","html-keyboard-response","232","322677","0.0-161.0","3JBT3HLQF9OB4TRLJUW0AST3JXCPZT","A2VNWJU49OOVFC","39N6W9XWRD9306QNTNZSDTAN4LJGYK","","","null","","","","","","","",""
"1335.2999999523163","","image-keyboard-response","233","324015","0.0-162.0","3JBT3HLQF9OB4TRLJUW0AST3JXCPZT","A2VNWJU49OOVFC","39N6W9XWRD9306QNTNZSDTAN4LJGYK","","img/set1/S3.jpg","74","3","random","72","false","random,structured_normal,structured_incentive","2,3,1,2","",""
"null","","html-keyboard-response","234","324381","0.0-163.0","3JBT3HLQF9OB4TRLJUW0AST3JXCPZT","A2VNWJU49OOVFC","39N6W9XWRD9306QNTNZSDTAN4LJGYK","","<img src=""img/set1/S3.jpg"" width=""540"" height = ""360"">","null","","","","","","","",""
"null","","html-keyboard-response","235","324383","0.0-164.0","3JBT3HLQF9OB4TRLJUW0AST3JXCPZT","A2VNWJU49OOVFC","39N6W9XWRD9306QNTNZSDTAN4LJGYK","","","null","","","","","","","",""
"1469.699999988079","","image-keyboard-response","236","325855","0.0-165.0","3JBT3HLQF9OB4TRLJUW0AST3JXCPZT","A2VNWJU49OOVFC","39N6W9XWRD9306QNTNZSDTAN4LJGYK","","img/set1/S1.jpg","68","1","random","83","false","random,structured_normal,structured_incentive","2,3,1,2","",""
"null","","html-keyboard-response","237","326209","0.0-166.0","3JBT3HLQF9OB4TRLJUW0AST3JXCPZT","A2VNWJU49OOVFC","39N6W9XWRD9306QNTNZSDTAN4LJGYK","","<img src=""img/set1/S1.jpg"" width=""540"" height = ""360"">","null","","","","","","","",""
"null","","html-keyboard-response","238","326211","0.0-167.0","3JBT3HLQF9OB4TRLJUW0AST3JXCPZT","A2VNWJU49OOVFC","39N6W9XWRD9306QNTNZSDTAN4LJGYK","","","null","","","","","","","",""
"1001.6999999880791","","image-keyboard-response","239","327215","0.0-168.0","3JBT3HLQF9OB4TRLJUW0AST3JXCPZT","A2VNWJU49OOVFC","39N6W9XWRD9306QNTNZSDTAN4LJGYK","","img/set1/S2.jpg","83","2","random","68","false","random,structured_normal,structured_incentive","2,3,1,2","",""
"null","","html-keyboard-response","240","327577","0.0-169.0","3JBT3HLQF9OB4TRLJUW0AST3JXCPZT","A2VNWJU49OOVFC","39N6W9XWRD9306QNTNZSDTAN4LJGYK","","<img src=""img/set1/S2.jpg"" width=""540"" height = ""360"">","null","","","","","","","",""
"null","","html-keyboard-response","241","327579","0.0-170.0","3JBT3HLQF9OB4TRLJUW0AST3JXCPZT","A2VNWJU49OOVFC","39N6W9XWRD9306QNTNZSDTAN4LJGYK","","","null","","","","","","","",""
"777.2999999523163","","image-keyboard-response","242","328359","0.0-171.0","3JBT3HLQF9OB4TRLJUW0AST3JXCPZT","A2VNWJU49OOVFC","39N6W9XWRD9306QNTNZSDTAN4LJGYK","","img/set1/S1.jpg","68","1","random","83","false","random,structured_normal,structured_incentive","2,3,1,2","",""
"null","","html-keyboard-response","243","328721","0.0-172.0","3JBT3HLQF9OB4TRLJUW0AST3JXCPZT","A2VNWJU49OOVFC","39N6W9XWRD9306QNTNZSDTAN4LJGYK","","<img src=""img/set1/S1.jpg"" width=""540"" height = ""360"">","null","","","","","","","",""
"null","","html-keyboard-response","244","328723","0.0-173.0","3JBT3HLQF9OB4TRLJUW0AST3JXCPZT","A2VNWJU49OOVFC","39N6W9XWRD9306QNTNZSDTAN4LJGYK","","","null","","","","","","","",""
"721.7999999523163","","image-keyboard-response","245","329447","0.0-174.0","3JBT3HLQF9OB4TRLJUW0AST3JXCPZT","A2VNWJU49OOVFC","39N6W9XWRD9306QNTNZSDTAN4LJGYK","","img/set1/S3.jpg","72","3","random","72","true","random,structured_normal,structured_incentive","2,3,1,2","",""
"null","","html-keyboard-response","246","329805","0.0-175.0","3JBT3HLQF9OB4TRLJUW0AST3JXCPZT","A2VNWJU49OOVFC","39N6W9XWRD9306QNTNZSDTAN4LJGYK","","<img src=""img/set1/S3.jpg"" width=""540"" height = ""360"" style=""border:16px solid orange"">","null","","","","","","","",""
"null","","html-keyboard-response","247","329807","0.0-176.0","3JBT3HLQF9OB4TRLJUW0AST3JXCPZT","A2VNWJU49OOVFC","39N6W9XWRD9306QNTNZSDTAN4LJGYK","","","null","","","","","","","",""
"1102.300000011921","","image-keyboard-response","248","330911","0.0-177.0","3JBT3HLQF9OB4TRLJUW0AST3JXCPZT","A2VNWJU49OOVFC","39N6W9XWRD9306QNTNZSDTAN4LJGYK","","img/set1/S1.jpg","68","1","random","83","false","random,structured_normal,structured_incentive","2,3,1,2","",""
"null","","html-keyboard-response","249","331274","0.0-178.0","3JBT3HLQF9OB4TRLJUW0AST3JXCPZT","A2VNWJU49OOVFC","39N6W9XWRD9306QNTNZSDTAN4LJGYK","","<img src=""img/set1/S1.jpg"" width=""540"" height = ""360"">","null","","","","","","","",""
"null","","html-keyboard-response","250","331277","0.0-179.0","3JBT3HLQF9OB4TRLJUW0AST3JXCPZT","A2VNWJU49OOVFC","39N6W9XWRD9306QNTNZSDTAN4LJGYK","","","null","","","","","","","",""
"568.3000000119209","","image-keyboard-response","251","331847","0.0-180.0","3JBT3HLQF9OB4TRLJUW0AST3JXCPZT","A2VNWJU49OOVFC","39N6W9XWRD9306QNTNZSDTAN4LJGYK","","img/set1/S2.jpg","72","2","random","68","false","random,structured_normal,structured_incentive","2,3,1,2","",""
"null","","html-keyboard-response","252","332202","0.0-181.0","3JBT3HLQF9OB4TRLJUW0AST3JXCPZT","A2VNWJU49OOVFC","39N6W9XWRD9306QNTNZSDTAN4LJGYK","","<img src=""img/set1/S2.jpg"" width=""540"" height = ""360"">","null","","","","","","","",""
"null","","html-keyboard-response","253","332205","0.0-182.0","3JBT3HLQF9OB4TRLJUW0AST3JXCPZT","A2VNWJU49OOVFC","39N6W9XWRD9306QNTNZSDTAN4LJGYK","","","null","","","","","","","",""
"576","","image-keyboard-response","254","332783","0.0-183.0","3JBT3HLQF9OB4TRLJUW0AST3JXCPZT","A2VNWJU49OOVFC","39N6W9XWRD9306QNTNZSDTAN4LJGYK","","img/set1/S1.jpg","83","1","random","83","true","random,structured_normal,structured_incentive","2,3,1,2","",""
"null","","html-keyboard-response","255","333149","0.0-184.0","3JBT3HLQF9OB4TRLJUW0AST3JXCPZT","A2VNWJU49OOVFC","39N6W9XWRD9306QNTNZSDTAN4LJGYK","","<img src=""img/set1/S1.jpg"" width=""540"" height = ""360"" style=""border:16px solid orange"">","null","","","","","","","",""
"null","","html-keyboard-response","256","333152","0.0-185.0","3JBT3HLQF9OB4TRLJUW0AST3JXCPZT","A2VNWJU49OOVFC","39N6W9XWRD9306QNTNZSDTAN4LJGYK","","","null","","","","","","","",""
"1381.199999988079","","image-keyboard-response","257","334535","0.0-186.0","3JBT3HLQF9OB4TRLJUW0AST3JXCPZT","A2VNWJU49OOVFC","39N6W9XWRD9306QNTNZSDTAN4LJGYK","","img/set1/S2.jpg","74","2","random","68","false","random,structured_normal,structured_incentive","2,3,1,2","",""
"null","","html-keyboard-response","258","334897","0.0-187.0","3JBT3HLQF9OB4TRLJUW0AST3JXCPZT","A2VNWJU49OOVFC","39N6W9XWRD9306QNTNZSDTAN4LJGYK","","<img src=""img/set1/S2.jpg"" width=""540"" height = ""360"">","null","","","","","","","",""
"null","","html-keyboard-response","259","334899","0.0-188.0","3JBT3HLQF9OB4TRLJUW0AST3JXCPZT","A2VNWJU49OOVFC","39N6W9XWRD9306QNTNZSDTAN4LJGYK","","","null","","","","","","","",""
"1050.199999988079","","image-keyboard-response","260","335951","0.0-189.0","3JBT3HLQF9OB4TRLJUW0AST3JXCPZT","A2VNWJU49OOVFC","39N6W9XWRD9306QNTNZSDTAN4LJGYK","","img/set1/S1.jpg","68","1","random","83","false","random,structured_normal,structured_incentive","2,3,1,2","",""
"null","","html-keyboard-response","261","336305","0.0-190.0","3JBT3HLQF9OB4TRLJUW0AST3JXCPZT","A2VNWJU49OOVFC","39N6W9XWRD9306QNTNZSDTAN4LJGYK","","<img src=""img/set1/S1.jpg"" width=""540"" height = ""360"">","null","","","","","","","",""
"null","","html-keyboard-response","262","336307","0.0-191.0","3JBT3HLQF9OB4TRLJUW0AST3JXCPZT","A2VNWJU49OOVFC","39N6W9XWRD9306QNTNZSDTAN4LJGYK","","","null","","","","","","","",""
"1265.5","","image-keyboard-response","263","337575","0.0-192.0","3JBT3HLQF9OB4TRLJUW0AST3JXCPZT","A2VNWJU49OOVFC","39N6W9XWRD9306QNTNZSDTAN4LJGYK","","img/set1/S2.jpg","72","2","random","68","false","random,structured_normal,structured_incentive","2,3,1,2","",""
"null","","html-keyboard-response","264","337931","0.0-193.0","3JBT3HLQF9OB4TRLJUW0AST3JXCPZT","A2VNWJU49OOVFC","39N6W9XWRD9306QNTNZSDTAN4LJGYK","","<img src=""img/set1/S2.jpg"" width=""540"" height = ""360"">","null","","","","","","","",""
"null","","html-keyboard-response","265","337933","0.0-194.0","3JBT3HLQF9OB4TRLJUW0AST3JXCPZT","A2VNWJU49OOVFC","39N6W9XWRD9306QNTNZSDTAN4LJGYK","","","null","","","","","","","",""
"815.5999999642372","","image-keyboard-response","266","338751","0.0-195.0","3JBT3HLQF9OB4TRLJUW0AST3JXCPZT","A2VNWJU49OOVFC","39N6W9XWRD9306QNTNZSDTAN4LJGYK","","img/set1/S4.jpg","72","4","random","74","false","random,structured_normal,structured_incentive","2,3,1,2","",""
"null","","html-keyboard-response","267","339110","0.0-196.0","3JBT3HLQF9OB4TRLJUW0AST3JXCPZT","A2VNWJU49OOVFC","39N6W9XWRD9306QNTNZSDTAN4LJGYK","","<img src=""img/set1/S4.jpg"" width=""540"" height = ""360"">","null","","","","","","","",""
"null","","html-keyboard-response","268","339112","0.0-197.0","3JBT3HLQF9OB4TRLJUW0AST3JXCPZT","A2VNWJU49OOVFC","39N6W9XWRD9306QNTNZSDTAN4LJGYK","","","null","","","","","","","",""
"860.8999999761581","","image-keyboard-response","269","339975","0.0-198.0","3JBT3HLQF9OB4TRLJUW0AST3JXCPZT","A2VNWJU49OOVFC","39N6W9XWRD9306QNTNZSDTAN4LJGYK","","img/set1/S2.jpg","72","2","random","68","false","random,structured_normal,structured_incentive","2,3,1,2","",""
"null","","html-keyboard-response","270","340332","0.0-199.0","3JBT3HLQF9OB4TRLJUW0AST3JXCPZT","A2VNWJU49OOVFC","39N6W9XWRD9306QNTNZSDTAN4LJGYK","","<img src=""img/set1/S2.jpg"" width=""540"" height = ""360"">","null","","","","","","","",""
"null","","html-keyboard-response","271","340334","0.0-200.0","3JBT3HLQF9OB4TRLJUW0AST3JXCPZT","A2VNWJU49OOVFC","39N6W9XWRD9306QNTNZSDTAN4LJGYK","","","null","","","","","","","",""
"565.8999999761581","","image-keyboard-response","272","340903","0.0-201.0","3JBT3HLQF9OB4TRLJUW0AST3JXCPZT","A2VNWJU49OOVFC","39N6W9XWRD9306QNTNZSDTAN4LJGYK","","img/set1/S2.jpg","72","2","random","68","false","random,structured_normal,structured_incentive","2,3,1,2","",""
"null","","html-keyboard-response","273","341264","0.0-202.0","3JBT3HLQF9OB4TRLJUW0AST3JXCPZT","A2VNWJU49OOVFC","39N6W9XWRD9306QNTNZSDTAN4LJGYK","","<img src=""img/set1/S2.jpg"" width=""540"" height = ""360"">","null","","","","","","","",""
"null","","html-keyboard-response","274","341266","0.0-203.0","3JBT3HLQF9OB4TRLJUW0AST3JXCPZT","A2VNWJU49OOVFC","39N6W9XWRD9306QNTNZSDTAN4LJGYK","","","null","","","","","","","",""
"800.3999999761581","","image-keyboard-response","275","342071","0.0-204.0","3JBT3HLQF9OB4TRLJUW0AST3JXCPZT","A2VNWJU49OOVFC","39N6W9XWRD9306QNTNZSDTAN4LJGYK","","img/set1/S4.jpg","72","4","random","74","false","random,structured_normal,structured_incentive","2,3,1,2","",""
"null","","html-keyboard-response","276","342428","0.0-205.0","3JBT3HLQF9OB4TRLJUW0AST3JXCPZT","A2VNWJU49OOVFC","39N6W9XWRD9306QNTNZSDTAN4LJGYK","","<img src=""img/set1/S4.jpg"" width=""540"" height = ""360"">","null","","","","","","","",""
"null","","html-keyboard-response","277","342430","0.0-206.0","3JBT3HLQF9OB4TRLJUW0AST3JXCPZT","A2VNWJU49OOVFC","39N6W9XWRD9306QNTNZSDTAN4LJGYK","","","null","","","","","","","",""
"614.3999999761581","","image-keyboard-response","278","343047","0.0-207.0","3JBT3HLQF9OB4TRLJUW0AST3JXCPZT","A2VNWJU49OOVFC","39N6W9XWRD9306QNTNZSDTAN4LJGYK","","img/set1/S4.jpg","74","4","random","74","true","random,structured_normal,structured_incentive","2,3,1,2","",""
"null","","html-keyboard-response","279","343400","0.0-208.0","3JBT3HLQF9OB4TRLJUW0AST3JXCPZT","A2VNWJU49OOVFC","39N6W9XWRD9306QNTNZSDTAN4LJGYK","","<img src=""img/set1/S4.jpg"" width=""540"" height = ""360"" style=""border:16px solid orange"">","null","","","","","","","",""
"null","","html-keyboard-response","280","343402","0.0-209.0","3JBT3HLQF9OB4TRLJUW0AST3JXCPZT","A2VNWJU49OOVFC","39N6W9XWRD9306QNTNZSDTAN4LJGYK","","","null","","","","","","","",""
"1666.6000000238419","","image-keyboard-response","281","345071","0.0-210.0","3JBT3HLQF9OB4TRLJUW0AST3JXCPZT","A2VNWJU49OOVFC","39N6W9XWRD9306QNTNZSDTAN4LJGYK","","img/set1/S3.jpg","68","3","random","72","false","random,structured_normal,structured_incentive","2,3,1,2","",""
"null","","html-keyboard-response","282","345428","0.0-211.0","3JBT3HLQF9OB4TRLJUW0AST3JXCPZT","A2VNWJU49OOVFC","39N6W9XWRD9306QNTNZSDTAN4LJGYK","","<img src=""img/set1/S3.jpg"" width=""540"" height = ""360"">","null","","","","","","","",""
"null","","html-keyboard-response","283","345430","0.0-212.0","3JBT3HLQF9OB4TRLJUW0AST3JXCPZT","A2VNWJU49OOVFC","39N6W9XWRD9306QNTNZSDTAN4LJGYK","","","null","","","","","","","",""
"1334.699999988079","","image-keyboard-response","284","346767","0.0-213.0","3JBT3HLQF9OB4TRLJUW0AST3JXCPZT","A2VNWJU49OOVFC","39N6W9XWRD9306QNTNZSDTAN4LJGYK","","img/set1/S4.jpg","72","4","random","74","false","random,structured_normal,structured_incentive","2,3,1,2","",""
"null","","html-keyboard-response","285","347128","0.0-214.0","3JBT3HLQF9OB4TRLJUW0AST3JXCPZT","A2VNWJU49OOVFC","39N6W9XWRD9306QNTNZSDTAN4LJGYK","","<img src=""img/set1/S4.jpg"" width=""540"" height = ""360"">","null","","","","","","","",""
"null","","html-keyboard-response","286","347130","0.0-215.0","3JBT3HLQF9OB4TRLJUW0AST3JXCPZT","A2VNWJU49OOVFC","39N6W9XWRD9306QNTNZSDTAN4LJGYK","","","null","","","","","","","",""
"1058.699999988079","","image-keyboard-response","287","348191","0.0-216.0","3JBT3HLQF9OB4TRLJUW0AST3JXCPZT","A2VNWJU49OOVFC","39N6W9XWRD9306QNTNZSDTAN4LJGYK","","img/set1/S4.jpg","83","4","random","74","false","random,structured_normal,structured_incentive","2,3,1,2","",""
"null","","html-keyboard-response","288","348549","0.0-217.0","3JBT3HLQF9OB4TRLJUW0AST3JXCPZT","A2VNWJU49OOVFC","39N6W9XWRD9306QNTNZSDTAN4LJGYK","","<img src=""img/set1/S4.jpg"" width=""540"" height = ""360"">","null","","","","","","","",""
"null","","html-keyboard-response","289","348551","0.0-218.0","3JBT3HLQF9OB4TRLJUW0AST3JXCPZT","A2VNWJU49OOVFC","39N6W9XWRD9306QNTNZSDTAN4LJGYK","","","null","","","","","","","",""
"1309.6000000238419","","image-keyboard-response","290","349863","0.0-219.0","3JBT3HLQF9OB4TRLJUW0AST3JXCPZT","A2VNWJU49OOVFC","39N6W9XWRD9306QNTNZSDTAN4LJGYK","","img/set1/S3.jpg","83","3","random","72","false","random,structured_normal,structured_incentive","2,3,1,2","",""
"null","","html-keyboard-response","291","350217","0.0-220.0","3JBT3HLQF9OB4TRLJUW0AST3JXCPZT","A2VNWJU49OOVFC","39N6W9XWRD9306QNTNZSDTAN4LJGYK","","<img src=""img/set1/S3.jpg"" width=""540"" height = ""360"">","null","","","","","","","",""
"null","","html-keyboard-response","292","350221","0.0-221.0","3JBT3HLQF9OB4TRLJUW0AST3JXCPZT","A2VNWJU49OOVFC","39N6W9XWRD9306QNTNZSDTAN4LJGYK","","","null","","","","","","","",""
"904.1999999880791","","image-keyboard-response","293","351127","0.0-222.0","3JBT3HLQF9OB4TRLJUW0AST3JXCPZT","A2VNWJU49OOVFC","39N6W9XWRD9306QNTNZSDTAN4LJGYK","","img/set1/S2.jpg","68","2","random","68","true","random,structured_normal,structured_incentive","2,3,1,2","",""
"null","","html-keyboard-response","294","351485","0.0-223.0","3JBT3HLQF9OB4TRLJUW0AST3JXCPZT","A2VNWJU49OOVFC","39N6W9XWRD9306QNTNZSDTAN4LJGYK","","<img src=""img/set1/S2.jpg"" width=""540"" height = ""360"" style=""border:16px solid orange"">","null","","","","","","","",""
"null","","html-keyboard-response","295","351487","0.0-224.0","3JBT3HLQF9OB4TRLJUW0AST3JXCPZT","A2VNWJU49OOVFC","39N6W9XWRD9306QNTNZSDTAN4LJGYK","","","null","","","","","","","",""
"1437.699999988079","","image-keyboard-response","296","352927","0.0-225.0","3JBT3HLQF9OB4TRLJUW0AST3JXCPZT","A2VNWJU49OOVFC","39N6W9XWRD9306QNTNZSDTAN4LJGYK","","img/set1/S2.jpg","68","2","random","68","true","random,structured_normal,structured_incentive","2,3,1,2","",""
"null","","html-keyboard-response","297","353282","0.0-226.0","3JBT3HLQF9OB4TRLJUW0AST3JXCPZT","A2VNWJU49OOVFC","39N6W9XWRD9306QNTNZSDTAN4LJGYK","","<img src=""img/set1/S2.jpg"" width=""540"" height = ""360"" style=""border:16px solid orange"">","null","","","","","","","",""
"null","","html-keyboard-response","298","353284","0.0-227.0","3JBT3HLQF9OB4TRLJUW0AST3JXCPZT","A2VNWJU49OOVFC","39N6W9XWRD9306QNTNZSDTAN4LJGYK","","","null","","","","","","","",""
"1880.300000011921","","image-keyboard-response","299","355167","0.0-228.0","3JBT3HLQF9OB4TRLJUW0AST3JXCPZT","A2VNWJU49OOVFC","39N6W9XWRD9306QNTNZSDTAN4LJGYK","","img/set1/S3.jpg","83","3","random","72","false","random,structured_normal,structured_incentive","2,3,1,2","",""
"null","","html-keyboard-response","300","355526","0.0-229.0","3JBT3HLQF9OB4TRLJUW0AST3JXCPZT","A2VNWJU49OOVFC","39N6W9XWRD9306QNTNZSDTAN4LJGYK","","<img src=""img/set1/S3.jpg"" width=""540"" height = ""360"">","null","","","","","","","",""
"null","","html-keyboard-response","301","355528","0.0-230.0","3JBT3HLQF9OB4TRLJUW0AST3JXCPZT","A2VNWJU49OOVFC","39N6W9XWRD9306QNTNZSDTAN4LJGYK","","","null","","","","","","","",""
"850","","image-keyboard-response","302","356380","0.0-231.0","3JBT3HLQF9OB4TRLJUW0AST3JXCPZT","A2VNWJU49OOVFC","39N6W9XWRD9306QNTNZSDTAN4LJGYK","","img/set1/S3.jpg","72","3","random","72","true","random,structured_normal,structured_incentive","2,3,1,2","",""
"null","","html-keyboard-response","303","356733","0.0-232.0","3JBT3HLQF9OB4TRLJUW0AST3JXCPZT","A2VNWJU49OOVFC","39N6W9XWRD9306QNTNZSDTAN4LJGYK","","<img src=""img/set1/S3.jpg"" width=""540"" height = ""360"" style=""border:16px solid orange"">","null","","","","","","","",""
"null","","html-keyboard-response","304","356735","0.0-233.0","3JBT3HLQF9OB4TRLJUW0AST3JXCPZT","A2VNWJU49OOVFC","39N6W9XWRD9306QNTNZSDTAN4LJGYK","","","null","","","","","","","",""
"1397.3999999761581","","image-keyboard-response","305","358135","0.0-234.0","3JBT3HLQF9OB4TRLJUW0AST3JXCPZT","A2VNWJU49OOVFC","39N6W9XWRD9306QNTNZSDTAN4LJGYK","","img/set1/S2.jpg","68","2","random","68","true","random,structured_normal,structured_incentive","2,3,1,2","",""
"null","","html-keyboard-response","306","358497","0.0-235.0","3JBT3HLQF9OB4TRLJUW0AST3JXCPZT","A2VNWJU49OOVFC","39N6W9XWRD9306QNTNZSDTAN4LJGYK","","<img src=""img/set1/S2.jpg"" width=""540"" height = ""360"" style=""border:16px solid orange"">","null","","","","","","","",""
"null","","html-keyboard-response","307","358499","0.0-236.0","3JBT3HLQF9OB4TRLJUW0AST3JXCPZT","A2VNWJU49OOVFC","39N6W9XWRD9306QNTNZSDTAN4LJGYK","","","null","","","","","","","",""
"805.1000000238419","","image-keyboard-response","308","359306","0.0-237.0","3JBT3HLQF9OB4TRLJUW0AST3JXCPZT","A2VNWJU49OOVFC","39N6W9XWRD9306QNTNZSDTAN4LJGYK","","img/set1/S3.jpg","72","3","random","72","true","random,structured_normal,structured_incentive","2,3,1,2","",""
"null","","html-keyboard-response","309","359659","0.0-238.0","3JBT3HLQF9OB4TRLJUW0AST3JXCPZT","A2VNWJU49OOVFC","39N6W9XWRD9306QNTNZSDTAN4LJGYK","","<img src=""img/set1/S3.jpg"" width=""540"" height = ""360"" style=""border:16px solid orange"">","null","","","","","","","",""
"null","","html-keyboard-response","310","359661","0.0-239.0","3JBT3HLQF9OB4TRLJUW0AST3JXCPZT","A2VNWJU49OOVFC","39N6W9XWRD9306QNTNZSDTAN4LJGYK","","","null","","","","","","","",""
"1111.7000000476837","","image-keyboard-response","311","360775","0.0-240.0","3JBT3HLQF9OB4TRLJUW0AST3JXCPZT","A2VNWJU49OOVFC","39N6W9XWRD9306QNTNZSDTAN4LJGYK","","img/set1/S4.jpg","83","4","random","74","false","random,structured_normal,structured_incentive","2,3,1,2","",""
"null","","html-keyboard-response","312","361128","0.0-241.0","3JBT3HLQF9OB4TRLJUW0AST3JXCPZT","A2VNWJU49OOVFC","39N6W9XWRD9306QNTNZSDTAN4LJGYK","","<img src=""img/set1/S4.jpg"" width=""540"" height = ""360"">","null","","","","","","","",""
"null","","html-keyboard-response","313","361130","0.0-242.0","3JBT3HLQF9OB4TRLJUW0AST3JXCPZT","A2VNWJU49OOVFC","39N6W9XWRD9306QNTNZSDTAN4LJGYK","","","null","","","","","","","",""
"578.6000000238419","","image-keyboard-response","314","361711","0.0-243.0","3JBT3HLQF9OB4TRLJUW0AST3JXCPZT","A2VNWJU49OOVFC","39N6W9XWRD9306QNTNZSDTAN4LJGYK","","img/set1/S4.jpg","74","4","random","74","true","random,structured_normal,structured_incentive","2,3,1,2","",""
"null","","html-keyboard-response","315","362070","0.0-244.0","3JBT3HLQF9OB4TRLJUW0AST3JXCPZT","A2VNWJU49OOVFC","39N6W9XWRD9306QNTNZSDTAN4LJGYK","","<img src=""img/set1/S4.jpg"" width=""540"" height = ""360"" style=""border:16px solid orange"">","null","","","","","","","",""
"null","","html-keyboard-response","316","362072","0.0-245.0","3JBT3HLQF9OB4TRLJUW0AST3JXCPZT","A2VNWJU49OOVFC","39N6W9XWRD9306QNTNZSDTAN4LJGYK","","","null","","","","","","","",""
"1173.1000000238419","","image-keyboard-response","317","363247","0.0-246.0","3JBT3HLQF9OB4TRLJUW0AST3JXCPZT","A2VNWJU49OOVFC","39N6W9XWRD9306QNTNZSDTAN4LJGYK","","img/set1/S2.jpg","72","2","random","68","false","random,structured_normal,structured_incentive","2,3,1,2","",""
"null","","html-keyboard-response","318","363606","0.0-247.0","3JBT3HLQF9OB4TRLJUW0AST3JXCPZT","A2VNWJU49OOVFC","39N6W9XWRD9306QNTNZSDTAN4LJGYK","","<img src=""img/set1/S2.jpg"" width=""540"" height = ""360"">","null","","","","","","","",""
"null","","html-keyboard-response","319","363608","0.0-248.0","3JBT3HLQF9OB4TRLJUW0AST3JXCPZT","A2VNWJU49OOVFC","39N6W9XWRD9306QNTNZSDTAN4LJGYK","","","null","","","","","","","",""
"908.6999999880791","","image-keyboard-response","320","364519","0.0-249.0","3JBT3HLQF9OB4TRLJUW0AST3JXCPZT","A2VNWJU49OOVFC","39N6W9XWRD9306QNTNZSDTAN4LJGYK","","img/set1/S3.jpg","72","3","random","72","true","random,structured_normal,structured_incentive","2,3,1,2","",""
"null","","html-keyboard-response","321","364879","0.0-250.0","3JBT3HLQF9OB4TRLJUW0AST3JXCPZT","A2VNWJU49OOVFC","39N6W9XWRD9306QNTNZSDTAN4LJGYK","","<img src=""img/set1/S3.jpg"" width=""540"" height = ""360"" style=""border:16px solid orange"">","null","","","","","","","",""
"null","","html-keyboard-response","322","364881","0.0-251.0","3JBT3HLQF9OB4TRLJUW0AST3JXCPZT","A2VNWJU49OOVFC","39N6W9XWRD9306QNTNZSDTAN4LJGYK","","","null","","","","","","","",""
"551.3000000119209","","image-keyboard-response","323","365434","0.0-252.0","3JBT3HLQF9OB4TRLJUW0AST3JXCPZT","A2VNWJU49OOVFC","39N6W9XWRD9306QNTNZSDTAN4LJGYK","","img/set1/S3.jpg","72","3","random","72","true","random,structured_normal,structured_incentive","2,3,1,2","",""
"null","","html-keyboard-response","324","365798","0.0-253.0","3JBT3HLQF9OB4TRLJUW0AST3JXCPZT","A2VNWJU49OOVFC","39N6W9XWRD9306QNTNZSDTAN4LJGYK","","<img src=""img/set1/S3.jpg"" width=""540"" height = ""360"" style=""border:16px solid orange"">","null","","","","","","","",""
"null","","html-keyboard-response","325","365800","0.0-254.0","3JBT3HLQF9OB4TRLJUW0AST3JXCPZT","A2VNWJU49OOVFC","39N6W9XWRD9306QNTNZSDTAN4LJGYK","","","null","","","","","","","",""
"604.5","","image-keyboard-response","326","366407","0.0-255.0","3JBT3HLQF9OB4TRLJUW0AST3JXCPZT","A2VNWJU49OOVFC","39N6W9XWRD9306QNTNZSDTAN4LJGYK","","img/set1/S3.jpg","72","3","random","72","true","random,structured_normal,structured_incentive","2,3,1,2","",""
"null","","html-keyboard-response","327","366763","0.0-256.0","3JBT3HLQF9OB4TRLJUW0AST3JXCPZT","A2VNWJU49OOVFC","39N6W9XWRD9306QNTNZSDTAN4LJGYK","","<img src=""img/set1/S3.jpg"" width=""540"" height = ""360"" style=""border:16px solid orange"">","null","","","","","","","",""
"null","","html-keyboard-response","328","366765","0.0-257.0","3JBT3HLQF9OB4TRLJUW0AST3JXCPZT","A2VNWJU49OOVFC","39N6W9XWRD9306QNTNZSDTAN4LJGYK","","","null","","","","","","","",""
"1047.699999988079","","image-keyboard-response","329","367815","0.0-258.0","3JBT3HLQF9OB4TRLJUW0AST3JXCPZT","A2VNWJU49OOVFC","39N6W9XWRD9306QNTNZSDTAN4LJGYK","","img/set1/S4.jpg","74","4","random","74","true","random,structured_normal,structured_incentive","2,3,1,2","",""
"null","","html-keyboard-response","330","368178","0.0-259.0","3JBT3HLQF9OB4TRLJUW0AST3JXCPZT","A2VNWJU49OOVFC","39N6W9XWRD9306QNTNZSDTAN4LJGYK","","<img src=""img/set1/S4.jpg"" width=""540"" height = ""360"" style=""border:16px solid orange"">","null","","","","","","","",""
"null","","html-keyboard-response","331","368180","0.0-260.0","3JBT3HLQF9OB4TRLJUW0AST3JXCPZT","A2VNWJU49OOVFC","39N6W9XWRD9306QNTNZSDTAN4LJGYK","","","null","","","","","","","",""
"712.2999999523163","","image-keyboard-response","332","368895","0.0-261.0","3JBT3HLQF9OB4TRLJUW0AST3JXCPZT","A2VNWJU49OOVFC","39N6W9XWRD9306QNTNZSDTAN4LJGYK","","img/set1/S3.jpg","72","3","random","72","true","random,structured_normal,structured_incentive","2,3,1,2","",""
"null","","html-keyboard-response","333","369249","0.0-262.0","3JBT3HLQF9OB4TRLJUW0AST3JXCPZT","A2VNWJU49OOVFC","39N6W9XWRD9306QNTNZSDTAN4LJGYK","","<img src=""img/set1/S3.jpg"" width=""540"" height = ""360"" style=""border:16px solid orange"">","null","","","","","","","",""
"null","","html-keyboard-response","334","369252","0.0-263.0","3JBT3HLQF9OB4TRLJUW0AST3JXCPZT","A2VNWJU49OOVFC","39N6W9XWRD9306QNTNZSDTAN4LJGYK","","","null","","","","","","","",""
"481.19999998807907","","image-keyboard-response","335","369735","0.0-264.0","3JBT3HLQF9OB4TRLJUW0AST3JXCPZT","A2VNWJU49OOVFC","39N6W9XWRD9306QNTNZSDTAN4LJGYK","","img/set1/S3.jpg","72","3","random","72","true","random,structured_normal,structured_incentive","2,3,1,2","",""
"null","","html-keyboard-response","336","370102","0.0-265.0","3JBT3HLQF9OB4TRLJUW0AST3JXCPZT","A2VNWJU49OOVFC","39N6W9XWRD9306QNTNZSDTAN4LJGYK","","<img src=""img/set1/S3.jpg"" width=""540"" height = ""360"" style=""border:16px solid orange"">","null","","","","","","","",""
"null","","html-keyboard-response","337","370104","0.0-266.0","3JBT3HLQF9OB4TRLJUW0AST3JXCPZT","A2VNWJU49OOVFC","39N6W9XWRD9306QNTNZSDTAN4LJGYK","","","null","","","","","","","",""
"890.6000000238419","","image-keyboard-response","338","370996","0.0-267.0","3JBT3HLQF9OB4TRLJUW0AST3JXCPZT","A2VNWJU49OOVFC","39N6W9XWRD9306QNTNZSDTAN4LJGYK","","img/set1/S4.jpg","74","4","random","74","true","random,structured_normal,structured_incentive","2,3,1,2","",""
"null","","html-keyboard-response","339","371352","0.0-268.0","3JBT3HLQF9OB4TRLJUW0AST3JXCPZT","A2VNWJU49OOVFC","39N6W9XWRD9306QNTNZSDTAN4LJGYK","","<img src=""img/set1/S4.jpg"" width=""540"" height = ""360"" style=""border:16px solid orange"">","null","","","","","","","",""
"null","","html-keyboard-response","340","371354","0.0-269.0","3JBT3HLQF9OB4TRLJUW0AST3JXCPZT","A2VNWJU49OOVFC","39N6W9XWRD9306QNTNZSDTAN4LJGYK","","","null","","","","","","","",""
"618.3999999761581","","image-keyboard-response","341","371975","0.0-270.0","3JBT3HLQF9OB4TRLJUW0AST3JXCPZT","A2VNWJU49OOVFC","39N6W9XWRD9306QNTNZSDTAN4LJGYK","","img/set1/S3.jpg","72","3","random","72","true","random,structured_normal,structured_incentive","2,3,1,2","",""
"null","","html-keyboard-response","342","372340","0.0-271.0","3JBT3HLQF9OB4TRLJUW0AST3JXCPZT","A2VNWJU49OOVFC","39N6W9XWRD9306QNTNZSDTAN4LJGYK","","<img src=""img/set1/S3.jpg"" width=""540"" height = ""360"" style=""border:16px solid orange"">","null","","","","","","","",""
"null","","html-keyboard-response","343","372342","0.0-272.0","3JBT3HLQF9OB4TRLJUW0AST3JXCPZT","A2VNWJU49OOVFC","39N6W9XWRD9306QNTNZSDTAN4LJGYK","","","null","","","","","","","",""
"581","","image-keyboard-response","344","372927","0.0-273.0","3JBT3HLQF9OB4TRLJUW0AST3JXCPZT","A2VNWJU49OOVFC","39N6W9XWRD9306QNTNZSDTAN4LJGYK","","img/set1/S4.jpg","74","4","random","74","true","random,structured_normal,structured_incentive","2,3,1,2","",""
"null","","html-keyboard-response","345","373283","0.0-274.0","3JBT3HLQF9OB4TRLJUW0AST3JXCPZT","A2VNWJU49OOVFC","39N6W9XWRD9306QNTNZSDTAN4LJGYK","","<img src=""img/set1/S4.jpg"" width=""540"" height = ""360"" style=""border:16px solid orange"">","null","","","","","","","",""
"null","","html-keyboard-response","346","373286","0.0-275.0","3JBT3HLQF9OB4TRLJUW0AST3JXCPZT","A2VNWJU49OOVFC","39N6W9XWRD9306QNTNZSDTAN4LJGYK","","","null","","","","","","","",""
"983.5","","image-keyboard-response","347","374271","0.0-276.0","3JBT3HLQF9OB4TRLJUW0AST3JXCPZT","A2VNWJU49OOVFC","39N6W9XWRD9306QNTNZSDTAN4LJGYK","","img/set1/S1.jpg","68","1","random","83","false","random,structured_normal,structured_incentive","2,3,1,2","",""
"null","","html-keyboard-response","348","374632","0.0-277.0","3JBT3HLQF9OB4TRLJUW0AST3JXCPZT","A2VNWJU49OOVFC","39N6W9XWRD9306QNTNZSDTAN4LJGYK","","<img src=""img/set1/S1.jpg"" width=""540"" height = ""360"">","null","","","","","","","",""
"null","","html-keyboard-response","349","374634","0.0-278.0","3JBT3HLQF9OB4TRLJUW0AST3JXCPZT","A2VNWJU49OOVFC","39N6W9XWRD9306QNTNZSDTAN4LJGYK","","","null","","","","","","","",""
"1258.6000000238419","","image-keyboard-response","350","375895","0.0-279.0","3JBT3HLQF9OB4TRLJUW0AST3JXCPZT","A2VNWJU49OOVFC","39N6W9XWRD9306QNTNZSDTAN4LJGYK","","img/set1/S4.jpg","72","4","random","74","false","random,structured_normal,structured_incentive","2,3,1,2","",""
"null","","html-keyboard-response","351","376258","0.0-280.0","3JBT3HLQF9OB4TRLJUW0AST3JXCPZT","A2VNWJU49OOVFC","39N6W9XWRD9306QNTNZSDTAN4LJGYK","","<img src=""img/set1/S4.jpg"" width=""540"" height = ""360"">","null","","","","","","","",""
"null","","html-keyboard-response","352","376260","0.0-281.0","3JBT3HLQF9OB4TRLJUW0AST3JXCPZT","A2VNWJU49OOVFC","39N6W9XWRD9306QNTNZSDTAN4LJGYK","","","null","","","","","","","",""
"520.8000000119209","","image-keyboard-response","353","376783","0.0-282.0","3JBT3HLQF9OB4TRLJUW0AST3JXCPZT","A2VNWJU49OOVFC","39N6W9XWRD9306QNTNZSDTAN4LJGYK","","img/set1/S4.jpg","74","4","random","74","true","random,structured_normal,structured_incentive","2,3,1,2","",""
"null","","html-keyboard-response","354","377140","0.0-283.0","3JBT3HLQF9OB4TRLJUW0AST3JXCPZT","A2VNWJU49OOVFC","39N6W9XWRD9306QNTNZSDTAN4LJGYK","","<img src=""img/set1/S4.jpg"" width=""540"" height = ""360"" style=""border:16px solid orange"">","null","","","","","","","",""
"null","","html-keyboard-response","355","377142","0.0-284.0","3JBT3HLQF9OB4TRLJUW0AST3JXCPZT","A2VNWJU49OOVFC","39N6W9XWRD9306QNTNZSDTAN4LJGYK","","","null","","","","","","","",""
"1166.699999988079","","image-keyboard-response","356","378311","0.0-285.0","3JBT3HLQF9OB4TRLJUW0AST3JXCPZT","A2VNWJU49OOVFC","39N6W9XWRD9306QNTNZSDTAN4LJGYK","","img/set1/S1.jpg","72","1","random","83","false","random,structured_normal,structured_incentive","2,3,1,2","",""
"null","","html-keyboard-response","357","378669","0.0-286.0","3JBT3HLQF9OB4TRLJUW0AST3JXCPZT","A2VNWJU49OOVFC","39N6W9XWRD9306QNTNZSDTAN4LJGYK","","<img src=""img/set1/S1.jpg"" width=""540"" height = ""360"">","null","","","","","","","",""
"null","","html-keyboard-response","358","378671","0.0-287.0","3JBT3HLQF9OB4TRLJUW0AST3JXCPZT","A2VNWJU49OOVFC","39N6W9XWRD9306QNTNZSDTAN4LJGYK","","","null","","","","","","","",""
"533.8000000119209","","image-keyboard-response","359","379207","0.0-288.0","3JBT3HLQF9OB4TRLJUW0AST3JXCPZT","A2VNWJU49OOVFC","39N6W9XWRD9306QNTNZSDTAN4LJGYK","","img/set1/S1.jpg","68","1","random","83","false","random,structured_normal,structured_incentive","2,3,1,2","",""
"null","","html-keyboard-response","360","379566","0.0-289.0","3JBT3HLQF9OB4TRLJUW0AST3JXCPZT","A2VNWJU49OOVFC","39N6W9XWRD9306QNTNZSDTAN4LJGYK","","<img src=""img/set1/S1.jpg"" width=""540"" height = ""360"">","null","","","","","","","",""
"null","","html-keyboard-response","361","379568","0.0-290.0","3JBT3HLQF9OB4TRLJUW0AST3JXCPZT","A2VNWJU49OOVFC","39N6W9XWRD9306QNTNZSDTAN4LJGYK","","","null","","","","","","","",""
"1100.7999999523163","","image-keyboard-response","362","380671","0.0-291.0","3JBT3HLQF9OB4TRLJUW0AST3JXCPZT","A2VNWJU49OOVFC","39N6W9XWRD9306QNTNZSDTAN4LJGYK","","img/set1/S2.jpg","68","2","random","68","true","random,structured_normal,structured_incentive","2,3,1,2","",""
"null","","html-keyboard-response","363","381035","0.0-292.0","3JBT3HLQF9OB4TRLJUW0AST3JXCPZT","A2VNWJU49OOVFC","39N6W9XWRD9306QNTNZSDTAN4LJGYK","","<img src=""img/set1/S2.jpg"" width=""540"" height = ""360"" style=""border:16px solid orange"">","null","","","","","","","",""
"null","","html-keyboard-response","364","381038","0.0-293.0","3JBT3HLQF9OB4TRLJUW0AST3JXCPZT","A2VNWJU49OOVFC","39N6W9XWRD9306QNTNZSDTAN4LJGYK","","","null","","","","","","","",""
"679.6999999880791","","image-keyboard-response","365","381719","0.0-294.0","3JBT3HLQF9OB4TRLJUW0AST3JXCPZT","A2VNWJU49OOVFC","39N6W9XWRD9306QNTNZSDTAN4LJGYK","","img/set1/S2.jpg","68","2","random","68","true","random,structured_normal,structured_incentive","2,3,1,2","",""
"null","","html-keyboard-response","366","382075","0.0-295.0","3JBT3HLQF9OB4TRLJUW0AST3JXCPZT","A2VNWJU49OOVFC","39N6W9XWRD9306QNTNZSDTAN4LJGYK","","<img src=""img/set1/S2.jpg"" width=""540"" height = ""360"" style=""border:16px solid orange"">","null","","","","","","","",""
"null","","html-keyboard-response","367","382077","0.0-296.0","3JBT3HLQF9OB4TRLJUW0AST3JXCPZT","A2VNWJU49OOVFC","39N6W9XWRD9306QNTNZSDTAN4LJGYK","","","null","","","","","","","",""
"927.5999999642372","","image-keyboard-response","368","383007","0.0-297.0","3JBT3HLQF9OB4TRLJUW0AST3JXCPZT","A2VNWJU49OOVFC","39N6W9XWRD9306QNTNZSDTAN4LJGYK","","img/set1/S3.jpg","74","3","random","72","false","random,structured_normal,structured_incentive","2,3,1,2","",""
"null","","html-keyboard-response","369","383373","0.0-298.0","3JBT3HLQF9OB4TRLJUW0AST3JXCPZT","A2VNWJU49OOVFC","39N6W9XWRD9306QNTNZSDTAN4LJGYK","","<img src=""img/set1/S3.jpg"" width=""540"" height = ""360"">","null","","","","","","","",""
"null","","html-keyboard-response","370","383375","0.0-299.0","3JBT3HLQF9OB4TRLJUW0AST3JXCPZT","A2VNWJU49OOVFC","39N6W9XWRD9306QNTNZSDTAN4LJGYK","","","null","","","","","","","",""
"581.5","","image-keyboard-response","371","383959","0.0-300.0","3JBT3HLQF9OB4TRLJUW0AST3JXCPZT","A2VNWJU49OOVFC","39N6W9XWRD9306QNTNZSDTAN4LJGYK","","img/set1/S3.jpg","72","3","random","72","true","random,structured_normal,structured_incentive","2,3,1,2","",""
"null","","html-keyboard-response","372","384314","0.0-301.0","3JBT3HLQF9OB4TRLJUW0AST3JXCPZT","A2VNWJU49OOVFC","39N6W9XWRD9306QNTNZSDTAN4LJGYK","","<img src=""img/set1/S3.jpg"" width=""540"" height = ""360"" style=""border:16px solid orange"">","null","","","","","","","",""
"null","","html-keyboard-response","373","384316","0.0-302.0","3JBT3HLQF9OB4TRLJUW0AST3JXCPZT","A2VNWJU49OOVFC","39N6W9XWRD9306QNTNZSDTAN4LJGYK","","","null","","","","","","","",""
"489.10000002384186","","image-keyboard-response","374","384807","0.0-303.0","3JBT3HLQF9OB4TRLJUW0AST3JXCPZT","A2VNWJU49OOVFC","39N6W9XWRD9306QNTNZSDTAN4LJGYK","","img/set1/S3.jpg","72","3","random","72","true","random,structured_normal,structured_incentive","2,3,1,2","",""
"null","","html-keyboard-response","375","385165","0.0-304.0","3JBT3HLQF9OB4TRLJUW0AST3JXCPZT","A2VNWJU49OOVFC","39N6W9XWRD9306QNTNZSDTAN4LJGYK","","<img src=""img/set1/S3.jpg"" width=""540"" height = ""360"" style=""border:16px solid orange"">","null","","","","","","","",""
"null","","html-keyboard-response","376","385167","0.0-305.0","3JBT3HLQF9OB4TRLJUW0AST3JXCPZT","A2VNWJU49OOVFC","39N6W9XWRD9306QNTNZSDTAN4LJGYK","","","null","","","","","","","",""
"1261.5999999642372","","image-keyboard-response","377","386431","0.0-306.0","3JBT3HLQF9OB4TRLJUW0AST3JXCPZT","A2VNWJU49OOVFC","39N6W9XWRD9306QNTNZSDTAN4LJGYK","","img/set1/S1.jpg","83","1","random","83","true","random,structured_normal,structured_incentive","2,3,1,2","",""
"null","","html-keyboard-response","378","386786","0.0-307.0","3JBT3HLQF9OB4TRLJUW0AST3JXCPZT","A2VNWJU49OOVFC","39N6W9XWRD9306QNTNZSDTAN4LJGYK","","<img src=""img/set1/S1.jpg"" width=""540"" height = ""360"" style=""border:16px solid orange"">","null","","","","","","","",""
"null","","html-keyboard-response","379","386788","0.0-308.0","3JBT3HLQF9OB4TRLJUW0AST3JXCPZT","A2VNWJU49OOVFC","39N6W9XWRD9306QNTNZSDTAN4LJGYK","","","null","","","","","","","",""
"1288.5","","image-keyboard-response","380","388079","0.0-309.0","3JBT3HLQF9OB4TRLJUW0AST3JXCPZT","A2VNWJU49OOVFC","39N6W9XWRD9306QNTNZSDTAN4LJGYK","","img/set1/S3.jpg","72","3","random","72","true","random,structured_normal,structured_incentive","2,3,1,2","",""
"null","","html-keyboard-response","381","388439","0.0-310.0","3JBT3HLQF9OB4TRLJUW0AST3JXCPZT","A2VNWJU49OOVFC","39N6W9XWRD9306QNTNZSDTAN4LJGYK","","<img src=""img/set1/S3.jpg"" width=""540"" height = ""360"" style=""border:16px solid orange"">","null","","","","","","","",""
"null","","html-keyboard-response","382","388442","0.0-311.0","3JBT3HLQF9OB4TRLJUW0AST3JXCPZT","A2VNWJU49OOVFC","39N6W9XWRD9306QNTNZSDTAN4LJGYK","","","null","","","","","","","",""
"899.1999999880791","","image-keyboard-response","383","389343","0.0-312.0","3JBT3HLQF9OB4TRLJUW0AST3JXCPZT","A2VNWJU49OOVFC","39N6W9XWRD9306QNTNZSDTAN4LJGYK","","img/set1/S1.jpg","83","1","random","83","true","random,structured_normal,structured_incentive","2,3,1,2","",""
"null","","html-keyboard-response","384","389704","0.0-313.0","3JBT3HLQF9OB4TRLJUW0AST3JXCPZT","A2VNWJU49OOVFC","39N6W9XWRD9306QNTNZSDTAN4LJGYK","","<img src=""img/set1/S1.jpg"" width=""540"" height = ""360"" style=""border:16px solid orange"">","null","","","","","","","",""
"null","","html-keyboard-response","385","389706","0.0-314.0","3JBT3HLQF9OB4TRLJUW0AST3JXCPZT","A2VNWJU49OOVFC","39N6W9XWRD9306QNTNZSDTAN4LJGYK","","","null","","","","","","","",""
"555.3000000119209","","image-keyboard-response","386","390263","0.0-315.0","3JBT3HLQF9OB4TRLJUW0AST3JXCPZT","A2VNWJU49OOVFC","39N6W9XWRD9306QNTNZSDTAN4LJGYK","","img/set1/S1.jpg","83","1","random","83","true","random,structured_normal,structured_incentive","2,3,1,2","",""
"null","","html-keyboard-response","387","390617","0.0-316.0","3JBT3HLQF9OB4TRLJUW0AST3JXCPZT","A2VNWJU49OOVFC","39N6W9XWRD9306QNTNZSDTAN4LJGYK","","<img src=""img/set1/S1.jpg"" width=""540"" height = ""360"" style=""border:16px solid orange"">","null","","","","","","","",""
"null","","html-keyboard-response","388","390619","0.0-317.0","3JBT3HLQF9OB4TRLJUW0AST3JXCPZT","A2VNWJU49OOVFC","39N6W9XWRD9306QNTNZSDTAN4LJGYK","","","null","","","","","","","",""
"769.6000000238419","","image-keyboard-response","389","391391","0.0-318.0","3JBT3HLQF9OB4TRLJUW0AST3JXCPZT","A2VNWJU49OOVFC","39N6W9XWRD9306QNTNZSDTAN4LJGYK","","img/set1/S4.jpg","68","4","random","74","false","random,structured_normal,structured_incentive","2,3,1,2","",""
"null","","html-keyboard-response","390","391750","0.0-319.0","3JBT3HLQF9OB4TRLJUW0AST3JXCPZT","A2VNWJU49OOVFC","39N6W9XWRD9306QNTNZSDTAN4LJGYK","","<img src=""img/set1/S4.jpg"" width=""540"" height = ""360"">","null","","","","","","","",""
"null","","html-keyboard-response","391","391752","0.0-320.0","3JBT3HLQF9OB4TRLJUW0AST3JXCPZT","A2VNWJU49OOVFC","39N6W9XWRD9306QNTNZSDTAN4LJGYK","","","null","","","","","","","",""
"1348.6000000238419","","image-keyboard-response","392","393103","0.0-321.0","3JBT3HLQF9OB4TRLJUW0AST3JXCPZT","A2VNWJU49OOVFC","39N6W9XWRD9306QNTNZSDTAN4LJGYK","","img/set1/S2.jpg","68","2","random","68","true","random,structured_normal,structured_incentive","2,3,1,2","",""
"null","","html-keyboard-response","393","393468","0.0-322.0","3JBT3HLQF9OB4TRLJUW0AST3JXCPZT","A2VNWJU49OOVFC","39N6W9XWRD9306QNTNZSDTAN4LJGYK","","<img src=""img/set1/S2.jpg"" width=""540"" height = ""360"" style=""border:16px solid orange"">","null","","","","","","","",""
"null","","html-keyboard-response","394","393470","0.0-323.0","3JBT3HLQF9OB4TRLJUW0AST3JXCPZT","A2VNWJU49OOVFC","39N6W9XWRD9306QNTNZSDTAN4LJGYK","","","null","","","","","","","",""
"1118.699999988079","","image-keyboard-response","395","394591","0.0-324.0","3JBT3HLQF9OB4TRLJUW0AST3JXCPZT","A2VNWJU49OOVFC","39N6W9XWRD9306QNTNZSDTAN4LJGYK","","img/set1/S1.jpg","72","1","random","83","false","random,structured_normal,structured_incentive","2,3,1,2","",""
"null","","html-keyboard-response","396","394957","0.0-325.0","3JBT3HLQF9OB4TRLJUW0AST3JXCPZT","A2VNWJU49OOVFC","39N6W9XWRD9306QNTNZSDTAN4LJGYK","","<img src=""img/set1/S1.jpg"" width=""540"" height = ""360"">","null","","","","","","","",""
"null","","html-keyboard-response","397","394960","0.0-326.0","3JBT3HLQF9OB4TRLJUW0AST3JXCPZT","A2VNWJU49OOVFC","39N6W9XWRD9306QNTNZSDTAN4LJGYK","","","null","","","","","","","",""
"1045.7999999523163","","image-keyboard-response","398","396007","0.0-327.0","3JBT3HLQF9OB4TRLJUW0AST3JXCPZT","A2VNWJU49OOVFC","39N6W9XWRD9306QNTNZSDTAN4LJGYK","","img/set1/S1.jpg","74","1","random","83","false","random,structured_normal,structured_incentive","2,3,1,2","",""
"null","","html-keyboard-response","399","396372","0.0-328.0","3JBT3HLQF9OB4TRLJUW0AST3JXCPZT","A2VNWJU49OOVFC","39N6W9XWRD9306QNTNZSDTAN4LJGYK","","<img src=""img/set1/S1.jpg"" width=""540"" height = ""360"">","null","","","","","","","",""
"null","","html-keyboard-response","400","396374","0.0-329.0","3JBT3HLQF9OB4TRLJUW0AST3JXCPZT","A2VNWJU49OOVFC","39N6W9XWRD9306QNTNZSDTAN4LJGYK","","","null","","","","","","","",""
"838.6999999880791","","image-keyboard-response","401","397215","0.0-330.0","3JBT3HLQF9OB4TRLJUW0AST3JXCPZT","A2VNWJU49OOVFC","39N6W9XWRD9306QNTNZSDTAN4LJGYK","","img/set1/S4.jpg","74","4","random","74","true","random,structured_normal,structured_incentive","2,3,1,2","",""
"null","","html-keyboard-response","402","397581","0.0-331.0","3JBT3HLQF9OB4TRLJUW0AST3JXCPZT","A2VNWJU49OOVFC","39N6W9XWRD9306QNTNZSDTAN4LJGYK","","<img src=""img/set1/S4.jpg"" width=""540"" height = ""360"" style=""border:16px solid orange"">","null","","","","","","","",""
"null","","html-keyboard-response","403","397583","0.0-332.0","3JBT3HLQF9OB4TRLJUW0AST3JXCPZT","A2VNWJU49OOVFC","39N6W9XWRD9306QNTNZSDTAN4LJGYK","","","null","","","","","","","",""
"869.8999999761581","","image-keyboard-response","404","398455","0.0-333.0","3JBT3HLQF9OB4TRLJUW0AST3JXCPZT","A2VNWJU49OOVFC","39N6W9XWRD9306QNTNZSDTAN4LJGYK","","img/set1/S3.jpg","72","3","random","72","true","random,structured_normal,structured_incentive","2,3,1,2","",""
"null","","html-keyboard-response","405","398814","0.0-334.0","3JBT3HLQF9OB4TRLJUW0AST3JXCPZT","A2VNWJU49OOVFC","39N6W9XWRD9306QNTNZSDTAN4LJGYK","","<img src=""img/set1/S3.jpg"" width=""540"" height = ""360"" style=""border:16px solid orange"">","null","","","","","","","",""
"null","","html-keyboard-response","406","398816","0.0-335.0","3JBT3HLQF9OB4TRLJUW0AST3JXCPZT","A2VNWJU49OOVFC","39N6W9XWRD9306QNTNZSDTAN4LJGYK","","","null","","","","","","","",""
"812.5","","image-keyboard-response","407","399631","0.0-336.0","3JBT3HLQF9OB4TRLJUW0AST3JXCPZT","A2VNWJU49OOVFC","39N6W9XWRD9306QNTNZSDTAN4LJGYK","","img/set1/S2.jpg","68","2","random","68","true","random,structured_normal,structured_incentive","2,3,1,2","",""
"null","","html-keyboard-response","408","399990","0.0-337.0","3JBT3HLQF9OB4TRLJUW0AST3JXCPZT","A2VNWJU49OOVFC","39N6W9XWRD9306QNTNZSDTAN4LJGYK","","<img src=""img/set1/S2.jpg"" width=""540"" height = ""360"" style=""border:16px solid orange"">","null","","","","","","","",""
"null","","html-keyboard-response","409","399992","0.0-338.0","3JBT3HLQF9OB4TRLJUW0AST3JXCPZT","A2VNWJU49OOVFC","39N6W9XWRD9306QNTNZSDTAN4LJGYK","","","null","","","","","","","",""
"531.9000000357628","","image-keyboard-response","410","400526","0.0-339.0","3JBT3HLQF9OB4TRLJUW0AST3JXCPZT","A2VNWJU49OOVFC","39N6W9XWRD9306QNTNZSDTAN4LJGYK","","img/set1/S2.jpg","68","2","random","68","true","random,structured_normal,structured_incentive","2,3,1,2","",""
"null","","html-keyboard-response","411","400889","0.0-340.0","3JBT3HLQF9OB4TRLJUW0AST3JXCPZT","A2VNWJU49OOVFC","39N6W9XWRD9306QNTNZSDTAN4LJGYK","","<img src=""img/set1/S2.jpg"" width=""540"" height = ""360"" style=""border:16px solid orange"">","null","","","","","","","",""
"null","","html-keyboard-response","412","400891","0.0-341.0","3JBT3HLQF9OB4TRLJUW0AST3JXCPZT","A2VNWJU49OOVFC","39N6W9XWRD9306QNTNZSDTAN4LJGYK","","","null","","","","","","","",""
"761.6000000238419","","image-keyboard-response","413","401655","0.0-342.0","3JBT3HLQF9OB4TRLJUW0AST3JXCPZT","A2VNWJU49OOVFC","39N6W9XWRD9306QNTNZSDTAN4LJGYK","","img/set1/S3.jpg","72","3","random","72","true","random,structured_normal,structured_incentive","2,3,1,2","",""
"null","","html-keyboard-response","414","402015","0.0-343.0","3JBT3HLQF9OB4TRLJUW0AST3JXCPZT","A2VNWJU49OOVFC","39N6W9XWRD9306QNTNZSDTAN4LJGYK","","<img src=""img/set1/S3.jpg"" width=""540"" height = ""360"" style=""border:16px solid orange"">","null","","","","","","","",""
"null","","html-keyboard-response","415","402017","0.0-344.0","3JBT3HLQF9OB4TRLJUW0AST3JXCPZT","A2VNWJU49OOVFC","39N6W9XWRD9306QNTNZSDTAN4LJGYK","","","null","","","","","","","",""
"865.3000000119209","","image-keyboard-response","416","402887","0.0-345.0","3JBT3HLQF9OB4TRLJUW0AST3JXCPZT","A2VNWJU49OOVFC","39N6W9XWRD9306QNTNZSDTAN4LJGYK","","img/set1/S4.jpg","74","4","random","74","true","random,structured_normal,structured_incentive","2,3,1,2","",""
"null","","html-keyboard-response","417","403254","0.0-346.0","3JBT3HLQF9OB4TRLJUW0AST3JXCPZT","A2VNWJU49OOVFC","39N6W9XWRD9306QNTNZSDTAN4LJGYK","","<img src=""img/set1/S4.jpg"" width=""540"" height = ""360"" style=""border:16px solid orange"">","null","","","","","","","",""
"null","","html-keyboard-response","418","403256","0.0-347.0","3JBT3HLQF9OB4TRLJUW0AST3JXCPZT","A2VNWJU49OOVFC","39N6W9XWRD9306QNTNZSDTAN4LJGYK","","","null","","","","","","","",""
"540.5","","image-keyboard-response","419","403799","0.0-348.0","3JBT3HLQF9OB4TRLJUW0AST3JXCPZT","A2VNWJU49OOVFC","39N6W9XWRD9306QNTNZSDTAN4LJGYK","","img/set1/S4.jpg","74","4","random","74","true","random,structured_normal,structured_incentive","2,3,1,2","",""
