"rt","url","trial_type","trial_index","time_elapsed","internal_node_id","assignmentID","mturkID","hitID","view_history","stimulus","key_press","state","test_part","correct_response","correct","order_block","order_chunk","bonus","responses"
"11161.400000035763","consent.html","external-html","0","11509","0.0-0.0","3XC1O3LBOT8PRW3OLAEB7NJ2TQXTLP","A2XQ3CFB5HT2ZQ","39N6W9XWRD9306QNTNZSDTAN4LJGYK","","","","","","","","","","",""
"93007.30000001192","","instructions","1","104519","0.0-1.0","3XC1O3LBOT8PRW3OLAEB7NJ2TQXTLP","A2XQ3CFB5HT2ZQ","39N6W9XWRD9306QNTNZSDTAN4LJGYK","[{""page_index"":0,""viewing_time"":5948.899999976158},{""page_index"":1,""viewing_time"":6098.699999988079},{""page_index"":2,""viewing_time"":6356},{""page_index"":3,""viewing_time"":16875.900000035763},{""page_index"":4,""viewing_time"":8088},{""page_index"":5,""viewing_time"":9797.899999976158},{""page_index"":6,""viewing_time"":5866},{""page_index"":7,""viewing_time"":33974.80000001192}]","","","","","","","","","",""
"1373.5999999642372","","image-keyboard-response","2","105897","0.0-2.0-0.0","3XC1O3LBOT8PRW3OLAEB7NJ2TQXTLP","A2XQ3CFB5HT2ZQ","39N6W9XWRD9306QNTNZSDTAN4LJGYK","","img/practice/S1.jpg","83","1","practice","83","true","","","",""
"null","","html-keyboard-response","3","106206","0.0-2.0-1.0","3XC1O3LBOT8PRW3OLAEB7NJ2TQXTLP","A2XQ3CFB5HT2ZQ","39N6W9XWRD9306QNTNZSDTAN4LJGYK","","<img src=""img/practice/S1.jpg"" width=""540"" height = ""360"" style=""border:16px solid orange"">","null","","","","","","","",""
"null","","html-keyboard-response","4","106212","0.0-2.0-2.0","3XC1O3LBOT8PRW3OLAEB7NJ2TQXTLP","A2XQ3CFB5HT2ZQ","39N6W9XWRD9306QNTNZSDTAN4LJGYK","","","null","","","","","","","",""
"2071.300000011921","","image-keyboard-response","5","108286","0.0-2.0-0.1","3XC1O3LBOT8PRW3OLAEB7NJ2TQXTLP","A2XQ3CFB5HT2ZQ","39N6W9XWRD9306QNTNZSDTAN4LJGYK","","img/practice/S4.jpg","68","4","practice","74","false","","","",""
"null","","html-keyboard-response","6","108589","0.0-2.0-1.1","3XC1O3LBOT8PRW3OLAEB7NJ2TQXTLP","A2XQ3CFB5HT2ZQ","39N6W9XWRD9306QNTNZSDTAN4LJGYK","","<img src=""img/practice/S4.jpg"" width=""540"" height = ""360"">","null","","","","","","","",""
"null","","html-keyboard-response","7","108594","0.0-2.0-2.1","3XC1O3LBOT8PRW3OLAEB7NJ2TQXTLP","A2XQ3CFB5HT2ZQ","39N6W9XWRD9306QNTNZSDTAN4LJGYK","","","null","","","","","","","",""
"848.2000000476837","","image-keyboard-response","8","109445","0.0-2.0-0.2","3XC1O3LBOT8PRW3OLAEB7NJ2TQXTLP","A2XQ3CFB5HT2ZQ","39N6W9XWRD9306QNTNZSDTAN4LJGYK","","img/practice/S3.jpg","83","3","practice","72","false","","","",""
"null","","html-keyboard-response","9","109755","0.0-2.0-1.2","3XC1O3LBOT8PRW3OLAEB7NJ2TQXTLP","A2XQ3CFB5HT2ZQ","39N6W9XWRD9306QNTNZSDTAN4LJGYK","","<img src=""img/practice/S3.jpg"" width=""540"" height = ""360"">","null","","","","","","","",""
"null","","html-keyboard-response","10","109760","0.0-2.0-2.2","3XC1O3LBOT8PRW3OLAEB7NJ2TQXTLP","A2XQ3CFB5HT2ZQ","39N6W9XWRD9306QNTNZSDTAN4LJGYK","","","null","","","","","","","",""
"1773.699999988079","","image-keyboard-response","11","111536","0.0-2.0-0.3","3XC1O3LBOT8PRW3OLAEB7NJ2TQXTLP","A2XQ3CFB5HT2ZQ","39N6W9XWRD9306QNTNZSDTAN4LJGYK","","img/practice/S2.jpg","74","2","practice","68","false","","","",""
"null","","html-keyboard-response","12","111839","0.0-2.0-1.3","3XC1O3LBOT8PRW3OLAEB7NJ2TQXTLP","A2XQ3CFB5HT2ZQ","39N6W9XWRD9306QNTNZSDTAN4LJGYK","","<img src=""img/practice/S2.jpg"" width=""540"" height = ""360"">","null","","","","","","","",""
"null","","html-keyboard-response","13","111844","0.0-2.0-2.3","3XC1O3LBOT8PRW3OLAEB7NJ2TQXTLP","A2XQ3CFB5HT2ZQ","39N6W9XWRD9306QNTNZSDTAN4LJGYK","","","null","","","","","","","",""
"954","","image-keyboard-response","14","112800","0.0-2.0-0.4","3XC1O3LBOT8PRW3OLAEB7NJ2TQXTLP","A2XQ3CFB5HT2ZQ","39N6W9XWRD9306QNTNZSDTAN4LJGYK","","img/practice/S1.jpg","83","1","practice","83","true","","","",""
"null","","html-keyboard-response","15","113105","0.0-2.0-1.4","3XC1O3LBOT8PRW3OLAEB7NJ2TQXTLP","A2XQ3CFB5HT2ZQ","39N6W9XWRD9306QNTNZSDTAN4LJGYK","","<img src=""img/practice/S1.jpg"" width=""540"" height = ""360"" style=""border:16px solid orange"">","null","","","","","","","",""
"null","","html-keyboard-response","16","113108","0.0-2.0-2.4","3XC1O3LBOT8PRW3OLAEB7NJ2TQXTLP","A2XQ3CFB5HT2ZQ","39N6W9XWRD9306QNTNZSDTAN4LJGYK","","","null","","","","","","","",""
"null","","image-keyboard-response","17","115623","0.0-2.0-0.5","3XC1O3LBOT8PRW3OLAEB7NJ2TQXTLP","A2XQ3CFB5HT2ZQ","39N6W9XWRD9306QNTNZSDTAN4LJGYK","","img/practice/S2.jpg","null","2","practice","68","false","","","",""
"null","","html-keyboard-response","18","115932","0.0-2.0-1.5","3XC1O3LBOT8PRW3OLAEB7NJ2TQXTLP","A2XQ3CFB5HT2ZQ","39N6W9XWRD9306QNTNZSDTAN4LJGYK","","<img src=""img/practice/S2.jpg"" width=""540"" height = ""360"">","null","","","","","","","",""
"null","","html-keyboard-response","19","115938","0.0-2.0-2.5","3XC1O3LBOT8PRW3OLAEB7NJ2TQXTLP","A2XQ3CFB5HT2ZQ","39N6W9XWRD9306QNTNZSDTAN4LJGYK","","","null","","","","","","","",""
"526.6999999880791","","image-keyboard-response","20","116466","0.0-2.0-0.6","3XC1O3LBOT8PRW3OLAEB7NJ2TQXTLP","A2XQ3CFB5HT2ZQ","39N6W9XWRD9306QNTNZSDTAN4LJGYK","","img/practice/S3.jpg","83","3","practice","72","false","","","",""
"null","","html-keyboard-response","21","116769","0.0-2.0-1.6","3XC1O3LBOT8PRW3OLAEB7NJ2TQXTLP","A2XQ3CFB5HT2ZQ","39N6W9XWRD9306QNTNZSDTAN4LJGYK","","<img src=""img/practice/S3.jpg"" width=""540"" height = ""360"">","null","","","","","","","",""
"null","","html-keyboard-response","22","116772","0.0-2.0-2.6","3XC1O3LBOT8PRW3OLAEB7NJ2TQXTLP","A2XQ3CFB5HT2ZQ","39N6W9XWRD9306QNTNZSDTAN4LJGYK","","","null","","","","","","","",""
"684.5","","image-keyboard-response","23","117459","0.0-2.0-0.7","3XC1O3LBOT8PRW3OLAEB7NJ2TQXTLP","A2XQ3CFB5HT2ZQ","39N6W9XWRD9306QNTNZSDTAN4LJGYK","","img/practice/S4.jpg","68","4","practice","74","false","","","",""
"null","","html-keyboard-response","24","117773","0.0-2.0-1.7","3XC1O3LBOT8PRW3OLAEB7NJ2TQXTLP","A2XQ3CFB5HT2ZQ","39N6W9XWRD9306QNTNZSDTAN4LJGYK","","<img src=""img/practice/S4.jpg"" width=""540"" height = ""360"">","null","","","","","","","",""
"null","","html-keyboard-response","25","117778","0.0-2.0-2.7","3XC1O3LBOT8PRW3OLAEB7NJ2TQXTLP","A2XQ3CFB5HT2ZQ","39N6W9XWRD9306QNTNZSDTAN4LJGYK","","","null","","","","","","","",""
"2359.100000023842","","image-keyboard-response","26","120139","0.0-2.0-0.8","3XC1O3LBOT8PRW3OLAEB7NJ2TQXTLP","A2XQ3CFB5HT2ZQ","39N6W9XWRD9306QNTNZSDTAN4LJGYK","","img/practice/S4.jpg","74","4","practice","74","true","","","",""
"null","","html-keyboard-response","27","120448","0.0-2.0-1.8","3XC1O3LBOT8PRW3OLAEB7NJ2TQXTLP","A2XQ3CFB5HT2ZQ","39N6W9XWRD9306QNTNZSDTAN4LJGYK","","<img src=""img/practice/S4.jpg"" width=""540"" height = ""360"" style=""border:16px solid orange"">","null","","","","","","","",""
"null","","html-keyboard-response","28","120451","0.0-2.0-2.8","3XC1O3LBOT8PRW3OLAEB7NJ2TQXTLP","A2XQ3CFB5HT2ZQ","39N6W9XWRD9306QNTNZSDTAN4LJGYK","","","null","","","","","","","",""
"2418.399999976158","","image-keyboard-response","29","122871","0.0-2.0-0.9","3XC1O3LBOT8PRW3OLAEB7NJ2TQXTLP","A2XQ3CFB5HT2ZQ","39N6W9XWRD9306QNTNZSDTAN4LJGYK","","img/practice/S1.jpg","83","1","practice","83","true","","","",""
"null","","html-keyboard-response","30","123179","0.0-2.0-1.9","3XC1O3LBOT8PRW3OLAEB7NJ2TQXTLP","A2XQ3CFB5HT2ZQ","39N6W9XWRD9306QNTNZSDTAN4LJGYK","","<img src=""img/practice/S1.jpg"" width=""540"" height = ""360"" style=""border:16px solid orange"">","null","","","","","","","",""
"null","","html-keyboard-response","31","123185","0.0-2.0-2.9","3XC1O3LBOT8PRW3OLAEB7NJ2TQXTLP","A2XQ3CFB5HT2ZQ","39N6W9XWRD9306QNTNZSDTAN4LJGYK","","","null","","","","","","","",""
"1081","","image-keyboard-response","32","124268","0.0-2.0-0.10","3XC1O3LBOT8PRW3OLAEB7NJ2TQXTLP","A2XQ3CFB5HT2ZQ","39N6W9XWRD9306QNTNZSDTAN4LJGYK","","img/practice/S2.jpg","74","2","practice","68","false","","","",""
"null","","html-keyboard-response","33","124586","0.0-2.0-1.10","3XC1O3LBOT8PRW3OLAEB7NJ2TQXTLP","A2XQ3CFB5HT2ZQ","39N6W9XWRD9306QNTNZSDTAN4LJGYK","","<img src=""img/practice/S2.jpg"" width=""540"" height = ""360"">","null","","","","","","","",""
"null","","html-keyboard-response","34","124591","0.0-2.0-2.10","3XC1O3LBOT8PRW3OLAEB7NJ2TQXTLP","A2XQ3CFB5HT2ZQ","39N6W9XWRD9306QNTNZSDTAN4LJGYK","","","null","","","","","","","",""
"1898.3999999761581","","image-keyboard-response","35","126491","0.0-2.0-0.11","3XC1O3LBOT8PRW3OLAEB7NJ2TQXTLP","A2XQ3CFB5HT2ZQ","39N6W9XWRD9306QNTNZSDTAN4LJGYK","","img/practice/S3.jpg","68","3","practice","72","false","","","",""
"null","","html-keyboard-response","36","126799","0.0-2.0-1.11","3XC1O3LBOT8PRW3OLAEB7NJ2TQXTLP","A2XQ3CFB5HT2ZQ","39N6W9XWRD9306QNTNZSDTAN4LJGYK","","<img src=""img/practice/S3.jpg"" width=""540"" height = ""360"">","null","","","","","","","",""
"null","","html-keyboard-response","37","126805","0.0-2.0-2.11","3XC1O3LBOT8PRW3OLAEB7NJ2TQXTLP","A2XQ3CFB5HT2ZQ","39N6W9XWRD9306QNTNZSDTAN4LJGYK","","","null","","","","","","","",""
"572","","image-keyboard-response","38","127379","0.0-2.0-0.12","3XC1O3LBOT8PRW3OLAEB7NJ2TQXTLP","A2XQ3CFB5HT2ZQ","39N6W9XWRD9306QNTNZSDTAN4LJGYK","","img/practice/S4.jpg","83","4","practice","74","false","","","",""
"null","","html-keyboard-response","39","127682","0.0-2.0-1.12","3XC1O3LBOT8PRW3OLAEB7NJ2TQXTLP","A2XQ3CFB5HT2ZQ","39N6W9XWRD9306QNTNZSDTAN4LJGYK","","<img src=""img/practice/S4.jpg"" width=""540"" height = ""360"">","null","","","","","","","",""
"null","","html-keyboard-response","40","127687","0.0-2.0-2.12","3XC1O3LBOT8PRW3OLAEB7NJ2TQXTLP","A2XQ3CFB5HT2ZQ","39N6W9XWRD9306QNTNZSDTAN4LJGYK","","","null","","","","","","","",""
"859.3999999761581","","image-keyboard-response","41","128549","0.0-2.0-0.13","3XC1O3LBOT8PRW3OLAEB7NJ2TQXTLP","A2XQ3CFB5HT2ZQ","39N6W9XWRD9306QNTNZSDTAN4LJGYK","","img/practice/S1.jpg","83","1","practice","83","true","","","",""
"null","","html-keyboard-response","42","128858","0.0-2.0-1.13","3XC1O3LBOT8PRW3OLAEB7NJ2TQXTLP","A2XQ3CFB5HT2ZQ","39N6W9XWRD9306QNTNZSDTAN4LJGYK","","<img src=""img/practice/S1.jpg"" width=""540"" height = ""360"" style=""border:16px solid orange"">","null","","","","","","","",""
"null","","html-keyboard-response","43","128864","0.0-2.0-2.13","3XC1O3LBOT8PRW3OLAEB7NJ2TQXTLP","A2XQ3CFB5HT2ZQ","39N6W9XWRD9306QNTNZSDTAN4LJGYK","","","null","","","","","","","",""
"null","","image-keyboard-response","44","131369","0.0-2.0-0.14","3XC1O3LBOT8PRW3OLAEB7NJ2TQXTLP","A2XQ3CFB5HT2ZQ","39N6W9XWRD9306QNTNZSDTAN4LJGYK","","img/practice/S2.jpg","null","2","practice","68","false","","","",""
"null","","html-keyboard-response","45","131678","0.0-2.0-1.14","3XC1O3LBOT8PRW3OLAEB7NJ2TQXTLP","A2XQ3CFB5HT2ZQ","39N6W9XWRD9306QNTNZSDTAN4LJGYK","","<img src=""img/practice/S2.jpg"" width=""540"" height = ""360"">","null","","","","","","","",""
"null","","html-keyboard-response","46","131683","0.0-2.0-2.14","3XC1O3LBOT8PRW3OLAEB7NJ2TQXTLP","A2XQ3CFB5HT2ZQ","39N6W9XWRD9306QNTNZSDTAN4LJGYK","","","null","","","","","","","",""
"885.0999999642372","","image-keyboard-response","47","132570","0.0-2.0-0.15","3XC1O3LBOT8PRW3OLAEB7NJ2TQXTLP","A2XQ3CFB5HT2ZQ","39N6W9XWRD9306QNTNZSDTAN4LJGYK","","img/practice/S3.jpg","83","3","practice","72","false","","","",""
"null","","html-keyboard-response","48","132879","0.0-2.0-1.15","3XC1O3LBOT8PRW3OLAEB7NJ2TQXTLP","A2XQ3CFB5HT2ZQ","39N6W9XWRD9306QNTNZSDTAN4LJGYK","","<img src=""img/practice/S3.jpg"" width=""540"" height = ""360"">","null","","","","","","","",""
"null","","html-keyboard-response","49","132887","0.0-2.0-2.15","3XC1O3LBOT8PRW3OLAEB7NJ2TQXTLP","A2XQ3CFB5HT2ZQ","39N6W9XWRD9306QNTNZSDTAN4LJGYK","","","null","","","","","","","",""
"1352.6000000238419","","image-keyboard-response","50","134242","0.0-2.0-0.16","3XC1O3LBOT8PRW3OLAEB7NJ2TQXTLP","A2XQ3CFB5HT2ZQ","39N6W9XWRD9306QNTNZSDTAN4LJGYK","","img/practice/S2.jpg","74","2","practice","68","false","","","",""
"null","","html-keyboard-response","51","134545","0.0-2.0-1.16","3XC1O3LBOT8PRW3OLAEB7NJ2TQXTLP","A2XQ3CFB5HT2ZQ","39N6W9XWRD9306QNTNZSDTAN4LJGYK","","<img src=""img/practice/S2.jpg"" width=""540"" height = ""360"">","null","","","","","","","",""
"null","","html-keyboard-response","52","134549","0.0-2.0-2.16","3XC1O3LBOT8PRW3OLAEB7NJ2TQXTLP","A2XQ3CFB5HT2ZQ","39N6W9XWRD9306QNTNZSDTAN4LJGYK","","","null","","","","","","","",""
"null","","image-keyboard-response","53","137064","0.0-2.0-0.17","3XC1O3LBOT8PRW3OLAEB7NJ2TQXTLP","A2XQ3CFB5HT2ZQ","39N6W9XWRD9306QNTNZSDTAN4LJGYK","","img/practice/S3.jpg","null","3","practice","72","false","","","",""
"null","","html-keyboard-response","54","137373","0.0-2.0-1.17","3XC1O3LBOT8PRW3OLAEB7NJ2TQXTLP","A2XQ3CFB5HT2ZQ","39N6W9XWRD9306QNTNZSDTAN4LJGYK","","<img src=""img/practice/S3.jpg"" width=""540"" height = ""360"">","null","","","","","","","",""
"null","","html-keyboard-response","55","137378","0.0-2.0-2.17","3XC1O3LBOT8PRW3OLAEB7NJ2TQXTLP","A2XQ3CFB5HT2ZQ","39N6W9XWRD9306QNTNZSDTAN4LJGYK","","","null","","","","","","","",""
"912.7999999523163","","image-keyboard-response","56","138294","0.0-2.0-0.18","3XC1O3LBOT8PRW3OLAEB7NJ2TQXTLP","A2XQ3CFB5HT2ZQ","39N6W9XWRD9306QNTNZSDTAN4LJGYK","","img/practice/S4.jpg","74","4","practice","74","true","","","",""
"null","","html-keyboard-response","57","138602","0.0-2.0-1.18","3XC1O3LBOT8PRW3OLAEB7NJ2TQXTLP","A2XQ3CFB5HT2ZQ","39N6W9XWRD9306QNTNZSDTAN4LJGYK","","<img src=""img/practice/S4.jpg"" width=""540"" height = ""360"" style=""border:16px solid orange"">","null","","","","","","","",""
"null","","html-keyboard-response","58","138605","0.0-2.0-2.18","3XC1O3LBOT8PRW3OLAEB7NJ2TQXTLP","A2XQ3CFB5HT2ZQ","39N6W9XWRD9306QNTNZSDTAN4LJGYK","","","null","","","","","","","",""
"1478.2999999523163","","image-keyboard-response","59","140086","0.0-2.0-0.19","3XC1O3LBOT8PRW3OLAEB7NJ2TQXTLP","A2XQ3CFB5HT2ZQ","39N6W9XWRD9306QNTNZSDTAN4LJGYK","","img/practice/S1.jpg","83","1","practice","83","true","","","",""
"null","","html-keyboard-response","60","140403","0.0-2.0-1.19","3XC1O3LBOT8PRW3OLAEB7NJ2TQXTLP","A2XQ3CFB5HT2ZQ","39N6W9XWRD9306QNTNZSDTAN4LJGYK","","<img src=""img/practice/S1.jpg"" width=""540"" height = ""360"" style=""border:16px solid orange"">","null","","","","","","","",""
"null","","html-keyboard-response","61","140408","0.0-2.0-2.19","3XC1O3LBOT8PRW3OLAEB7NJ2TQXTLP","A2XQ3CFB5HT2ZQ","39N6W9XWRD9306QNTNZSDTAN4LJGYK","","","null","","","","","","","",""
"780.5","","image-keyboard-response","62","141190","0.0-2.0-0.20","3XC1O3LBOT8PRW3OLAEB7NJ2TQXTLP","A2XQ3CFB5HT2ZQ","39N6W9XWRD9306QNTNZSDTAN4LJGYK","","img/practice/S1.jpg","83","1","practice","83","true","","","",""
"null","","html-keyboard-response","63","141497","0.0-2.0-1.20","3XC1O3LBOT8PRW3OLAEB7NJ2TQXTLP","A2XQ3CFB5HT2ZQ","39N6W9XWRD9306QNTNZSDTAN4LJGYK","","<img src=""img/practice/S1.jpg"" width=""540"" height = ""360"" style=""border:16px solid orange"">","null","","","","","","","",""
"null","","html-keyboard-response","64","141499","0.0-2.0-2.20","3XC1O3LBOT8PRW3OLAEB7NJ2TQXTLP","A2XQ3CFB5HT2ZQ","39N6W9XWRD9306QNTNZSDTAN4LJGYK","","","null","","","","","","","",""
"884.6000000238419","","image-keyboard-response","65","142386","0.0-2.0-0.21","3XC1O3LBOT8PRW3OLAEB7NJ2TQXTLP","A2XQ3CFB5HT2ZQ","39N6W9XWRD9306QNTNZSDTAN4LJGYK","","img/practice/S2.jpg","74","2","practice","68","false","","","",""
"null","","html-keyboard-response","66","142691","0.0-2.0-1.21","3XC1O3LBOT8PRW3OLAEB7NJ2TQXTLP","A2XQ3CFB5HT2ZQ","39N6W9XWRD9306QNTNZSDTAN4LJGYK","","<img src=""img/practice/S2.jpg"" width=""540"" height = ""360"">","null","","","","","","","",""
"null","","html-keyboard-response","67","142695","0.0-2.0-2.21","3XC1O3LBOT8PRW3OLAEB7NJ2TQXTLP","A2XQ3CFB5HT2ZQ","39N6W9XWRD9306QNTNZSDTAN4LJGYK","","","null","","","","","","","",""
"1178.199999988079","","image-keyboard-response","68","143875","0.0-2.0-0.22","3XC1O3LBOT8PRW3OLAEB7NJ2TQXTLP","A2XQ3CFB5HT2ZQ","39N6W9XWRD9306QNTNZSDTAN4LJGYK","","img/practice/S3.jpg","74","3","practice","72","false","","","",""
"null","","html-keyboard-response","69","144191","0.0-2.0-1.22","3XC1O3LBOT8PRW3OLAEB7NJ2TQXTLP","A2XQ3CFB5HT2ZQ","39N6W9XWRD9306QNTNZSDTAN4LJGYK","","<img src=""img/practice/S3.jpg"" width=""540"" height = ""360"">","null","","","","","","","",""
"null","","html-keyboard-response","70","144208","0.0-2.0-2.22","3XC1O3LBOT8PRW3OLAEB7NJ2TQXTLP","A2XQ3CFB5HT2ZQ","39N6W9XWRD9306QNTNZSDTAN4LJGYK","","","null","","","","","","","",""
"1336","","image-keyboard-response","71","145546","0.0-2.0-0.23","3XC1O3LBOT8PRW3OLAEB7NJ2TQXTLP","A2XQ3CFB5HT2ZQ","39N6W9XWRD9306QNTNZSDTAN4LJGYK","","img/practice/S4.jpg","74","4","practice","74","true","","","",""
"null","","html-keyboard-response","72","145860","0.0-2.0-1.23","3XC1O3LBOT8PRW3OLAEB7NJ2TQXTLP","A2XQ3CFB5HT2ZQ","39N6W9XWRD9306QNTNZSDTAN4LJGYK","","<img src=""img/practice/S4.jpg"" width=""540"" height = ""360"" style=""border:16px solid orange"">","null","","","","","","","",""
"null","","html-keyboard-response","73","145866","0.0-2.0-2.23","3XC1O3LBOT8PRW3OLAEB7NJ2TQXTLP","A2XQ3CFB5HT2ZQ","39N6W9XWRD9306QNTNZSDTAN4LJGYK","","","null","","","","","","","",""
"10878.599999964237","","instructions","74","156745","0.0-3.0","3XC1O3LBOT8PRW3OLAEB7NJ2TQXTLP","A2XQ3CFB5HT2ZQ","39N6W9XWRD9306QNTNZSDTAN4LJGYK","[{""page_index"":0,""viewing_time"":10878.099999964237}]","","","","","","","","","",""
"13966.100000023842","","instructions","75","170712","0.0-4.0","3XC1O3LBOT8PRW3OLAEB7NJ2TQXTLP","A2XQ3CFB5HT2ZQ","39N6W9XWRD9306QNTNZSDTAN4LJGYK","[{""page_index"":0,""viewing_time"":13965.600000023842}]","","","","","","","","","",""
"7744","","instructions","76","178457","0.0-5.0","3XC1O3LBOT8PRW3OLAEB7NJ2TQXTLP","A2XQ3CFB5HT2ZQ","39N6W9XWRD9306QNTNZSDTAN4LJGYK","[{""page_index"":0,""viewing_time"":7743.600000023842}]","","","","","","","","","",""
"1618.3999999761581","","image-keyboard-response","77","180077","0.0-6.0","3XC1O3LBOT8PRW3OLAEB7NJ2TQXTLP","A2XQ3CFB5HT2ZQ","39N6W9XWRD9306QNTNZSDTAN4LJGYK","","img/set1/S1.jpg","83","1","structured_normal","83","true","structured_normal,structured_incentive,random","2,3,1,2","",""
"null","","html-keyboard-response","78","180435","0.0-7.0","3XC1O3LBOT8PRW3OLAEB7NJ2TQXTLP","A2XQ3CFB5HT2ZQ","39N6W9XWRD9306QNTNZSDTAN4LJGYK","","<img src=""img/set1/S1.jpg"" width=""540"" height = ""360"" style=""border:16px solid orange"">","null","","","","","","","",""
"null","","html-keyboard-response","79","180441","0.0-8.0","3XC1O3LBOT8PRW3OLAEB7NJ2TQXTLP","A2XQ3CFB5HT2ZQ","39N6W9XWRD9306QNTNZSDTAN4LJGYK","","","null","","","","","","","",""
"691.3000000119209","","image-keyboard-response","80","181134","0.0-9.0","3XC1O3LBOT8PRW3OLAEB7NJ2TQXTLP","A2XQ3CFB5HT2ZQ","39N6W9XWRD9306QNTNZSDTAN4LJGYK","","img/set1/S1.jpg","83","1","structured_normal","83","true","structured_normal,structured_incentive,random","2,3,1,2","",""
"null","","html-keyboard-response","81","181497","0.0-10.0","3XC1O3LBOT8PRW3OLAEB7NJ2TQXTLP","A2XQ3CFB5HT2ZQ","39N6W9XWRD9306QNTNZSDTAN4LJGYK","","<img src=""img/set1/S1.jpg"" width=""540"" height = ""360"" style=""border:16px solid orange"">","null","","","","","","","",""
"null","","html-keyboard-response","82","181501","0.0-11.0","3XC1O3LBOT8PRW3OLAEB7NJ2TQXTLP","A2XQ3CFB5HT2ZQ","39N6W9XWRD9306QNTNZSDTAN4LJGYK","","","null","","","","","","","",""
"946.6000000238419","","image-keyboard-response","83","182449","0.0-12.0","3XC1O3LBOT8PRW3OLAEB7NJ2TQXTLP","A2XQ3CFB5HT2ZQ","39N6W9XWRD9306QNTNZSDTAN4LJGYK","","img/set1/S2.jpg","68","2","structured_normal","68","true","structured_normal,structured_incentive,random","2,3,1,2","",""
"null","","html-keyboard-response","84","182812","0.0-13.0","3XC1O3LBOT8PRW3OLAEB7NJ2TQXTLP","A2XQ3CFB5HT2ZQ","39N6W9XWRD9306QNTNZSDTAN4LJGYK","","<img src=""img/set1/S2.jpg"" width=""540"" height = ""360"" style=""border:16px solid orange"">","null","","","","","","","",""
"null","","html-keyboard-response","85","182817","0.0-14.0","3XC1O3LBOT8PRW3OLAEB7NJ2TQXTLP","A2XQ3CFB5HT2ZQ","39N6W9XWRD9306QNTNZSDTAN4LJGYK","","","null","","","","","","","",""
"909.6000000238419","","image-keyboard-response","86","183728","0.0-15.0","3XC1O3LBOT8PRW3OLAEB7NJ2TQXTLP","A2XQ3CFB5HT2ZQ","39N6W9XWRD9306QNTNZSDTAN4LJGYK","","img/set1/S3.jpg","74","3","structured_normal","72","false","structured_normal,structured_incentive,random","2,3,1,2","",""
"null","","html-keyboard-response","87","184081","0.0-16.0","3XC1O3LBOT8PRW3OLAEB7NJ2TQXTLP","A2XQ3CFB5HT2ZQ","39N6W9XWRD9306QNTNZSDTAN4LJGYK","","<img src=""img/set1/S3.jpg"" width=""540"" height = ""360"">","null","","","","","","","",""
"null","","html-keyboard-response","88","184087","0.0-17.0","3XC1O3LBOT8PRW3OLAEB7NJ2TQXTLP","A2XQ3CFB5HT2ZQ","39N6W9XWRD9306QNTNZSDTAN4LJGYK","","","null","","","","","","","",""
"1130.8999999761581","","image-keyboard-response","89","185219","0.0-18.0","3XC1O3LBOT8PRW3OLAEB7NJ2TQXTLP","A2XQ3CFB5HT2ZQ","39N6W9XWRD9306QNTNZSDTAN4LJGYK","","img/set1/S1.jpg","83","1","structured_normal","83","true","structured_normal,structured_incentive,random","2,3,1,2","",""
"null","","html-keyboard-response","90","185586","0.0-19.0","3XC1O3LBOT8PRW3OLAEB7NJ2TQXTLP","A2XQ3CFB5HT2ZQ","39N6W9XWRD9306QNTNZSDTAN4LJGYK","","<img src=""img/set1/S1.jpg"" width=""540"" height = ""360"" style=""border:16px solid orange"">","null","","","","","","","",""
"null","","html-keyboard-response","91","185591","0.0-20.0","3XC1O3LBOT8PRW3OLAEB7NJ2TQXTLP","A2XQ3CFB5HT2ZQ","39N6W9XWRD9306QNTNZSDTAN4LJGYK","","","null","","","","","","","",""
"799.8000000119209","","image-keyboard-response","92","186392","0.0-21.0","3XC1O3LBOT8PRW3OLAEB7NJ2TQXTLP","A2XQ3CFB5HT2ZQ","39N6W9XWRD9306QNTNZSDTAN4LJGYK","","img/set1/S2.jpg","68","2","structured_normal","68","true","structured_normal,structured_incentive,random","2,3,1,2","",""
"null","","html-keyboard-response","93","186759","0.0-22.0","3XC1O3LBOT8PRW3OLAEB7NJ2TQXTLP","A2XQ3CFB5HT2ZQ","39N6W9XWRD9306QNTNZSDTAN4LJGYK","","<img src=""img/set1/S2.jpg"" width=""540"" height = ""360"" style=""border:16px solid orange"">","null","","","","","","","",""
"null","","html-keyboard-response","94","186764","0.0-23.0","3XC1O3LBOT8PRW3OLAEB7NJ2TQXTLP","A2XQ3CFB5HT2ZQ","39N6W9XWRD9306QNTNZSDTAN4LJGYK","","","null","","","","","","","",""
"763.0999999642372","","image-keyboard-response","95","187529","0.0-24.0","3XC1O3LBOT8PRW3OLAEB7NJ2TQXTLP","A2XQ3CFB5HT2ZQ","39N6W9XWRD9306QNTNZSDTAN4LJGYK","","img/set1/S3.jpg","72","3","structured_normal","72","true","structured_normal,structured_incentive,random","2,3,1,2","",""
"null","","html-keyboard-response","96","187891","0.0-25.0","3XC1O3LBOT8PRW3OLAEB7NJ2TQXTLP","A2XQ3CFB5HT2ZQ","39N6W9XWRD9306QNTNZSDTAN4LJGYK","","<img src=""img/set1/S3.jpg"" width=""540"" height = ""360"" style=""border:16px solid orange"">","null","","","","","","","",""
"null","","html-keyboard-response","97","187896","0.0-26.0","3XC1O3LBOT8PRW3OLAEB7NJ2TQXTLP","A2XQ3CFB5HT2ZQ","39N6W9XWRD9306QNTNZSDTAN4LJGYK","","","null","","","","","","","",""
"995.2999999523163","","image-keyboard-response","98","188893","0.0-27.0","3XC1O3LBOT8PRW3OLAEB7NJ2TQXTLP","A2XQ3CFB5HT2ZQ","39N6W9XWRD9306QNTNZSDTAN4LJGYK","","img/set1/S1.jpg","83","1","structured_normal","83","true","structured_normal,structured_incentive,random","2,3,1,2","",""
"null","","html-keyboard-response","99","189255","0.0-28.0","3XC1O3LBOT8PRW3OLAEB7NJ2TQXTLP","A2XQ3CFB5HT2ZQ","39N6W9XWRD9306QNTNZSDTAN4LJGYK","","<img src=""img/set1/S1.jpg"" width=""540"" height = ""360"" style=""border:16px solid orange"">","null","","","","","","","",""
"null","","html-keyboard-response","100","189261","0.0-29.0","3XC1O3LBOT8PRW3OLAEB7NJ2TQXTLP","A2XQ3CFB5HT2ZQ","39N6W9XWRD9306QNTNZSDTAN4LJGYK","","","null","","","","","","","",""
"818.5999999642372","","image-keyboard-response","101","190081","0.0-30.0","3XC1O3LBOT8PRW3OLAEB7NJ2TQXTLP","A2XQ3CFB5HT2ZQ","39N6W9XWRD9306QNTNZSDTAN4LJGYK","","img/set1/S4.jpg","74","4","structured_normal","74","true","structured_normal,structured_incentive,random","2,3,1,2","",""
"null","","html-keyboard-response","102","190440","0.0-31.0","3XC1O3LBOT8PRW3OLAEB7NJ2TQXTLP","A2XQ3CFB5HT2ZQ","39N6W9XWRD9306QNTNZSDTAN4LJGYK","","<img src=""img/set1/S4.jpg"" width=""540"" height = ""360"" style=""border:16px solid orange"">","null","","","","","","","",""
"null","","html-keyboard-response","103","190445","0.0-32.0","3XC1O3LBOT8PRW3OLAEB7NJ2TQXTLP","A2XQ3CFB5HT2ZQ","39N6W9XWRD9306QNTNZSDTAN4LJGYK","","","null","","","","","","","",""
"548.3000000119209","","image-keyboard-response","104","190995","0.0-33.0","3XC1O3LBOT8PRW3OLAEB7NJ2TQXTLP","A2XQ3CFB5HT2ZQ","39N6W9XWRD9306QNTNZSDTAN4LJGYK","","img/set1/S4.jpg","74","4","structured_normal","74","true","structured_normal,structured_incentive,random","2,3,1,2","",""
"null","","html-keyboard-response","105","191355","0.0-34.0","3XC1O3LBOT8PRW3OLAEB7NJ2TQXTLP","A2XQ3CFB5HT2ZQ","39N6W9XWRD9306QNTNZSDTAN4LJGYK","","<img src=""img/set1/S4.jpg"" width=""540"" height = ""360"" style=""border:16px solid orange"">","null","","","","","","","",""
"null","","html-keyboard-response","106","191360","0.0-35.0","3XC1O3LBOT8PRW3OLAEB7NJ2TQXTLP","A2XQ3CFB5HT2ZQ","39N6W9XWRD9306QNTNZSDTAN4LJGYK","","","null","","","","","","","",""
"738","","image-keyboard-response","107","192100","0.0-36.0","3XC1O3LBOT8PRW3OLAEB7NJ2TQXTLP","A2XQ3CFB5HT2ZQ","39N6W9XWRD9306QNTNZSDTAN4LJGYK","","img/set1/S3.jpg","68","3","structured_normal","72","false","structured_normal,structured_incentive,random","2,3,1,2","",""
"null","","html-keyboard-response","108","192458","0.0-37.0","3XC1O3LBOT8PRW3OLAEB7NJ2TQXTLP","A2XQ3CFB5HT2ZQ","39N6W9XWRD9306QNTNZSDTAN4LJGYK","","<img src=""img/set1/S3.jpg"" width=""540"" height = ""360"">","null","","","","","","","",""
"null","","html-keyboard-response","109","192464","0.0-38.0","3XC1O3LBOT8PRW3OLAEB7NJ2TQXTLP","A2XQ3CFB5HT2ZQ","39N6W9XWRD9306QNTNZSDTAN4LJGYK","","","null","","","","","","","",""
"196.19999998807907","","image-keyboard-response","110","192662","0.0-39.0","3XC1O3LBOT8PRW3OLAEB7NJ2TQXTLP","A2XQ3CFB5HT2ZQ","39N6W9XWRD9306QNTNZSDTAN4LJGYK","","img/set1/S2.jpg","72","2","structured_normal","68","false","structured_normal,structured_incentive,random","2,3,1,2","",""
"null","","html-keyboard-response","111","193028","0.0-40.0","3XC1O3LBOT8PRW3OLAEB7NJ2TQXTLP","A2XQ3CFB5HT2ZQ","39N6W9XWRD9306QNTNZSDTAN4LJGYK","","<img src=""img/set1/S2.jpg"" width=""540"" height = ""360"">","null","","","","","","","",""
"null","","html-keyboard-response","112","193033","0.0-41.0","3XC1O3LBOT8PRW3OLAEB7NJ2TQXTLP","A2XQ3CFB5HT2ZQ","39N6W9XWRD9306QNTNZSDTAN4LJGYK","","","null","","","","","","","",""
"776.2000000476837","","image-keyboard-response","113","193811","0.0-42.0","3XC1O3LBOT8PRW3OLAEB7NJ2TQXTLP","A2XQ3CFB5HT2ZQ","39N6W9XWRD9306QNTNZSDTAN4LJGYK","","img/set1/S3.jpg","72","3","structured_normal","72","true","structured_normal,structured_incentive,random","2,3,1,2","",""
"null","","html-keyboard-response","114","194174","0.0-43.0","3XC1O3LBOT8PRW3OLAEB7NJ2TQXTLP","A2XQ3CFB5HT2ZQ","39N6W9XWRD9306QNTNZSDTAN4LJGYK","","<img src=""img/set1/S3.jpg"" width=""540"" height = ""360"" style=""border:16px solid orange"">","null","","","","","","","",""
"null","","html-keyboard-response","115","194183","0.0-44.0","3XC1O3LBOT8PRW3OLAEB7NJ2TQXTLP","A2XQ3CFB5HT2ZQ","39N6W9XWRD9306QNTNZSDTAN4LJGYK","","","null","","","","","","","",""
"726","","image-keyboard-response","116","194914","0.0-45.0","3XC1O3LBOT8PRW3OLAEB7NJ2TQXTLP","A2XQ3CFB5HT2ZQ","39N6W9XWRD9306QNTNZSDTAN4LJGYK","","img/set1/S1.jpg","83","1","structured_normal","83","true","structured_normal,structured_incentive,random","2,3,1,2","",""
"null","","html-keyboard-response","117","195272","0.0-46.0","3XC1O3LBOT8PRW3OLAEB7NJ2TQXTLP","A2XQ3CFB5HT2ZQ","39N6W9XWRD9306QNTNZSDTAN4LJGYK","","<img src=""img/set1/S1.jpg"" width=""540"" height = ""360"" style=""border:16px solid orange"">","null","","","","","","","",""
"null","","html-keyboard-response","118","195278","0.0-47.0","3XC1O3LBOT8PRW3OLAEB7NJ2TQXTLP","A2XQ3CFB5HT2ZQ","39N6W9XWRD9306QNTNZSDTAN4LJGYK","","","null","","","","","","","",""
"808.9000000357628","","image-keyboard-response","119","196088","0.0-48.0","3XC1O3LBOT8PRW3OLAEB7NJ2TQXTLP","A2XQ3CFB5HT2ZQ","39N6W9XWRD9306QNTNZSDTAN4LJGYK","","img/set1/S2.jpg","68","2","structured_normal","68","true","structured_normal,structured_incentive,random","2,3,1,2","",""
"null","","html-keyboard-response","120","196451","0.0-49.0","3XC1O3LBOT8PRW3OLAEB7NJ2TQXTLP","A2XQ3CFB5HT2ZQ","39N6W9XWRD9306QNTNZSDTAN4LJGYK","","<img src=""img/set1/S2.jpg"" width=""540"" height = ""360"" style=""border:16px solid orange"">","null","","","","","","","",""
"null","","html-keyboard-response","121","196458","0.0-50.0","3XC1O3LBOT8PRW3OLAEB7NJ2TQXTLP","A2XQ3CFB5HT2ZQ","39N6W9XWRD9306QNTNZSDTAN4LJGYK","","","null","","","","","","","",""
"657.1000000238419","","image-keyboard-response","122","197116","0.0-51.0","3XC1O3LBOT8PRW3OLAEB7NJ2TQXTLP","A2XQ3CFB5HT2ZQ","39N6W9XWRD9306QNTNZSDTAN4LJGYK","","img/set1/S3.jpg","72","3","structured_normal","72","true","structured_normal,structured_incentive,random","2,3,1,2","",""
"null","","html-keyboard-response","123","197473","0.0-52.0","3XC1O3LBOT8PRW3OLAEB7NJ2TQXTLP","A2XQ3CFB5HT2ZQ","39N6W9XWRD9306QNTNZSDTAN4LJGYK","","<img src=""img/set1/S3.jpg"" width=""540"" height = ""360"" style=""border:16px solid orange"">","null","","","","","","","",""
"null","","html-keyboard-response","124","197480","0.0-53.0","3XC1O3LBOT8PRW3OLAEB7NJ2TQXTLP","A2XQ3CFB5HT2ZQ","39N6W9XWRD9306QNTNZSDTAN4LJGYK","","","null","","","","","","","",""
"770.7000000476837","","image-keyboard-response","125","198252","0.0-54.0","3XC1O3LBOT8PRW3OLAEB7NJ2TQXTLP","A2XQ3CFB5HT2ZQ","39N6W9XWRD9306QNTNZSDTAN4LJGYK","","img/set1/S4.jpg","74","4","structured_normal","74","true","structured_normal,structured_incentive,random","2,3,1,2","",""
"null","","html-keyboard-response","126","198619","0.0-55.0","3XC1O3LBOT8PRW3OLAEB7NJ2TQXTLP","A2XQ3CFB5HT2ZQ","39N6W9XWRD9306QNTNZSDTAN4LJGYK","","<img src=""img/set1/S4.jpg"" width=""540"" height = ""360"" style=""border:16px solid orange"">","null","","","","","","","",""
"null","","html-keyboard-response","127","198624","0.0-56.0","3XC1O3LBOT8PRW3OLAEB7NJ2TQXTLP","A2XQ3CFB5HT2ZQ","39N6W9XWRD9306QNTNZSDTAN4LJGYK","","","null","","","","","","","",""
"762.5","","image-keyboard-response","128","199388","0.0-57.0","3XC1O3LBOT8PRW3OLAEB7NJ2TQXTLP","A2XQ3CFB5HT2ZQ","39N6W9XWRD9306QNTNZSDTAN4LJGYK","","img/set1/S1.jpg","83","1","structured_normal","83","true","structured_normal,structured_incentive,random","2,3,1,2","",""
"null","","html-keyboard-response","129","199748","0.0-58.0","3XC1O3LBOT8PRW3OLAEB7NJ2TQXTLP","A2XQ3CFB5HT2ZQ","39N6W9XWRD9306QNTNZSDTAN4LJGYK","","<img src=""img/set1/S1.jpg"" width=""540"" height = ""360"" style=""border:16px solid orange"">","null","","","","","","","",""
"null","","html-keyboard-response","130","199756","0.0-59.0","3XC1O3LBOT8PRW3OLAEB7NJ2TQXTLP","A2XQ3CFB5HT2ZQ","39N6W9XWRD9306QNTNZSDTAN4LJGYK","","","null","","","","","","","",""
"753.6000000238419","","image-keyboard-response","131","200512","0.0-60.0","3XC1O3LBOT8PRW3OLAEB7NJ2TQXTLP","A2XQ3CFB5HT2ZQ","39N6W9XWRD9306QNTNZSDTAN4LJGYK","","img/set1/S2.jpg","68","2","structured_normal","68","true","structured_normal,structured_incentive,random","2,3,1,2","",""
"null","","html-keyboard-response","132","200878","0.0-61.0","3XC1O3LBOT8PRW3OLAEB7NJ2TQXTLP","A2XQ3CFB5HT2ZQ","39N6W9XWRD9306QNTNZSDTAN4LJGYK","","<img src=""img/set1/S2.jpg"" width=""540"" height = ""360"" style=""border:16px solid orange"">","null","","","","","","","",""
"null","","html-keyboard-response","133","200883","0.0-62.0","3XC1O3LBOT8PRW3OLAEB7NJ2TQXTLP","A2XQ3CFB5HT2ZQ","39N6W9XWRD9306QNTNZSDTAN4LJGYK","","","null","","","","","","","",""
"943.5","","image-keyboard-response","134","201828","0.0-63.0","3XC1O3LBOT8PRW3OLAEB7NJ2TQXTLP","A2XQ3CFB5HT2ZQ","39N6W9XWRD9306QNTNZSDTAN4LJGYK","","img/set1/S3.jpg","72","3","structured_normal","72","true","structured_normal,structured_incentive,random","2,3,1,2","",""
"null","","html-keyboard-response","135","202188","0.0-64.0","3XC1O3LBOT8PRW3OLAEB7NJ2TQXTLP","A2XQ3CFB5HT2ZQ","39N6W9XWRD9306QNTNZSDTAN4LJGYK","","<img src=""img/set1/S3.jpg"" width=""540"" height = ""360"" style=""border:16px solid orange"">","null","","","","","","","",""
"null","","html-keyboard-response","136","202197","0.0-65.0","3XC1O3LBOT8PRW3OLAEB7NJ2TQXTLP","A2XQ3CFB5HT2ZQ","39N6W9XWRD9306QNTNZSDTAN4LJGYK","","","null","","","","","","","",""
"840.8000000119209","","image-keyboard-response","137","203041","0.0-66.0","3XC1O3LBOT8PRW3OLAEB7NJ2TQXTLP","A2XQ3CFB5HT2ZQ","39N6W9XWRD9306QNTNZSDTAN4LJGYK","","img/set1/S2.jpg","68","2","structured_normal","68","true","structured_normal,structured_incentive,random","2,3,1,2","",""
"null","","html-keyboard-response","138","203407","0.0-67.0","3XC1O3LBOT8PRW3OLAEB7NJ2TQXTLP","A2XQ3CFB5HT2ZQ","39N6W9XWRD9306QNTNZSDTAN4LJGYK","","<img src=""img/set1/S2.jpg"" width=""540"" height = ""360"" style=""border:16px solid orange"">","null","","","","","","","",""
"null","","html-keyboard-response","139","203413","0.0-68.0","3XC1O3LBOT8PRW3OLAEB7NJ2TQXTLP","A2XQ3CFB5HT2ZQ","39N6W9XWRD9306QNTNZSDTAN4LJGYK","","","null","","","","","","","",""
"806.6999999880791","","image-keyboard-response","140","204221","0.0-69.0","3XC1O3LBOT8PRW3OLAEB7NJ2TQXTLP","A2XQ3CFB5HT2ZQ","39N6W9XWRD9306QNTNZSDTAN4LJGYK","","img/set1/S3.jpg","72","3","structured_normal","72","true","structured_normal,structured_incentive,random","2,3,1,2","",""
"null","","html-keyboard-response","141","204587","0.0-70.0","3XC1O3LBOT8PRW3OLAEB7NJ2TQXTLP","A2XQ3CFB5HT2ZQ","39N6W9XWRD9306QNTNZSDTAN4LJGYK","","<img src=""img/set1/S3.jpg"" width=""540"" height = ""360"" style=""border:16px solid orange"">","null","","","","","","","",""
"null","","html-keyboard-response","142","204592","0.0-71.0","3XC1O3LBOT8PRW3OLAEB7NJ2TQXTLP","A2XQ3CFB5HT2ZQ","39N6W9XWRD9306QNTNZSDTAN4LJGYK","","","null","","","","","","","",""
"874.2000000476837","","image-keyboard-response","143","205468","0.0-72.0","3XC1O3LBOT8PRW3OLAEB7NJ2TQXTLP","A2XQ3CFB5HT2ZQ","39N6W9XWRD9306QNTNZSDTAN4LJGYK","","img/set1/S4.jpg","74","4","structured_normal","74","true","structured_normal,structured_incentive,random","2,3,1,2","",""
"null","","html-keyboard-response","144","205822","0.0-73.0","3XC1O3LBOT8PRW3OLAEB7NJ2TQXTLP","A2XQ3CFB5HT2ZQ","39N6W9XWRD9306QNTNZSDTAN4LJGYK","","<img src=""img/set1/S4.jpg"" width=""540"" height = ""360"" style=""border:16px solid orange"">","null","","","","","","","",""
"null","","html-keyboard-response","145","205827","0.0-74.0","3XC1O3LBOT8PRW3OLAEB7NJ2TQXTLP","A2XQ3CFB5HT2ZQ","39N6W9XWRD9306QNTNZSDTAN4LJGYK","","","null","","","","","","","",""
"659.5","","image-keyboard-response","146","206488","0.0-75.0","3XC1O3LBOT8PRW3OLAEB7NJ2TQXTLP","A2XQ3CFB5HT2ZQ","39N6W9XWRD9306QNTNZSDTAN4LJGYK","","img/set1/S1.jpg","83","1","structured_normal","83","true","structured_normal,structured_incentive,random","2,3,1,2","",""
"null","","html-keyboard-response","147","206843","0.0-76.0","3XC1O3LBOT8PRW3OLAEB7NJ2TQXTLP","A2XQ3CFB5HT2ZQ","39N6W9XWRD9306QNTNZSDTAN4LJGYK","","<img src=""img/set1/S1.jpg"" width=""540"" height = ""360"" style=""border:16px solid orange"">","null","","","","","","","",""
"null","","html-keyboard-response","148","206848","0.0-77.0","3XC1O3LBOT8PRW3OLAEB7NJ2TQXTLP","A2XQ3CFB5HT2ZQ","39N6W9XWRD9306QNTNZSDTAN4LJGYK","","","null","","","","","","","",""
"682","","image-keyboard-response","149","207532","0.0-78.0","3XC1O3LBOT8PRW3OLAEB7NJ2TQXTLP","A2XQ3CFB5HT2ZQ","39N6W9XWRD9306QNTNZSDTAN4LJGYK","","img/set1/S2.jpg","68","2","structured_normal","68","true","structured_normal,structured_incentive,random","2,3,1,2","",""
"null","","html-keyboard-response","150","207895","0.0-79.0","3XC1O3LBOT8PRW3OLAEB7NJ2TQXTLP","A2XQ3CFB5HT2ZQ","39N6W9XWRD9306QNTNZSDTAN4LJGYK","","<img src=""img/set1/S2.jpg"" width=""540"" height = ""360"" style=""border:16px solid orange"">","null","","","","","","","",""
"null","","html-keyboard-response","151","207900","0.0-80.0","3XC1O3LBOT8PRW3OLAEB7NJ2TQXTLP","A2XQ3CFB5HT2ZQ","39N6W9XWRD9306QNTNZSDTAN4LJGYK","","","null","","","","","","","",""
"699.6999999880791","","image-keyboard-response","152","208601","0.0-81.0","3XC1O3LBOT8PRW3OLAEB7NJ2TQXTLP","A2XQ3CFB5HT2ZQ","39N6W9XWRD9306QNTNZSDTAN4LJGYK","","img/set1/S3.jpg","72","3","structured_normal","72","true","structured_normal,structured_incentive,random","2,3,1,2","",""
"null","","html-keyboard-response","153","208962","0.0-82.0","3XC1O3LBOT8PRW3OLAEB7NJ2TQXTLP","A2XQ3CFB5HT2ZQ","39N6W9XWRD9306QNTNZSDTAN4LJGYK","","<img src=""img/set1/S3.jpg"" width=""540"" height = ""360"" style=""border:16px solid orange"">","null","","","","","","","",""
"null","","html-keyboard-response","154","208967","0.0-83.0","3XC1O3LBOT8PRW3OLAEB7NJ2TQXTLP","A2XQ3CFB5HT2ZQ","39N6W9XWRD9306QNTNZSDTAN4LJGYK","","","null","","","","","","","",""
"619","","image-keyboard-response","155","209588","0.0-84.0","3XC1O3LBOT8PRW3OLAEB7NJ2TQXTLP","A2XQ3CFB5HT2ZQ","39N6W9XWRD9306QNTNZSDTAN4LJGYK","","img/set1/S1.jpg","83","1","structured_normal","83","true","structured_normal,structured_incentive,random","2,3,1,2","",""
"null","","html-keyboard-response","156","209956","0.0-85.0","3XC1O3LBOT8PRW3OLAEB7NJ2TQXTLP","A2XQ3CFB5HT2ZQ","39N6W9XWRD9306QNTNZSDTAN4LJGYK","","<img src=""img/set1/S1.jpg"" width=""540"" height = ""360"" style=""border:16px solid orange"">","null","","","","","","","",""
"null","","html-keyboard-response","157","209960","0.0-86.0","3XC1O3LBOT8PRW3OLAEB7NJ2TQXTLP","A2XQ3CFB5HT2ZQ","39N6W9XWRD9306QNTNZSDTAN4LJGYK","","","null","","","","","","","",""
"775.5","","image-keyboard-response","158","210737","0.0-87.0","3XC1O3LBOT8PRW3OLAEB7NJ2TQXTLP","A2XQ3CFB5HT2ZQ","39N6W9XWRD9306QNTNZSDTAN4LJGYK","","img/set1/S2.jpg","68","2","structured_normal","68","true","structured_normal,structured_incentive,random","2,3,1,2","",""
"null","","html-keyboard-response","159","211101","0.0-88.0","3XC1O3LBOT8PRW3OLAEB7NJ2TQXTLP","A2XQ3CFB5HT2ZQ","39N6W9XWRD9306QNTNZSDTAN4LJGYK","","<img src=""img/set1/S2.jpg"" width=""540"" height = ""360"" style=""border:16px solid orange"">","null","","","","","","","",""
"null","","html-keyboard-response","160","211106","0.0-89.0","3XC1O3LBOT8PRW3OLAEB7NJ2TQXTLP","A2XQ3CFB5HT2ZQ","39N6W9XWRD9306QNTNZSDTAN4LJGYK","","","null","","","","","","","",""
"671.6000000238419","","image-keyboard-response","161","211779","0.0-90.0","3XC1O3LBOT8PRW3OLAEB7NJ2TQXTLP","A2XQ3CFB5HT2ZQ","39N6W9XWRD9306QNTNZSDTAN4LJGYK","","img/set1/S4.jpg","74","4","structured_normal","74","true","structured_normal,structured_incentive,random","2,3,1,2","",""
"null","","html-keyboard-response","162","212137","0.0-91.0","3XC1O3LBOT8PRW3OLAEB7NJ2TQXTLP","A2XQ3CFB5HT2ZQ","39N6W9XWRD9306QNTNZSDTAN4LJGYK","","<img src=""img/set1/S4.jpg"" width=""540"" height = ""360"" style=""border:16px solid orange"">","null","","","","","","","",""
"null","","html-keyboard-response","163","212141","0.0-92.0","3XC1O3LBOT8PRW3OLAEB7NJ2TQXTLP","A2XQ3CFB5HT2ZQ","39N6W9XWRD9306QNTNZSDTAN4LJGYK","","","null","","","","","","","",""
"617.5","","image-keyboard-response","164","212760","0.0-93.0","3XC1O3LBOT8PRW3OLAEB7NJ2TQXTLP","A2XQ3CFB5HT2ZQ","39N6W9XWRD9306QNTNZSDTAN4LJGYK","","img/set1/S1.jpg","83","1","structured_normal","83","true","structured_normal,structured_incentive,random","2,3,1,2","",""
"null","","html-keyboard-response","165","213126","0.0-94.0","3XC1O3LBOT8PRW3OLAEB7NJ2TQXTLP","A2XQ3CFB5HT2ZQ","39N6W9XWRD9306QNTNZSDTAN4LJGYK","","<img src=""img/set1/S1.jpg"" width=""540"" height = ""360"" style=""border:16px solid orange"">","null","","","","","","","",""
"null","","html-keyboard-response","166","213131","0.0-95.0","3XC1O3LBOT8PRW3OLAEB7NJ2TQXTLP","A2XQ3CFB5HT2ZQ","39N6W9XWRD9306QNTNZSDTAN4LJGYK","","","null","","","","","","","",""
"881.6999999880791","","image-keyboard-response","167","214015","0.0-96.0","3XC1O3LBOT8PRW3OLAEB7NJ2TQXTLP","A2XQ3CFB5HT2ZQ","39N6W9XWRD9306QNTNZSDTAN4LJGYK","","img/set1/S2.jpg","68","2","structured_normal","68","true","structured_normal,structured_incentive,random","2,3,1,2","",""
"null","","html-keyboard-response","168","214381","0.0-97.0","3XC1O3LBOT8PRW3OLAEB7NJ2TQXTLP","A2XQ3CFB5HT2ZQ","39N6W9XWRD9306QNTNZSDTAN4LJGYK","","<img src=""img/set1/S2.jpg"" width=""540"" height = ""360"" style=""border:16px solid orange"">","null","","","","","","","",""
"null","","html-keyboard-response","169","214389","0.0-98.0","3XC1O3LBOT8PRW3OLAEB7NJ2TQXTLP","A2XQ3CFB5HT2ZQ","39N6W9XWRD9306QNTNZSDTAN4LJGYK","","","null","","","","","","","",""
"602.1999999880791","","image-keyboard-response","170","214996","0.0-99.0","3XC1O3LBOT8PRW3OLAEB7NJ2TQXTLP","A2XQ3CFB5HT2ZQ","39N6W9XWRD9306QNTNZSDTAN4LJGYK","","img/set1/S4.jpg","74","4","structured_normal","74","true","structured_normal,structured_incentive,random","2,3,1,2","",""
"null","","html-keyboard-response","171","215357","0.0-100.0","3XC1O3LBOT8PRW3OLAEB7NJ2TQXTLP","A2XQ3CFB5HT2ZQ","39N6W9XWRD9306QNTNZSDTAN4LJGYK","","<img src=""img/set1/S4.jpg"" width=""540"" height = ""360"" style=""border:16px solid orange"">","null","","","","","","","",""
"null","","html-keyboard-response","172","215365","0.0-101.0","3XC1O3LBOT8PRW3OLAEB7NJ2TQXTLP","A2XQ3CFB5HT2ZQ","39N6W9XWRD9306QNTNZSDTAN4LJGYK","","","null","","","","","","","",""
"519.5","","image-keyboard-response","173","215887","0.0-102.0","3XC1O3LBOT8PRW3OLAEB7NJ2TQXTLP","A2XQ3CFB5HT2ZQ","39N6W9XWRD9306QNTNZSDTAN4LJGYK","","img/set1/S4.jpg","74","4","structured_normal","74","true","structured_normal,structured_incentive,random","2,3,1,2","",""
"null","","html-keyboard-response","174","216240","0.0-103.0","3XC1O3LBOT8PRW3OLAEB7NJ2TQXTLP","A2XQ3CFB5HT2ZQ","39N6W9XWRD9306QNTNZSDTAN4LJGYK","","<img src=""img/set1/S4.jpg"" width=""540"" height = ""360"" style=""border:16px solid orange"">","null","","","","","","","",""
"null","","html-keyboard-response","175","216245","0.0-104.0","3XC1O3LBOT8PRW3OLAEB7NJ2TQXTLP","A2XQ3CFB5HT2ZQ","39N6W9XWRD9306QNTNZSDTAN4LJGYK","","","null","","","","","","","",""
"679.0999999642372","","image-keyboard-response","176","216925","0.0-105.0","3XC1O3LBOT8PRW3OLAEB7NJ2TQXTLP","A2XQ3CFB5HT2ZQ","39N6W9XWRD9306QNTNZSDTAN4LJGYK","","img/set1/S1.jpg","83","1","structured_normal","83","true","structured_normal,structured_incentive,random","2,3,1,2","",""
"null","","html-keyboard-response","177","217291","0.0-106.0","3XC1O3LBOT8PRW3OLAEB7NJ2TQXTLP","A2XQ3CFB5HT2ZQ","39N6W9XWRD9306QNTNZSDTAN4LJGYK","","<img src=""img/set1/S1.jpg"" width=""540"" height = ""360"" style=""border:16px solid orange"">","null","","","","","","","",""
"null","","html-keyboard-response","178","217297","0.0-107.0","3XC1O3LBOT8PRW3OLAEB7NJ2TQXTLP","A2XQ3CFB5HT2ZQ","39N6W9XWRD9306QNTNZSDTAN4LJGYK","","","null","","","","","","","",""
"958.4000000357628","","image-keyboard-response","179","218257","0.0-108.0","3XC1O3LBOT8PRW3OLAEB7NJ2TQXTLP","A2XQ3CFB5HT2ZQ","39N6W9XWRD9306QNTNZSDTAN4LJGYK","","img/set1/S2.jpg","68","2","structured_normal","68","true","structured_normal,structured_incentive,random","2,3,1,2","",""
"null","","html-keyboard-response","180","218622","0.0-109.0","3XC1O3LBOT8PRW3OLAEB7NJ2TQXTLP","A2XQ3CFB5HT2ZQ","39N6W9XWRD9306QNTNZSDTAN4LJGYK","","<img src=""img/set1/S2.jpg"" width=""540"" height = ""360"" style=""border:16px solid orange"">","null","","","","","","","",""
"null","","html-keyboard-response","181","218627","0.0-110.0","3XC1O3LBOT8PRW3OLAEB7NJ2TQXTLP","A2XQ3CFB5HT2ZQ","39N6W9XWRD9306QNTNZSDTAN4LJGYK","","","null","","","","","","","",""
"741.1000000238419","","image-keyboard-response","182","219370","0.0-111.0","3XC1O3LBOT8PRW3OLAEB7NJ2TQXTLP","A2XQ3CFB5HT2ZQ","39N6W9XWRD9306QNTNZSDTAN4LJGYK","","img/set1/S3.jpg","74","3","structured_normal","72","false","structured_normal,structured_incentive,random","2,3,1,2","",""
"null","","html-keyboard-response","183","219737","0.0-112.0","3XC1O3LBOT8PRW3OLAEB7NJ2TQXTLP","A2XQ3CFB5HT2ZQ","39N6W9XWRD9306QNTNZSDTAN4LJGYK","","<img src=""img/set1/S3.jpg"" width=""540"" height = ""360"">","null","","","","","","","",""
"null","","html-keyboard-response","184","219742","0.0-113.0","3XC1O3LBOT8PRW3OLAEB7NJ2TQXTLP","A2XQ3CFB5HT2ZQ","39N6W9XWRD9306QNTNZSDTAN4LJGYK","","","null","","","","","","","",""
"775.1999999880791","","image-keyboard-response","185","220519","0.0-114.0","3XC1O3LBOT8PRW3OLAEB7NJ2TQXTLP","A2XQ3CFB5HT2ZQ","39N6W9XWRD9306QNTNZSDTAN4LJGYK","","img/set1/S2.jpg","68","2","structured_normal","68","true","structured_normal,structured_incentive,random","2,3,1,2","",""
"null","","html-keyboard-response","186","220874","0.0-115.0","3XC1O3LBOT8PRW3OLAEB7NJ2TQXTLP","A2XQ3CFB5HT2ZQ","39N6W9XWRD9306QNTNZSDTAN4LJGYK","","<img src=""img/set1/S2.jpg"" width=""540"" height = ""360"" style=""border:16px solid orange"">","null","","","","","","","",""
"null","","html-keyboard-response","187","220879","0.0-116.0","3XC1O3LBOT8PRW3OLAEB7NJ2TQXTLP","A2XQ3CFB5HT2ZQ","39N6W9XWRD9306QNTNZSDTAN4LJGYK","","","null","","","","","","","",""
"614.5","","image-keyboard-response","188","221495","0.0-117.0","3XC1O3LBOT8PRW3OLAEB7NJ2TQXTLP","A2XQ3CFB5HT2ZQ","39N6W9XWRD9306QNTNZSDTAN4LJGYK","","img/set1/S3.jpg","72","3","structured_normal","72","true","structured_normal,structured_incentive,random","2,3,1,2","",""
"null","","html-keyboard-response","189","221862","0.0-118.0","3XC1O3LBOT8PRW3OLAEB7NJ2TQXTLP","A2XQ3CFB5HT2ZQ","39N6W9XWRD9306QNTNZSDTAN4LJGYK","","<img src=""img/set1/S3.jpg"" width=""540"" height = ""360"" style=""border:16px solid orange"">","null","","","","","","","",""
"null","","html-keyboard-response","190","221868","0.0-119.0","3XC1O3LBOT8PRW3OLAEB7NJ2TQXTLP","A2XQ3CFB5HT2ZQ","39N6W9XWRD9306QNTNZSDTAN4LJGYK","","","null","","","","","","","",""
"768.7999999523163","","image-keyboard-response","191","222638","0.0-120.0","3XC1O3LBOT8PRW3OLAEB7NJ2TQXTLP","A2XQ3CFB5HT2ZQ","39N6W9XWRD9306QNTNZSDTAN4LJGYK","","img/set1/S1.jpg","83","1","structured_normal","83","true","structured_normal,structured_incentive,random","2,3,1,2","",""
"null","","html-keyboard-response","192","222991","0.0-121.0","3XC1O3LBOT8PRW3OLAEB7NJ2TQXTLP","A2XQ3CFB5HT2ZQ","39N6W9XWRD9306QNTNZSDTAN4LJGYK","","<img src=""img/set1/S1.jpg"" width=""540"" height = ""360"" style=""border:16px solid orange"">","null","","","","","","","",""
"null","","html-keyboard-response","193","222996","0.0-122.0","3XC1O3LBOT8PRW3OLAEB7NJ2TQXTLP","A2XQ3CFB5HT2ZQ","39N6W9XWRD9306QNTNZSDTAN4LJGYK","","","null","","","","","","","",""
"568","","image-keyboard-response","194","223566","0.0-123.0","3XC1O3LBOT8PRW3OLAEB7NJ2TQXTLP","A2XQ3CFB5HT2ZQ","39N6W9XWRD9306QNTNZSDTAN4LJGYK","","img/set1/S1.jpg","83","1","structured_normal","83","true","structured_normal,structured_incentive,random","2,3,1,2","",""
"null","","html-keyboard-response","195","223922","0.0-124.0","3XC1O3LBOT8PRW3OLAEB7NJ2TQXTLP","A2XQ3CFB5HT2ZQ","39N6W9XWRD9306QNTNZSDTAN4LJGYK","","<img src=""img/set1/S1.jpg"" width=""540"" height = ""360"" style=""border:16px solid orange"">","null","","","","","","","",""
"null","","html-keyboard-response","196","223927","0.0-125.0","3XC1O3LBOT8PRW3OLAEB7NJ2TQXTLP","A2XQ3CFB5HT2ZQ","39N6W9XWRD9306QNTNZSDTAN4LJGYK","","","null","","","","","","","",""
"479.0999999642372","","image-keyboard-response","197","224408","0.0-126.0","3XC1O3LBOT8PRW3OLAEB7NJ2TQXTLP","A2XQ3CFB5HT2ZQ","39N6W9XWRD9306QNTNZSDTAN4LJGYK","","img/set1/S1.jpg","83","1","structured_normal","83","true","structured_normal,structured_incentive,random","2,3,1,2","",""
"null","","html-keyboard-response","198","224773","0.0-127.0","3XC1O3LBOT8PRW3OLAEB7NJ2TQXTLP","A2XQ3CFB5HT2ZQ","39N6W9XWRD9306QNTNZSDTAN4LJGYK","","<img src=""img/set1/S1.jpg"" width=""540"" height = ""360"" style=""border:16px solid orange"">","null","","","","","","","",""
"null","","html-keyboard-response","199","224782","0.0-128.0","3XC1O3LBOT8PRW3OLAEB7NJ2TQXTLP","A2XQ3CFB5HT2ZQ","39N6W9XWRD9306QNTNZSDTAN4LJGYK","","","null","","","","","","","",""
"679.8999999761581","","image-keyboard-response","200","225464","0.0-129.0","3XC1O3LBOT8PRW3OLAEB7NJ2TQXTLP","A2XQ3CFB5HT2ZQ","39N6W9XWRD9306QNTNZSDTAN4LJGYK","","img/set1/S4.jpg","74","4","structured_normal","74","true","structured_normal,structured_incentive,random","2,3,1,2","",""
"null","","html-keyboard-response","201","225820","0.0-130.0","3XC1O3LBOT8PRW3OLAEB7NJ2TQXTLP","A2XQ3CFB5HT2ZQ","39N6W9XWRD9306QNTNZSDTAN4LJGYK","","<img src=""img/set1/S4.jpg"" width=""540"" height = ""360"" style=""border:16px solid orange"">","null","","","","","","","",""
"null","","html-keyboard-response","202","225826","0.0-131.0","3XC1O3LBOT8PRW3OLAEB7NJ2TQXTLP","A2XQ3CFB5HT2ZQ","39N6W9XWRD9306QNTNZSDTAN4LJGYK","","","null","","","","","","","",""
"506.5999999642372","","image-keyboard-response","203","226334","0.0-132.0","3XC1O3LBOT8PRW3OLAEB7NJ2TQXTLP","A2XQ3CFB5HT2ZQ","39N6W9XWRD9306QNTNZSDTAN4LJGYK","","img/set1/S4.jpg","74","4","structured_normal","74","true","structured_normal,structured_incentive,random","2,3,1,2","",""
"null","","html-keyboard-response","204","226701","0.0-133.0","3XC1O3LBOT8PRW3OLAEB7NJ2TQXTLP","A2XQ3CFB5HT2ZQ","39N6W9XWRD9306QNTNZSDTAN4LJGYK","","<img src=""img/set1/S4.jpg"" width=""540"" height = ""360"" style=""border:16px solid orange"">","null","","","","","","","",""
"null","","html-keyboard-response","205","226707","0.0-134.0","3XC1O3LBOT8PRW3OLAEB7NJ2TQXTLP","A2XQ3CFB5HT2ZQ","39N6W9XWRD9306QNTNZSDTAN4LJGYK","","","null","","","","","","","",""
"604.1000000238419","","image-keyboard-response","206","227314","0.0-135.0","3XC1O3LBOT8PRW3OLAEB7NJ2TQXTLP","A2XQ3CFB5HT2ZQ","39N6W9XWRD9306QNTNZSDTAN4LJGYK","","img/set1/S2.jpg","68","2","structured_normal","68","true","structured_normal,structured_incentive,random","2,3,1,2","",""
"null","","html-keyboard-response","207","227675","0.0-136.0","3XC1O3LBOT8PRW3OLAEB7NJ2TQXTLP","A2XQ3CFB5HT2ZQ","39N6W9XWRD9306QNTNZSDTAN4LJGYK","","<img src=""img/set1/S2.jpg"" width=""540"" height = ""360"" style=""border:16px solid orange"">","null","","","","","","","",""
"null","","html-keyboard-response","208","227679","0.0-137.0","3XC1O3LBOT8PRW3OLAEB7NJ2TQXTLP","A2XQ3CFB5HT2ZQ","39N6W9XWRD9306QNTNZSDTAN4LJGYK","","","null","","","","","","","",""
"829.2999999523163","","image-keyboard-response","209","228510","0.0-138.0","3XC1O3LBOT8PRW3OLAEB7NJ2TQXTLP","A2XQ3CFB5HT2ZQ","39N6W9XWRD9306QNTNZSDTAN4LJGYK","","img/set1/S3.jpg","74","3","structured_normal","72","false","structured_normal,structured_incentive,random","2,3,1,2","",""
"null","","html-keyboard-response","210","228873","0.0-139.0","3XC1O3LBOT8PRW3OLAEB7NJ2TQXTLP","A2XQ3CFB5HT2ZQ","39N6W9XWRD9306QNTNZSDTAN4LJGYK","","<img src=""img/set1/S3.jpg"" width=""540"" height = ""360"">","null","","","","","","","",""
"null","","html-keyboard-response","211","228879","0.0-140.0","3XC1O3LBOT8PRW3OLAEB7NJ2TQXTLP","A2XQ3CFB5HT2ZQ","39N6W9XWRD9306QNTNZSDTAN4LJGYK","","","null","","","","","","","",""
"775.7999999523163","","image-keyboard-response","212","229656","0.0-141.0","3XC1O3LBOT8PRW3OLAEB7NJ2TQXTLP","A2XQ3CFB5HT2ZQ","39N6W9XWRD9306QNTNZSDTAN4LJGYK","","img/set1/S4.jpg","74","4","structured_normal","74","true","structured_normal,structured_incentive,random","2,3,1,2","",""
"null","","html-keyboard-response","213","230018","0.0-142.0","3XC1O3LBOT8PRW3OLAEB7NJ2TQXTLP","A2XQ3CFB5HT2ZQ","39N6W9XWRD9306QNTNZSDTAN4LJGYK","","<img src=""img/set1/S4.jpg"" width=""540"" height = ""360"" style=""border:16px solid orange"">","null","","","","","","","",""
"null","","html-keyboard-response","214","230026","0.0-143.0","3XC1O3LBOT8PRW3OLAEB7NJ2TQXTLP","A2XQ3CFB5HT2ZQ","39N6W9XWRD9306QNTNZSDTAN4LJGYK","","","null","","","","","","","",""
"644.1000000238419","","image-keyboard-response","215","230672","0.0-144.0","3XC1O3LBOT8PRW3OLAEB7NJ2TQXTLP","A2XQ3CFB5HT2ZQ","39N6W9XWRD9306QNTNZSDTAN4LJGYK","","img/set1/S1.jpg","83","1","structured_normal","83","true","structured_normal,structured_incentive,random","2,3,1,2","",""
"null","","html-keyboard-response","216","231034","0.0-145.0","3XC1O3LBOT8PRW3OLAEB7NJ2TQXTLP","A2XQ3CFB5HT2ZQ","39N6W9XWRD9306QNTNZSDTAN4LJGYK","","<img src=""img/set1/S1.jpg"" width=""540"" height = ""360"" style=""border:16px solid orange"">","null","","","","","","","",""
"null","","html-keyboard-response","217","231040","0.0-146.0","3XC1O3LBOT8PRW3OLAEB7NJ2TQXTLP","A2XQ3CFB5HT2ZQ","39N6W9XWRD9306QNTNZSDTAN4LJGYK","","","null","","","","","","","",""
"706.5","","image-keyboard-response","218","231748","0.0-147.0","3XC1O3LBOT8PRW3OLAEB7NJ2TQXTLP","A2XQ3CFB5HT2ZQ","39N6W9XWRD9306QNTNZSDTAN4LJGYK","","img/set1/S2.jpg","68","2","structured_normal","68","true","structured_normal,structured_incentive,random","2,3,1,2","",""
"null","","html-keyboard-response","219","232104","0.0-148.0","3XC1O3LBOT8PRW3OLAEB7NJ2TQXTLP","A2XQ3CFB5HT2ZQ","39N6W9XWRD9306QNTNZSDTAN4LJGYK","","<img src=""img/set1/S2.jpg"" width=""540"" height = ""360"" style=""border:16px solid orange"">","null","","","","","","","",""
"null","","html-keyboard-response","220","232109","0.0-149.0","3XC1O3LBOT8PRW3OLAEB7NJ2TQXTLP","A2XQ3CFB5HT2ZQ","39N6W9XWRD9306QNTNZSDTAN4LJGYK","","","null","","","","","","","",""
"653.1000000238419","","image-keyboard-response","221","232764","0.0-150.0","3XC1O3LBOT8PRW3OLAEB7NJ2TQXTLP","A2XQ3CFB5HT2ZQ","39N6W9XWRD9306QNTNZSDTAN4LJGYK","","img/set1/S3.jpg","72","3","structured_normal","72","true","structured_normal,structured_incentive,random","2,3,1,2","",""
"null","","html-keyboard-response","222","233126","0.0-151.0","3XC1O3LBOT8PRW3OLAEB7NJ2TQXTLP","A2XQ3CFB5HT2ZQ","39N6W9XWRD9306QNTNZSDTAN4LJGYK","","<img src=""img/set1/S3.jpg"" width=""540"" height = ""360"" style=""border:16px solid orange"">","null","","","","","","","",""
"null","","html-keyboard-response","223","233131","0.0-152.0","3XC1O3LBOT8PRW3OLAEB7NJ2TQXTLP","A2XQ3CFB5HT2ZQ","39N6W9XWRD9306QNTNZSDTAN4LJGYK","","","null","","","","","","","",""
"596.6999999880791","","image-keyboard-response","224","233730","0.0-153.0","3XC1O3LBOT8PRW3OLAEB7NJ2TQXTLP","A2XQ3CFB5HT2ZQ","39N6W9XWRD9306QNTNZSDTAN4LJGYK","","img/set1/S1.jpg","83","1","structured_normal","83","true","structured_normal,structured_incentive,random","2,3,1,2","",""
"null","","html-keyboard-response","225","234084","0.0-154.0","3XC1O3LBOT8PRW3OLAEB7NJ2TQXTLP","A2XQ3CFB5HT2ZQ","39N6W9XWRD9306QNTNZSDTAN4LJGYK","","<img src=""img/set1/S1.jpg"" width=""540"" height = ""360"" style=""border:16px solid orange"">","null","","","","","","","",""
"null","","html-keyboard-response","226","234089","0.0-155.0","3XC1O3LBOT8PRW3OLAEB7NJ2TQXTLP","A2XQ3CFB5HT2ZQ","39N6W9XWRD9306QNTNZSDTAN4LJGYK","","","null","","","","","","","",""
"684.4000000357628","","image-keyboard-response","227","234775","0.0-156.0","3XC1O3LBOT8PRW3OLAEB7NJ2TQXTLP","A2XQ3CFB5HT2ZQ","39N6W9XWRD9306QNTNZSDTAN4LJGYK","","img/set1/S4.jpg","72","4","structured_normal","74","false","structured_normal,structured_incentive,random","2,3,1,2","",""
"null","","html-keyboard-response","228","235140","0.0-157.0","3XC1O3LBOT8PRW3OLAEB7NJ2TQXTLP","A2XQ3CFB5HT2ZQ","39N6W9XWRD9306QNTNZSDTAN4LJGYK","","<img src=""img/set1/S4.jpg"" width=""540"" height = ""360"">","null","","","","","","","",""
"null","","html-keyboard-response","229","235146","0.0-158.0","3XC1O3LBOT8PRW3OLAEB7NJ2TQXTLP","A2XQ3CFB5HT2ZQ","39N6W9XWRD9306QNTNZSDTAN4LJGYK","","","null","","","","","","","",""
"1051.199999988079","","image-keyboard-response","230","236200","0.0-159.0","3XC1O3LBOT8PRW3OLAEB7NJ2TQXTLP","A2XQ3CFB5HT2ZQ","39N6W9XWRD9306QNTNZSDTAN4LJGYK","","img/set1/S1.jpg","83","1","structured_normal","83","true","structured_normal,structured_incentive,random","2,3,1,2","",""
"null","","html-keyboard-response","231","236563","0.0-160.0","3XC1O3LBOT8PRW3OLAEB7NJ2TQXTLP","A2XQ3CFB5HT2ZQ","39N6W9XWRD9306QNTNZSDTAN4LJGYK","","<img src=""img/set1/S1.jpg"" width=""540"" height = ""360"" style=""border:16px solid orange"">","null","","","","","","","",""
"null","","html-keyboard-response","232","236569","0.0-161.0","3XC1O3LBOT8PRW3OLAEB7NJ2TQXTLP","A2XQ3CFB5HT2ZQ","39N6W9XWRD9306QNTNZSDTAN4LJGYK","","","null","","","","","","","",""
"565","","image-keyboard-response","233","237136","0.0-162.0","3XC1O3LBOT8PRW3OLAEB7NJ2TQXTLP","A2XQ3CFB5HT2ZQ","39N6W9XWRD9306QNTNZSDTAN4LJGYK","","img/set1/S4.jpg","72","4","structured_normal","74","false","structured_normal,structured_incentive,random","2,3,1,2","",""
"null","","html-keyboard-response","234","237503","0.0-163.0","3XC1O3LBOT8PRW3OLAEB7NJ2TQXTLP","A2XQ3CFB5HT2ZQ","39N6W9XWRD9306QNTNZSDTAN4LJGYK","","<img src=""img/set1/S4.jpg"" width=""540"" height = ""360"">","null","","","","","","","",""
"null","","html-keyboard-response","235","237508","0.0-164.0","3XC1O3LBOT8PRW3OLAEB7NJ2TQXTLP","A2XQ3CFB5HT2ZQ","39N6W9XWRD9306QNTNZSDTAN4LJGYK","","","null","","","","","","","",""
"660.1000000238419","","image-keyboard-response","236","238170","0.0-165.0","3XC1O3LBOT8PRW3OLAEB7NJ2TQXTLP","A2XQ3CFB5HT2ZQ","39N6W9XWRD9306QNTNZSDTAN4LJGYK","","img/set1/S1.jpg","83","1","structured_normal","83","true","structured_normal,structured_incentive,random","2,3,1,2","",""
"null","","html-keyboard-response","237","238524","0.0-166.0","3XC1O3LBOT8PRW3OLAEB7NJ2TQXTLP","A2XQ3CFB5HT2ZQ","39N6W9XWRD9306QNTNZSDTAN4LJGYK","","<img src=""img/set1/S1.jpg"" width=""540"" height = ""360"" style=""border:16px solid orange"">","null","","","","","","","",""
"null","","html-keyboard-response","238","238529","0.0-167.0","3XC1O3LBOT8PRW3OLAEB7NJ2TQXTLP","A2XQ3CFB5HT2ZQ","39N6W9XWRD9306QNTNZSDTAN4LJGYK","","","null","","","","","","","",""
"642.3999999761581","","image-keyboard-response","239","239173","0.0-168.0","3XC1O3LBOT8PRW3OLAEB7NJ2TQXTLP","A2XQ3CFB5HT2ZQ","39N6W9XWRD9306QNTNZSDTAN4LJGYK","","img/set1/S4.jpg","72","4","structured_normal","74","false","structured_normal,structured_incentive,random","2,3,1,2","",""
"null","","html-keyboard-response","240","239529","0.0-169.0","3XC1O3LBOT8PRW3OLAEB7NJ2TQXTLP","A2XQ3CFB5HT2ZQ","39N6W9XWRD9306QNTNZSDTAN4LJGYK","","<img src=""img/set1/S4.jpg"" width=""540"" height = ""360"">","null","","","","","","","",""
"null","","html-keyboard-response","241","239534","0.0-170.0","3XC1O3LBOT8PRW3OLAEB7NJ2TQXTLP","A2XQ3CFB5HT2ZQ","39N6W9XWRD9306QNTNZSDTAN4LJGYK","","","null","","","","","","","",""
"672","","image-keyboard-response","242","240208","0.0-171.0","3XC1O3LBOT8PRW3OLAEB7NJ2TQXTLP","A2XQ3CFB5HT2ZQ","39N6W9XWRD9306QNTNZSDTAN4LJGYK","","img/set1/S1.jpg","83","1","structured_normal","83","true","structured_normal,structured_incentive,random","2,3,1,2","",""
"null","","html-keyboard-response","243","240567","0.0-172.0","3XC1O3LBOT8PRW3OLAEB7NJ2TQXTLP","A2XQ3CFB5HT2ZQ","39N6W9XWRD9306QNTNZSDTAN4LJGYK","","<img src=""img/set1/S1.jpg"" width=""540"" height = ""360"" style=""border:16px solid orange"">","null","","","","","","","",""
"null","","html-keyboard-response","244","240572","0.0-173.0","3XC1O3LBOT8PRW3OLAEB7NJ2TQXTLP","A2XQ3CFB5HT2ZQ","39N6W9XWRD9306QNTNZSDTAN4LJGYK","","","null","","","","","","","",""
"648.1000000238419","","image-keyboard-response","245","241222","0.0-174.0","3XC1O3LBOT8PRW3OLAEB7NJ2TQXTLP","A2XQ3CFB5HT2ZQ","39N6W9XWRD9306QNTNZSDTAN4LJGYK","","img/set1/S2.jpg","68","2","structured_normal","68","true","structured_normal,structured_incentive,random","2,3,1,2","",""
"null","","html-keyboard-response","246","241586","0.0-175.0","3XC1O3LBOT8PRW3OLAEB7NJ2TQXTLP","A2XQ3CFB5HT2ZQ","39N6W9XWRD9306QNTNZSDTAN4LJGYK","","<img src=""img/set1/S2.jpg"" width=""540"" height = ""360"" style=""border:16px solid orange"">","null","","","","","","","",""
"null","","html-keyboard-response","247","241591","0.0-176.0","3XC1O3LBOT8PRW3OLAEB7NJ2TQXTLP","A2XQ3CFB5HT2ZQ","39N6W9XWRD9306QNTNZSDTAN4LJGYK","","","null","","","","","","","",""
"496.4000000357628","","image-keyboard-response","248","242089","0.0-177.0","3XC1O3LBOT8PRW3OLAEB7NJ2TQXTLP","A2XQ3CFB5HT2ZQ","39N6W9XWRD9306QNTNZSDTAN4LJGYK","","img/set1/S4.jpg","74","4","structured_normal","74","true","structured_normal,structured_incentive,random","2,3,1,2","",""
"null","","html-keyboard-response","249","242450","0.0-178.0","3XC1O3LBOT8PRW3OLAEB7NJ2TQXTLP","A2XQ3CFB5HT2ZQ","39N6W9XWRD9306QNTNZSDTAN4LJGYK","","<img src=""img/set1/S4.jpg"" width=""540"" height = ""360"" style=""border:16px solid orange"">","null","","","","","","","",""
"null","","html-keyboard-response","250","242456","0.0-179.0","3XC1O3LBOT8PRW3OLAEB7NJ2TQXTLP","A2XQ3CFB5HT2ZQ","39N6W9XWRD9306QNTNZSDTAN4LJGYK","","","null","","","","","","","",""
"584.6999999880791","","image-keyboard-response","251","243042","0.0-180.0","3XC1O3LBOT8PRW3OLAEB7NJ2TQXTLP","A2XQ3CFB5HT2ZQ","39N6W9XWRD9306QNTNZSDTAN4LJGYK","","img/set1/S2.jpg","68","2","structured_normal","68","true","structured_normal,structured_incentive,random","2,3,1,2","",""
"null","","html-keyboard-response","252","243396","0.0-181.0","3XC1O3LBOT8PRW3OLAEB7NJ2TQXTLP","A2XQ3CFB5HT2ZQ","39N6W9XWRD9306QNTNZSDTAN4LJGYK","","<img src=""img/set1/S2.jpg"" width=""540"" height = ""360"" style=""border:16px solid orange"">","null","","","","","","","",""
"null","","html-keyboard-response","253","243404","0.0-182.0","3XC1O3LBOT8PRW3OLAEB7NJ2TQXTLP","A2XQ3CFB5HT2ZQ","39N6W9XWRD9306QNTNZSDTAN4LJGYK","","","null","","","","","","","",""
"572.3999999761581","","image-keyboard-response","254","243978","0.0-183.0","3XC1O3LBOT8PRW3OLAEB7NJ2TQXTLP","A2XQ3CFB5HT2ZQ","39N6W9XWRD9306QNTNZSDTAN4LJGYK","","img/set1/S3.jpg","74","3","structured_normal","72","false","structured_normal,structured_incentive,random","2,3,1,2","",""
"null","","html-keyboard-response","255","244339","0.0-184.0","3XC1O3LBOT8PRW3OLAEB7NJ2TQXTLP","A2XQ3CFB5HT2ZQ","39N6W9XWRD9306QNTNZSDTAN4LJGYK","","<img src=""img/set1/S3.jpg"" width=""540"" height = ""360"">","null","","","","","","","",""
"null","","html-keyboard-response","256","244344","0.0-185.0","3XC1O3LBOT8PRW3OLAEB7NJ2TQXTLP","A2XQ3CFB5HT2ZQ","39N6W9XWRD9306QNTNZSDTAN4LJGYK","","","null","","","","","","","",""
"600.8000000119209","","image-keyboard-response","257","244946","0.0-186.0","3XC1O3LBOT8PRW3OLAEB7NJ2TQXTLP","A2XQ3CFB5HT2ZQ","39N6W9XWRD9306QNTNZSDTAN4LJGYK","","img/set1/S1.jpg","83","1","structured_normal","83","true","structured_normal,structured_incentive,random","2,3,1,2","",""
"null","","html-keyboard-response","258","245313","0.0-187.0","3XC1O3LBOT8PRW3OLAEB7NJ2TQXTLP","A2XQ3CFB5HT2ZQ","39N6W9XWRD9306QNTNZSDTAN4LJGYK","","<img src=""img/set1/S1.jpg"" width=""540"" height = ""360"" style=""border:16px solid orange"">","null","","","","","","","",""
"null","","html-keyboard-response","259","245317","0.0-188.0","3XC1O3LBOT8PRW3OLAEB7NJ2TQXTLP","A2XQ3CFB5HT2ZQ","39N6W9XWRD9306QNTNZSDTAN4LJGYK","","","null","","","","","","","",""
"621.5999999642372","","image-keyboard-response","260","245940","0.0-189.0","3XC1O3LBOT8PRW3OLAEB7NJ2TQXTLP","A2XQ3CFB5HT2ZQ","39N6W9XWRD9306QNTNZSDTAN4LJGYK","","img/set1/S3.jpg","72","3","structured_normal","72","true","structured_normal,structured_incentive,random","2,3,1,2","",""
"null","","html-keyboard-response","261","246304","0.0-190.0","3XC1O3LBOT8PRW3OLAEB7NJ2TQXTLP","A2XQ3CFB5HT2ZQ","39N6W9XWRD9306QNTNZSDTAN4LJGYK","","<img src=""img/set1/S3.jpg"" width=""540"" height = ""360"" style=""border:16px solid orange"">","null","","","","","","","",""
"null","","html-keyboard-response","262","246309","0.0-191.0","3XC1O3LBOT8PRW3OLAEB7NJ2TQXTLP","A2XQ3CFB5HT2ZQ","39N6W9XWRD9306QNTNZSDTAN4LJGYK","","","null","","","","","","","",""
"758.5999999642372","","image-keyboard-response","263","247069","0.0-192.0","3XC1O3LBOT8PRW3OLAEB7NJ2TQXTLP","A2XQ3CFB5HT2ZQ","39N6W9XWRD9306QNTNZSDTAN4LJGYK","","img/set1/S4.jpg","74","4","structured_normal","74","true","structured_normal,structured_incentive,random","2,3,1,2","",""
"null","","html-keyboard-response","264","247435","0.0-193.0","3XC1O3LBOT8PRW3OLAEB7NJ2TQXTLP","A2XQ3CFB5HT2ZQ","39N6W9XWRD9306QNTNZSDTAN4LJGYK","","<img src=""img/set1/S4.jpg"" width=""540"" height = ""360"" style=""border:16px solid orange"">","null","","","","","","","",""
"null","","html-keyboard-response","265","247440","0.0-194.0","3XC1O3LBOT8PRW3OLAEB7NJ2TQXTLP","A2XQ3CFB5HT2ZQ","39N6W9XWRD9306QNTNZSDTAN4LJGYK","","","null","","","","","","","",""
"630.1000000238419","","image-keyboard-response","266","248072","0.0-195.0","3XC1O3LBOT8PRW3OLAEB7NJ2TQXTLP","A2XQ3CFB5HT2ZQ","39N6W9XWRD9306QNTNZSDTAN4LJGYK","","img/set1/S1.jpg","68","1","structured_normal","83","false","structured_normal,structured_incentive,random","2,3,1,2","",""
"null","","html-keyboard-response","267","248438","0.0-196.0","3XC1O3LBOT8PRW3OLAEB7NJ2TQXTLP","A2XQ3CFB5HT2ZQ","39N6W9XWRD9306QNTNZSDTAN4LJGYK","","<img src=""img/set1/S1.jpg"" width=""540"" height = ""360"">","null","","","","","","","",""
"null","","html-keyboard-response","268","248443","0.0-197.0","3XC1O3LBOT8PRW3OLAEB7NJ2TQXTLP","A2XQ3CFB5HT2ZQ","39N6W9XWRD9306QNTNZSDTAN4LJGYK","","","null","","","","","","","",""
"773.5","","image-keyboard-response","269","249218","0.0-198.0","3XC1O3LBOT8PRW3OLAEB7NJ2TQXTLP","A2XQ3CFB5HT2ZQ","39N6W9XWRD9306QNTNZSDTAN4LJGYK","","img/set1/S1.jpg","83","1","structured_normal","83","true","structured_normal,structured_incentive,random","2,3,1,2","",""
"null","","html-keyboard-response","270","249576","0.0-199.0","3XC1O3LBOT8PRW3OLAEB7NJ2TQXTLP","A2XQ3CFB5HT2ZQ","39N6W9XWRD9306QNTNZSDTAN4LJGYK","","<img src=""img/set1/S1.jpg"" width=""540"" height = ""360"" style=""border:16px solid orange"">","null","","","","","","","",""
"null","","html-keyboard-response","271","249581","0.0-200.0","3XC1O3LBOT8PRW3OLAEB7NJ2TQXTLP","A2XQ3CFB5HT2ZQ","39N6W9XWRD9306QNTNZSDTAN4LJGYK","","","null","","","","","","","",""
"442","","image-keyboard-response","272","250024","0.0-201.0","3XC1O3LBOT8PRW3OLAEB7NJ2TQXTLP","A2XQ3CFB5HT2ZQ","39N6W9XWRD9306QNTNZSDTAN4LJGYK","","img/set1/S1.jpg","83","1","structured_normal","83","true","structured_normal,structured_incentive,random","2,3,1,2","",""
"null","","html-keyboard-response","273","250386","0.0-202.0","3XC1O3LBOT8PRW3OLAEB7NJ2TQXTLP","A2XQ3CFB5HT2ZQ","39N6W9XWRD9306QNTNZSDTAN4LJGYK","","<img src=""img/set1/S1.jpg"" width=""540"" height = ""360"" style=""border:16px solid orange"">","null","","","","","","","",""
"null","","html-keyboard-response","274","250390","0.0-203.0","3XC1O3LBOT8PRW3OLAEB7NJ2TQXTLP","A2XQ3CFB5HT2ZQ","39N6W9XWRD9306QNTNZSDTAN4LJGYK","","","null","","","","","","","",""
"561.5","","image-keyboard-response","275","250953","0.0-204.0","3XC1O3LBOT8PRW3OLAEB7NJ2TQXTLP","A2XQ3CFB5HT2ZQ","39N6W9XWRD9306QNTNZSDTAN4LJGYK","","img/set1/S2.jpg","68","2","structured_normal","68","true","structured_normal,structured_incentive,random","2,3,1,2","",""
"null","","html-keyboard-response","276","251306","0.0-205.0","3XC1O3LBOT8PRW3OLAEB7NJ2TQXTLP","A2XQ3CFB5HT2ZQ","39N6W9XWRD9306QNTNZSDTAN4LJGYK","","<img src=""img/set1/S2.jpg"" width=""540"" height = ""360"" style=""border:16px solid orange"">","null","","","","","","","",""
"null","","html-keyboard-response","277","251311","0.0-206.0","3XC1O3LBOT8PRW3OLAEB7NJ2TQXTLP","A2XQ3CFB5HT2ZQ","39N6W9XWRD9306QNTNZSDTAN4LJGYK","","","null","","","","","","","",""
"671.3000000119209","","image-keyboard-response","278","251984","0.0-207.0","3XC1O3LBOT8PRW3OLAEB7NJ2TQXTLP","A2XQ3CFB5HT2ZQ","39N6W9XWRD9306QNTNZSDTAN4LJGYK","","img/set1/S4.jpg","74","4","structured_normal","74","true","structured_normal,structured_incentive,random","2,3,1,2","",""
"null","","html-keyboard-response","279","252347","0.0-208.0","3XC1O3LBOT8PRW3OLAEB7NJ2TQXTLP","A2XQ3CFB5HT2ZQ","39N6W9XWRD9306QNTNZSDTAN4LJGYK","","<img src=""img/set1/S4.jpg"" width=""540"" height = ""360"" style=""border:16px solid orange"">","null","","","","","","","",""
"null","","html-keyboard-response","280","252351","0.0-209.0","3XC1O3LBOT8PRW3OLAEB7NJ2TQXTLP","A2XQ3CFB5HT2ZQ","39N6W9XWRD9306QNTNZSDTAN4LJGYK","","","null","","","","","","","",""
"506.89999997615814","","image-keyboard-response","281","252859","0.0-210.0","3XC1O3LBOT8PRW3OLAEB7NJ2TQXTLP","A2XQ3CFB5HT2ZQ","39N6W9XWRD9306QNTNZSDTAN4LJGYK","","img/set1/S3.jpg","72","3","structured_normal","72","true","structured_normal,structured_incentive,random","2,3,1,2","",""
"null","","html-keyboard-response","282","253212","0.0-211.0","3XC1O3LBOT8PRW3OLAEB7NJ2TQXTLP","A2XQ3CFB5HT2ZQ","39N6W9XWRD9306QNTNZSDTAN4LJGYK","","<img src=""img/set1/S3.jpg"" width=""540"" height = ""360"" style=""border:16px solid orange"">","null","","","","","","","",""
"null","","html-keyboard-response","283","253215","0.0-212.0","3XC1O3LBOT8PRW3OLAEB7NJ2TQXTLP","A2XQ3CFB5HT2ZQ","39N6W9XWRD9306QNTNZSDTAN4LJGYK","","","null","","","","","","","",""
"768.9000000357628","","image-keyboard-response","284","253986","0.0-213.0","3XC1O3LBOT8PRW3OLAEB7NJ2TQXTLP","A2XQ3CFB5HT2ZQ","39N6W9XWRD9306QNTNZSDTAN4LJGYK","","img/set1/S2.jpg","68","2","structured_normal","68","true","structured_normal,structured_incentive,random","2,3,1,2","",""
"null","","html-keyboard-response","285","254344","0.0-214.0","3XC1O3LBOT8PRW3OLAEB7NJ2TQXTLP","A2XQ3CFB5HT2ZQ","39N6W9XWRD9306QNTNZSDTAN4LJGYK","","<img src=""img/set1/S2.jpg"" width=""540"" height = ""360"" style=""border:16px solid orange"">","null","","","","","","","",""
"null","","html-keyboard-response","286","254355","0.0-215.0","3XC1O3LBOT8PRW3OLAEB7NJ2TQXTLP","A2XQ3CFB5HT2ZQ","39N6W9XWRD9306QNTNZSDTAN4LJGYK","","","null","","","","","","","",""
"701.3999999761581","","image-keyboard-response","287","255058","0.0-216.0","3XC1O3LBOT8PRW3OLAEB7NJ2TQXTLP","A2XQ3CFB5HT2ZQ","39N6W9XWRD9306QNTNZSDTAN4LJGYK","","img/set1/S4.jpg","74","4","structured_normal","74","true","structured_normal,structured_incentive,random","2,3,1,2","",""
"null","","html-keyboard-response","288","255412","0.0-217.0","3XC1O3LBOT8PRW3OLAEB7NJ2TQXTLP","A2XQ3CFB5HT2ZQ","39N6W9XWRD9306QNTNZSDTAN4LJGYK","","<img src=""img/set1/S4.jpg"" width=""540"" height = ""360"" style=""border:16px solid orange"">","null","","","","","","","",""
"null","","html-keyboard-response","289","255416","0.0-218.0","3XC1O3LBOT8PRW3OLAEB7NJ2TQXTLP","A2XQ3CFB5HT2ZQ","39N6W9XWRD9306QNTNZSDTAN4LJGYK","","","null","","","","","","","",""
"581.5","","image-keyboard-response","290","255999","0.0-219.0","3XC1O3LBOT8PRW3OLAEB7NJ2TQXTLP","A2XQ3CFB5HT2ZQ","39N6W9XWRD9306QNTNZSDTAN4LJGYK","","img/set1/S4.jpg","74","4","structured_normal","74","true","structured_normal,structured_incentive,random","2,3,1,2","",""
"null","","html-keyboard-response","291","256358","0.0-220.0","3XC1O3LBOT8PRW3OLAEB7NJ2TQXTLP","A2XQ3CFB5HT2ZQ","39N6W9XWRD9306QNTNZSDTAN4LJGYK","","<img src=""img/set1/S4.jpg"" width=""540"" height = ""360"" style=""border:16px solid orange"">","null","","","","","","","",""
"null","","html-keyboard-response","292","256363","0.0-221.0","3XC1O3LBOT8PRW3OLAEB7NJ2TQXTLP","A2XQ3CFB5HT2ZQ","39N6W9XWRD9306QNTNZSDTAN4LJGYK","","","null","","","","","","","",""
"633.6000000238419","","image-keyboard-response","293","256999","0.0-222.0","3XC1O3LBOT8PRW3OLAEB7NJ2TQXTLP","A2XQ3CFB5HT2ZQ","39N6W9XWRD9306QNTNZSDTAN4LJGYK","","img/set1/S3.jpg","72","3","structured_normal","72","true","structured_normal,structured_incentive,random","2,3,1,2","",""
"null","","html-keyboard-response","294","257360","0.0-223.0","3XC1O3LBOT8PRW3OLAEB7NJ2TQXTLP","A2XQ3CFB5HT2ZQ","39N6W9XWRD9306QNTNZSDTAN4LJGYK","","<img src=""img/set1/S3.jpg"" width=""540"" height = ""360"" style=""border:16px solid orange"">","null","","","","","","","",""
"null","","html-keyboard-response","295","257365","0.0-224.0","3XC1O3LBOT8PRW3OLAEB7NJ2TQXTLP","A2XQ3CFB5HT2ZQ","39N6W9XWRD9306QNTNZSDTAN4LJGYK","","","null","","","","","","","",""
"450.19999998807907","","image-keyboard-response","296","257817","0.0-225.0","3XC1O3LBOT8PRW3OLAEB7NJ2TQXTLP","A2XQ3CFB5HT2ZQ","39N6W9XWRD9306QNTNZSDTAN4LJGYK","","img/set1/S3.jpg","72","3","structured_normal","72","true","structured_normal,structured_incentive,random","2,3,1,2","",""
"null","","html-keyboard-response","297","258182","0.0-226.0","3XC1O3LBOT8PRW3OLAEB7NJ2TQXTLP","A2XQ3CFB5HT2ZQ","39N6W9XWRD9306QNTNZSDTAN4LJGYK","","<img src=""img/set1/S3.jpg"" width=""540"" height = ""360"" style=""border:16px solid orange"">","null","","","","","","","",""
"null","","html-keyboard-response","298","258186","0.0-227.0","3XC1O3LBOT8PRW3OLAEB7NJ2TQXTLP","A2XQ3CFB5HT2ZQ","39N6W9XWRD9306QNTNZSDTAN4LJGYK","","","null","","","","","","","",""
"681.6000000238419","","image-keyboard-response","299","258873","0.0-228.0","3XC1O3LBOT8PRW3OLAEB7NJ2TQXTLP","A2XQ3CFB5HT2ZQ","39N6W9XWRD9306QNTNZSDTAN4LJGYK","","img/set1/S2.jpg","68","2","structured_normal","68","true","structured_normal,structured_incentive,random","2,3,1,2","",""
"null","","html-keyboard-response","300","259236","0.0-229.0","3XC1O3LBOT8PRW3OLAEB7NJ2TQXTLP","A2XQ3CFB5HT2ZQ","39N6W9XWRD9306QNTNZSDTAN4LJGYK","","<img src=""img/set1/S2.jpg"" width=""540"" height = ""360"" style=""border:16px solid orange"">","null","","","","","","","",""
"null","","html-keyboard-response","301","259241","0.0-230.0","3XC1O3LBOT8PRW3OLAEB7NJ2TQXTLP","A2XQ3CFB5HT2ZQ","39N6W9XWRD9306QNTNZSDTAN4LJGYK","","","null","","","","","","","",""
"619","","image-keyboard-response","302","259861","0.0-231.0","3XC1O3LBOT8PRW3OLAEB7NJ2TQXTLP","A2XQ3CFB5HT2ZQ","39N6W9XWRD9306QNTNZSDTAN4LJGYK","","img/set1/S3.jpg","72","3","structured_normal","72","true","structured_normal,structured_incentive,random","2,3,1,2","",""
"null","","html-keyboard-response","303","260227","0.0-232.0","3XC1O3LBOT8PRW3OLAEB7NJ2TQXTLP","A2XQ3CFB5HT2ZQ","39N6W9XWRD9306QNTNZSDTAN4LJGYK","","<img src=""img/set1/S3.jpg"" width=""540"" height = ""360"" style=""border:16px solid orange"">","null","","","","","","","",""
"null","","html-keyboard-response","304","260232","0.0-233.0","3XC1O3LBOT8PRW3OLAEB7NJ2TQXTLP","A2XQ3CFB5HT2ZQ","39N6W9XWRD9306QNTNZSDTAN4LJGYK","","","null","","","","","","","",""
"675.3000000119209","","image-keyboard-response","305","260909","0.0-234.0","3XC1O3LBOT8PRW3OLAEB7NJ2TQXTLP","A2XQ3CFB5HT2ZQ","39N6W9XWRD9306QNTNZSDTAN4LJGYK","","img/set1/S4.jpg","74","4","structured_normal","74","true","structured_normal,structured_incentive,random","2,3,1,2","",""
"null","","html-keyboard-response","306","261263","0.0-235.0","3XC1O3LBOT8PRW3OLAEB7NJ2TQXTLP","A2XQ3CFB5HT2ZQ","39N6W9XWRD9306QNTNZSDTAN4LJGYK","","<img src=""img/set1/S4.jpg"" width=""540"" height = ""360"" style=""border:16px solid orange"">","null","","","","","","","",""
"null","","html-keyboard-response","307","261267","0.0-236.0","3XC1O3LBOT8PRW3OLAEB7NJ2TQXTLP","A2XQ3CFB5HT2ZQ","39N6W9XWRD9306QNTNZSDTAN4LJGYK","","","null","","","","","","","",""
"638.5","","image-keyboard-response","308","261907","0.0-237.0","3XC1O3LBOT8PRW3OLAEB7NJ2TQXTLP","A2XQ3CFB5HT2ZQ","39N6W9XWRD9306QNTNZSDTAN4LJGYK","","img/set1/S1.jpg","83","1","structured_normal","83","true","structured_normal,structured_incentive,random","2,3,1,2","",""
"null","","html-keyboard-response","309","262268","0.0-238.0","3XC1O3LBOT8PRW3OLAEB7NJ2TQXTLP","A2XQ3CFB5HT2ZQ","39N6W9XWRD9306QNTNZSDTAN4LJGYK","","<img src=""img/set1/S1.jpg"" width=""540"" height = ""360"" style=""border:16px solid orange"">","null","","","","","","","",""
"null","","html-keyboard-response","310","262273","0.0-239.0","3XC1O3LBOT8PRW3OLAEB7NJ2TQXTLP","A2XQ3CFB5HT2ZQ","39N6W9XWRD9306QNTNZSDTAN4LJGYK","","","null","","","","","","","",""
"455","","image-keyboard-response","311","262730","0.0-240.0","3XC1O3LBOT8PRW3OLAEB7NJ2TQXTLP","A2XQ3CFB5HT2ZQ","39N6W9XWRD9306QNTNZSDTAN4LJGYK","","img/set1/S1.jpg","83","1","structured_normal","83","true","structured_normal,structured_incentive,random","2,3,1,2","",""
"null","","html-keyboard-response","312","263089","0.0-241.0","3XC1O3LBOT8PRW3OLAEB7NJ2TQXTLP","A2XQ3CFB5HT2ZQ","39N6W9XWRD9306QNTNZSDTAN4LJGYK","","<img src=""img/set1/S1.jpg"" width=""540"" height = ""360"" style=""border:16px solid orange"">","null","","","","","","","",""
"null","","html-keyboard-response","313","263094","0.0-242.0","3XC1O3LBOT8PRW3OLAEB7NJ2TQXTLP","A2XQ3CFB5HT2ZQ","39N6W9XWRD9306QNTNZSDTAN4LJGYK","","","null","","","","","","","",""
"603.0999999642372","","image-keyboard-response","314","263700","0.0-243.0","3XC1O3LBOT8PRW3OLAEB7NJ2TQXTLP","A2XQ3CFB5HT2ZQ","39N6W9XWRD9306QNTNZSDTAN4LJGYK","","img/set1/S4.jpg","74","4","structured_normal","74","true","structured_normal,structured_incentive,random","2,3,1,2","",""
"null","","html-keyboard-response","315","264062","0.0-244.0","3XC1O3LBOT8PRW3OLAEB7NJ2TQXTLP","A2XQ3CFB5HT2ZQ","39N6W9XWRD9306QNTNZSDTAN4LJGYK","","<img src=""img/set1/S4.jpg"" width=""540"" height = ""360"" style=""border:16px solid orange"">","null","","","","","","","",""
"null","","html-keyboard-response","316","264067","0.0-245.0","3XC1O3LBOT8PRW3OLAEB7NJ2TQXTLP","A2XQ3CFB5HT2ZQ","39N6W9XWRD9306QNTNZSDTAN4LJGYK","","","null","","","","","","","",""
"653.6999999880791","","image-keyboard-response","317","264722","0.0-246.0","3XC1O3LBOT8PRW3OLAEB7NJ2TQXTLP","A2XQ3CFB5HT2ZQ","39N6W9XWRD9306QNTNZSDTAN4LJGYK","","img/set1/S2.jpg","68","2","structured_normal","68","true","structured_normal,structured_incentive,random","2,3,1,2","",""
"null","","html-keyboard-response","318","265084","0.0-247.0","3XC1O3LBOT8PRW3OLAEB7NJ2TQXTLP","A2XQ3CFB5HT2ZQ","39N6W9XWRD9306QNTNZSDTAN4LJGYK","","<img src=""img/set1/S2.jpg"" width=""540"" height = ""360"" style=""border:16px solid orange"">","null","","","","","","","",""
"null","","html-keyboard-response","319","265090","0.0-248.0","3XC1O3LBOT8PRW3OLAEB7NJ2TQXTLP","A2XQ3CFB5HT2ZQ","39N6W9XWRD9306QNTNZSDTAN4LJGYK","","","null","","","","","","","",""
"606.8000000119209","","image-keyboard-response","320","265698","0.0-249.0","3XC1O3LBOT8PRW3OLAEB7NJ2TQXTLP","A2XQ3CFB5HT2ZQ","39N6W9XWRD9306QNTNZSDTAN4LJGYK","","img/set1/S3.jpg","72","3","structured_normal","72","true","structured_normal,structured_incentive,random","2,3,1,2","",""
"null","","html-keyboard-response","321","266059","0.0-250.0","3XC1O3LBOT8PRW3OLAEB7NJ2TQXTLP","A2XQ3CFB5HT2ZQ","39N6W9XWRD9306QNTNZSDTAN4LJGYK","","<img src=""img/set1/S3.jpg"" width=""540"" height = ""360"" style=""border:16px solid orange"">","null","","","","","","","",""
"null","","html-keyboard-response","322","266065","0.0-251.0","3XC1O3LBOT8PRW3OLAEB7NJ2TQXTLP","A2XQ3CFB5HT2ZQ","39N6W9XWRD9306QNTNZSDTAN4LJGYK","","","null","","","","","","","",""
"778.8000000119209","","image-keyboard-response","323","266845","0.0-252.0","3XC1O3LBOT8PRW3OLAEB7NJ2TQXTLP","A2XQ3CFB5HT2ZQ","39N6W9XWRD9306QNTNZSDTAN4LJGYK","","img/set1/S2.jpg","68","2","structured_normal","68","true","structured_normal,structured_incentive,random","2,3,1,2","",""
"null","","html-keyboard-response","324","267204","0.0-253.0","3XC1O3LBOT8PRW3OLAEB7NJ2TQXTLP","A2XQ3CFB5HT2ZQ","39N6W9XWRD9306QNTNZSDTAN4LJGYK","","<img src=""img/set1/S2.jpg"" width=""540"" height = ""360"" style=""border:16px solid orange"">","null","","","","","","","",""
"null","","html-keyboard-response","325","267210","0.0-254.0","3XC1O3LBOT8PRW3OLAEB7NJ2TQXTLP","A2XQ3CFB5HT2ZQ","39N6W9XWRD9306QNTNZSDTAN4LJGYK","","","null","","","","","","","",""
"646.3000000119209","","image-keyboard-response","326","267858","0.0-255.0","3XC1O3LBOT8PRW3OLAEB7NJ2TQXTLP","A2XQ3CFB5HT2ZQ","39N6W9XWRD9306QNTNZSDTAN4LJGYK","","img/set1/S3.jpg","72","3","structured_normal","72","true","structured_normal,structured_incentive,random","2,3,1,2","",""
"null","","html-keyboard-response","327","268224","0.0-256.0","3XC1O3LBOT8PRW3OLAEB7NJ2TQXTLP","A2XQ3CFB5HT2ZQ","39N6W9XWRD9306QNTNZSDTAN4LJGYK","","<img src=""img/set1/S3.jpg"" width=""540"" height = ""360"" style=""border:16px solid orange"">","null","","","","","","","",""
"null","","html-keyboard-response","328","268229","0.0-257.0","3XC1O3LBOT8PRW3OLAEB7NJ2TQXTLP","A2XQ3CFB5HT2ZQ","39N6W9XWRD9306QNTNZSDTAN4LJGYK","","","null","","","","","","","",""
"601.1999999880791","","image-keyboard-response","329","268832","0.0-258.0","3XC1O3LBOT8PRW3OLAEB7NJ2TQXTLP","A2XQ3CFB5HT2ZQ","39N6W9XWRD9306QNTNZSDTAN4LJGYK","","img/set1/S2.jpg","68","2","structured_normal","68","true","structured_normal,structured_incentive,random","2,3,1,2","",""
"null","","html-keyboard-response","330","269195","0.0-259.0","3XC1O3LBOT8PRW3OLAEB7NJ2TQXTLP","A2XQ3CFB5HT2ZQ","39N6W9XWRD9306QNTNZSDTAN4LJGYK","","<img src=""img/set1/S2.jpg"" width=""540"" height = ""360"" style=""border:16px solid orange"">","null","","","","","","","",""
"null","","html-keyboard-response","331","269201","0.0-260.0","3XC1O3LBOT8PRW3OLAEB7NJ2TQXTLP","A2XQ3CFB5HT2ZQ","39N6W9XWRD9306QNTNZSDTAN4LJGYK","","","null","","","","","","","",""
"606.7000000476837","","image-keyboard-response","332","269809","0.0-261.0","3XC1O3LBOT8PRW3OLAEB7NJ2TQXTLP","A2XQ3CFB5HT2ZQ","39N6W9XWRD9306QNTNZSDTAN4LJGYK","","img/set1/S3.jpg","72","3","structured_normal","72","true","structured_normal,structured_incentive,random","2,3,1,2","",""
"null","","html-keyboard-response","333","270172","0.0-262.0","3XC1O3LBOT8PRW3OLAEB7NJ2TQXTLP","A2XQ3CFB5HT2ZQ","39N6W9XWRD9306QNTNZSDTAN4LJGYK","","<img src=""img/set1/S3.jpg"" width=""540"" height = ""360"" style=""border:16px solid orange"">","null","","","","","","","",""
"null","","html-keyboard-response","334","270178","0.0-263.0","3XC1O3LBOT8PRW3OLAEB7NJ2TQXTLP","A2XQ3CFB5HT2ZQ","39N6W9XWRD9306QNTNZSDTAN4LJGYK","","","null","","","","","","","",""
"619.5999999642372","","image-keyboard-response","335","270799","0.0-264.0","3XC1O3LBOT8PRW3OLAEB7NJ2TQXTLP","A2XQ3CFB5HT2ZQ","39N6W9XWRD9306QNTNZSDTAN4LJGYK","","img/set1/S4.jpg","74","4","structured_normal","74","true","structured_normal,structured_incentive,random","2,3,1,2","",""
"null","","html-keyboard-response","336","271160","0.0-265.0","3XC1O3LBOT8PRW3OLAEB7NJ2TQXTLP","A2XQ3CFB5HT2ZQ","39N6W9XWRD9306QNTNZSDTAN4LJGYK","","<img src=""img/set1/S4.jpg"" width=""540"" height = ""360"" style=""border:16px solid orange"">","null","","","","","","","",""
"null","","html-keyboard-response","337","271165","0.0-266.0","3XC1O3LBOT8PRW3OLAEB7NJ2TQXTLP","A2XQ3CFB5HT2ZQ","39N6W9XWRD9306QNTNZSDTAN4LJGYK","","","null","","","","","","","",""
"836.5","","image-keyboard-response","338","272003","0.0-267.0","3XC1O3LBOT8PRW3OLAEB7NJ2TQXTLP","A2XQ3CFB5HT2ZQ","39N6W9XWRD9306QNTNZSDTAN4LJGYK","","img/set1/S1.jpg","83","1","structured_normal","83","true","structured_normal,structured_incentive,random","2,3,1,2","",""
"null","","html-keyboard-response","339","272366","0.0-268.0","3XC1O3LBOT8PRW3OLAEB7NJ2TQXTLP","A2XQ3CFB5HT2ZQ","39N6W9XWRD9306QNTNZSDTAN4LJGYK","","<img src=""img/set1/S1.jpg"" width=""540"" height = ""360"" style=""border:16px solid orange"">","null","","","","","","","",""
"null","","html-keyboard-response","340","272370","0.0-269.0","3XC1O3LBOT8PRW3OLAEB7NJ2TQXTLP","A2XQ3CFB5HT2ZQ","39N6W9XWRD9306QNTNZSDTAN4LJGYK","","","null","","","","","","","",""
"626.8000000119209","","image-keyboard-response","341","272998","0.0-270.0","3XC1O3LBOT8PRW3OLAEB7NJ2TQXTLP","A2XQ3CFB5HT2ZQ","39N6W9XWRD9306QNTNZSDTAN4LJGYK","","img/set1/S2.jpg","68","2","structured_normal","68","true","structured_normal,structured_incentive,random","2,3,1,2","",""
"null","","html-keyboard-response","342","273353","0.0-271.0","3XC1O3LBOT8PRW3OLAEB7NJ2TQXTLP","A2XQ3CFB5HT2ZQ","39N6W9XWRD9306QNTNZSDTAN4LJGYK","","<img src=""img/set1/S2.jpg"" width=""540"" height = ""360"" style=""border:16px solid orange"">","null","","","","","","","",""
"null","","html-keyboard-response","343","273358","0.0-272.0","3XC1O3LBOT8PRW3OLAEB7NJ2TQXTLP","A2XQ3CFB5HT2ZQ","39N6W9XWRD9306QNTNZSDTAN4LJGYK","","","null","","","","","","","",""
"639","","image-keyboard-response","344","273999","0.0-273.0","3XC1O3LBOT8PRW3OLAEB7NJ2TQXTLP","A2XQ3CFB5HT2ZQ","39N6W9XWRD9306QNTNZSDTAN4LJGYK","","img/set1/S3.jpg","72","3","structured_normal","72","true","structured_normal,structured_incentive,random","2,3,1,2","",""
"null","","html-keyboard-response","345","274354","0.0-274.0","3XC1O3LBOT8PRW3OLAEB7NJ2TQXTLP","A2XQ3CFB5HT2ZQ","39N6W9XWRD9306QNTNZSDTAN4LJGYK","","<img src=""img/set1/S3.jpg"" width=""540"" height = ""360"" style=""border:16px solid orange"">","null","","","","","","","",""
"null","","html-keyboard-response","346","274359","0.0-275.0","3XC1O3LBOT8PRW3OLAEB7NJ2TQXTLP","A2XQ3CFB5HT2ZQ","39N6W9XWRD9306QNTNZSDTAN4LJGYK","","","null","","","","","","","",""
"604.9000000357628","","image-keyboard-response","347","274966","0.0-276.0","3XC1O3LBOT8PRW3OLAEB7NJ2TQXTLP","A2XQ3CFB5HT2ZQ","39N6W9XWRD9306QNTNZSDTAN4LJGYK","","img/set1/S4.jpg","74","4","structured_normal","74","true","structured_normal,structured_incentive,random","2,3,1,2","",""
"null","","html-keyboard-response","348","275330","0.0-277.0","3XC1O3LBOT8PRW3OLAEB7NJ2TQXTLP","A2XQ3CFB5HT2ZQ","39N6W9XWRD9306QNTNZSDTAN4LJGYK","","<img src=""img/set1/S4.jpg"" width=""540"" height = ""360"" style=""border:16px solid orange"">","null","","","","","","","",""
"null","","html-keyboard-response","349","275335","0.0-278.0","3XC1O3LBOT8PRW3OLAEB7NJ2TQXTLP","A2XQ3CFB5HT2ZQ","39N6W9XWRD9306QNTNZSDTAN4LJGYK","","","null","","","","","","","",""
"866.8999999761581","","image-keyboard-response","350","276203","0.0-279.0","3XC1O3LBOT8PRW3OLAEB7NJ2TQXTLP","A2XQ3CFB5HT2ZQ","39N6W9XWRD9306QNTNZSDTAN4LJGYK","","img/set1/S2.jpg","68","2","structured_normal","68","true","structured_normal,structured_incentive,random","2,3,1,2","",""
"null","","html-keyboard-response","351","276556","0.0-280.0","3XC1O3LBOT8PRW3OLAEB7NJ2TQXTLP","A2XQ3CFB5HT2ZQ","39N6W9XWRD9306QNTNZSDTAN4LJGYK","","<img src=""img/set1/S2.jpg"" width=""540"" height = ""360"" style=""border:16px solid orange"">","null","","","","","","","",""
"null","","html-keyboard-response","352","276563","0.0-281.0","3XC1O3LBOT8PRW3OLAEB7NJ2TQXTLP","A2XQ3CFB5HT2ZQ","39N6W9XWRD9306QNTNZSDTAN4LJGYK","","","null","","","","","","","",""
"567.9000000357628","","image-keyboard-response","353","277133","0.0-282.0","3XC1O3LBOT8PRW3OLAEB7NJ2TQXTLP","A2XQ3CFB5HT2ZQ","39N6W9XWRD9306QNTNZSDTAN4LJGYK","","img/set1/S3.jpg","68","3","structured_normal","72","false","structured_normal,structured_incentive,random","2,3,1,2","",""
"null","","html-keyboard-response","354","277487","0.0-283.0","3XC1O3LBOT8PRW3OLAEB7NJ2TQXTLP","A2XQ3CFB5HT2ZQ","39N6W9XWRD9306QNTNZSDTAN4LJGYK","","<img src=""img/set1/S3.jpg"" width=""540"" height = ""360"">","null","","","","","","","",""
"null","","html-keyboard-response","355","277491","0.0-284.0","3XC1O3LBOT8PRW3OLAEB7NJ2TQXTLP","A2XQ3CFB5HT2ZQ","39N6W9XWRD9306QNTNZSDTAN4LJGYK","","","null","","","","","","","",""
"971.2000000476837","","image-keyboard-response","356","278464","0.0-285.0","3XC1O3LBOT8PRW3OLAEB7NJ2TQXTLP","A2XQ3CFB5HT2ZQ","39N6W9XWRD9306QNTNZSDTAN4LJGYK","","img/set1/S2.jpg","68","2","structured_normal","68","true","structured_normal,structured_incentive,random","2,3,1,2","",""
"null","","html-keyboard-response","357","278820","0.0-286.0","3XC1O3LBOT8PRW3OLAEB7NJ2TQXTLP","A2XQ3CFB5HT2ZQ","39N6W9XWRD9306QNTNZSDTAN4LJGYK","","<img src=""img/set1/S2.jpg"" width=""540"" height = ""360"" style=""border:16px solid orange"">","null","","","","","","","",""
"null","","html-keyboard-response","358","278826","0.0-287.0","3XC1O3LBOT8PRW3OLAEB7NJ2TQXTLP","A2XQ3CFB5HT2ZQ","39N6W9XWRD9306QNTNZSDTAN4LJGYK","","","null","","","","","","","",""
"578.7999999523163","","image-keyboard-response","359","279407","0.0-288.0","3XC1O3LBOT8PRW3OLAEB7NJ2TQXTLP","A2XQ3CFB5HT2ZQ","39N6W9XWRD9306QNTNZSDTAN4LJGYK","","img/set1/S3.jpg","72","3","structured_normal","72","true","structured_normal,structured_incentive,random","2,3,1,2","",""
"null","","html-keyboard-response","360","279773","0.0-289.0","3XC1O3LBOT8PRW3OLAEB7NJ2TQXTLP","A2XQ3CFB5HT2ZQ","39N6W9XWRD9306QNTNZSDTAN4LJGYK","","<img src=""img/set1/S3.jpg"" width=""540"" height = ""360"" style=""border:16px solid orange"">","null","","","","","","","",""
"null","","html-keyboard-response","361","279777","0.0-290.0","3XC1O3LBOT8PRW3OLAEB7NJ2TQXTLP","A2XQ3CFB5HT2ZQ","39N6W9XWRD9306QNTNZSDTAN4LJGYK","","","null","","","","","","","",""
"467.10000002384186","","image-keyboard-response","362","280246","0.0-291.0","3XC1O3LBOT8PRW3OLAEB7NJ2TQXTLP","A2XQ3CFB5HT2ZQ","39N6W9XWRD9306QNTNZSDTAN4LJGYK","","img/set1/S3.jpg","72","3","structured_normal","72","true","structured_normal,structured_incentive,random","2,3,1,2","",""
"null","","html-keyboard-response","363","280601","0.0-292.0","3XC1O3LBOT8PRW3OLAEB7NJ2TQXTLP","A2XQ3CFB5HT2ZQ","39N6W9XWRD9306QNTNZSDTAN4LJGYK","","<img src=""img/set1/S3.jpg"" width=""540"" height = ""360"" style=""border:16px solid orange"">","null","","","","","","","",""
"null","","html-keyboard-response","364","280607","0.0-293.0","3XC1O3LBOT8PRW3OLAEB7NJ2TQXTLP","A2XQ3CFB5HT2ZQ","39N6W9XWRD9306QNTNZSDTAN4LJGYK","","","null","","","","","","","",""
"667.6000000238419","","image-keyboard-response","365","281277","0.0-294.0","3XC1O3LBOT8PRW3OLAEB7NJ2TQXTLP","A2XQ3CFB5HT2ZQ","39N6W9XWRD9306QNTNZSDTAN4LJGYK","","img/set1/S4.jpg","74","4","structured_normal","74","true","structured_normal,structured_incentive,random","2,3,1,2","",""
"null","","html-keyboard-response","366","281639","0.0-295.0","3XC1O3LBOT8PRW3OLAEB7NJ2TQXTLP","A2XQ3CFB5HT2ZQ","39N6W9XWRD9306QNTNZSDTAN4LJGYK","","<img src=""img/set1/S4.jpg"" width=""540"" height = ""360"" style=""border:16px solid orange"">","null","","","","","","","",""
"null","","html-keyboard-response","367","281644","0.0-296.0","3XC1O3LBOT8PRW3OLAEB7NJ2TQXTLP","A2XQ3CFB5HT2ZQ","39N6W9XWRD9306QNTNZSDTAN4LJGYK","","","null","","","","","","","",""
"636.5","","image-keyboard-response","368","282282","0.0-297.0","3XC1O3LBOT8PRW3OLAEB7NJ2TQXTLP","A2XQ3CFB5HT2ZQ","39N6W9XWRD9306QNTNZSDTAN4LJGYK","","img/set1/S2.jpg","68","2","structured_normal","68","true","structured_normal,structured_incentive,random","2,3,1,2","",""
"null","","html-keyboard-response","369","282645","0.0-298.0","3XC1O3LBOT8PRW3OLAEB7NJ2TQXTLP","A2XQ3CFB5HT2ZQ","39N6W9XWRD9306QNTNZSDTAN4LJGYK","","<img src=""img/set1/S2.jpg"" width=""540"" height = ""360"" style=""border:16px solid orange"">","null","","","","","","","",""
"null","","html-keyboard-response","370","282649","0.0-299.0","3XC1O3LBOT8PRW3OLAEB7NJ2TQXTLP","A2XQ3CFB5HT2ZQ","39N6W9XWRD9306QNTNZSDTAN4LJGYK","","","null","","","","","","","",""
"575.4000000357628","","image-keyboard-response","371","283226","0.0-300.0","3XC1O3LBOT8PRW3OLAEB7NJ2TQXTLP","A2XQ3CFB5HT2ZQ","39N6W9XWRD9306QNTNZSDTAN4LJGYK","","img/set1/S4.jpg","74","4","structured_normal","74","true","structured_normal,structured_incentive,random","2,3,1,2","",""
"null","","html-keyboard-response","372","283588","0.0-301.0","3XC1O3LBOT8PRW3OLAEB7NJ2TQXTLP","A2XQ3CFB5HT2ZQ","39N6W9XWRD9306QNTNZSDTAN4LJGYK","","<img src=""img/set1/S4.jpg"" width=""540"" height = ""360"" style=""border:16px solid orange"">","null","","","","","","","",""
"null","","html-keyboard-response","373","283593","0.0-302.0","3XC1O3LBOT8PRW3OLAEB7NJ2TQXTLP","A2XQ3CFB5HT2ZQ","39N6W9XWRD9306QNTNZSDTAN4LJGYK","","","null","","","","","","","",""
"700.9000000357628","","image-keyboard-response","374","284296","0.0-303.0","3XC1O3LBOT8PRW3OLAEB7NJ2TQXTLP","A2XQ3CFB5HT2ZQ","39N6W9XWRD9306QNTNZSDTAN4LJGYK","","img/set1/S2.jpg","68","2","structured_normal","68","true","structured_normal,structured_incentive,random","2,3,1,2","",""
"null","","html-keyboard-response","375","284655","0.0-304.0","3XC1O3LBOT8PRW3OLAEB7NJ2TQXTLP","A2XQ3CFB5HT2ZQ","39N6W9XWRD9306QNTNZSDTAN4LJGYK","","<img src=""img/set1/S2.jpg"" width=""540"" height = ""360"" style=""border:16px solid orange"">","null","","","","","","","",""
"null","","html-keyboard-response","376","284661","0.0-305.0","3XC1O3LBOT8PRW3OLAEB7NJ2TQXTLP","A2XQ3CFB5HT2ZQ","39N6W9XWRD9306QNTNZSDTAN4LJGYK","","","null","","","","","","","",""
"811.8000000119209","","image-keyboard-response","377","285474","0.0-306.0","3XC1O3LBOT8PRW3OLAEB7NJ2TQXTLP","A2XQ3CFB5HT2ZQ","39N6W9XWRD9306QNTNZSDTAN4LJGYK","","img/set1/S3.jpg","72","3","structured_normal","72","true","structured_normal,structured_incentive,random","2,3,1,2","",""
"null","","html-keyboard-response","378","285828","0.0-307.0","3XC1O3LBOT8PRW3OLAEB7NJ2TQXTLP","A2XQ3CFB5HT2ZQ","39N6W9XWRD9306QNTNZSDTAN4LJGYK","","<img src=""img/set1/S3.jpg"" width=""540"" height = ""360"" style=""border:16px solid orange"">","null","","","","","","","",""
"null","","html-keyboard-response","379","285836","0.0-308.0","3XC1O3LBOT8PRW3OLAEB7NJ2TQXTLP","A2XQ3CFB5HT2ZQ","39N6W9XWRD9306QNTNZSDTAN4LJGYK","","","null","","","","","","","",""
"494.5","","image-keyboard-response","380","286332","0.0-309.0","3XC1O3LBOT8PRW3OLAEB7NJ2TQXTLP","A2XQ3CFB5HT2ZQ","39N6W9XWRD9306QNTNZSDTAN4LJGYK","","img/set1/S3.jpg","72","3","structured_normal","72","true","structured_normal,structured_incentive,random","2,3,1,2","",""
"null","","html-keyboard-response","381","286699","0.0-310.0","3XC1O3LBOT8PRW3OLAEB7NJ2TQXTLP","A2XQ3CFB5HT2ZQ","39N6W9XWRD9306QNTNZSDTAN4LJGYK","","<img src=""img/set1/S3.jpg"" width=""540"" height = ""360"" style=""border:16px solid orange"">","null","","","","","","","",""
"null","","html-keyboard-response","382","286704","0.0-311.0","3XC1O3LBOT8PRW3OLAEB7NJ2TQXTLP","A2XQ3CFB5HT2ZQ","39N6W9XWRD9306QNTNZSDTAN4LJGYK","","","null","","","","","","","",""
"646.6000000238419","","image-keyboard-response","383","287353","0.0-312.0","3XC1O3LBOT8PRW3OLAEB7NJ2TQXTLP","A2XQ3CFB5HT2ZQ","39N6W9XWRD9306QNTNZSDTAN4LJGYK","","img/set1/S1.jpg","83","1","structured_normal","83","true","structured_normal,structured_incentive,random","2,3,1,2","",""
"null","","html-keyboard-response","384","287706","0.0-313.0","3XC1O3LBOT8PRW3OLAEB7NJ2TQXTLP","A2XQ3CFB5HT2ZQ","39N6W9XWRD9306QNTNZSDTAN4LJGYK","","<img src=""img/set1/S1.jpg"" width=""540"" height = ""360"" style=""border:16px solid orange"">","null","","","","","","","",""
"null","","html-keyboard-response","385","287709","0.0-314.0","3XC1O3LBOT8PRW3OLAEB7NJ2TQXTLP","A2XQ3CFB5HT2ZQ","39N6W9XWRD9306QNTNZSDTAN4LJGYK","","","null","","","","","","","",""
"907.6000000238419","","image-keyboard-response","386","288619","0.0-315.0","3XC1O3LBOT8PRW3OLAEB7NJ2TQXTLP","A2XQ3CFB5HT2ZQ","39N6W9XWRD9306QNTNZSDTAN4LJGYK","","img/set1/S4.jpg","74","4","structured_normal","74","true","structured_normal,structured_incentive,random","2,3,1,2","",""
"null","","html-keyboard-response","387","288973","0.0-316.0","3XC1O3LBOT8PRW3OLAEB7NJ2TQXTLP","A2XQ3CFB5HT2ZQ","39N6W9XWRD9306QNTNZSDTAN4LJGYK","","<img src=""img/set1/S4.jpg"" width=""540"" height = ""360"" style=""border:16px solid orange"">","null","","","","","","","",""
"null","","html-keyboard-response","388","288978","0.0-317.0","3XC1O3LBOT8PRW3OLAEB7NJ2TQXTLP","A2XQ3CFB5HT2ZQ","39N6W9XWRD9306QNTNZSDTAN4LJGYK","","","null","","","","","","","",""
"401.10000002384186","","image-keyboard-response","389","289392","0.0-318.0","3XC1O3LBOT8PRW3OLAEB7NJ2TQXTLP","A2XQ3CFB5HT2ZQ","39N6W9XWRD9306QNTNZSDTAN4LJGYK","","img/set1/S4.jpg","74","4","structured_normal","74","true","structured_normal,structured_incentive,random","2,3,1,2","",""
"null","","html-keyboard-response","390","289745","0.0-319.0","3XC1O3LBOT8PRW3OLAEB7NJ2TQXTLP","A2XQ3CFB5HT2ZQ","39N6W9XWRD9306QNTNZSDTAN4LJGYK","","<img src=""img/set1/S4.jpg"" width=""540"" height = ""360"" style=""border:16px solid orange"">","null","","","","","","","",""
"null","","html-keyboard-response","391","289749","0.0-320.0","3XC1O3LBOT8PRW3OLAEB7NJ2TQXTLP","A2XQ3CFB5HT2ZQ","39N6W9XWRD9306QNTNZSDTAN4LJGYK","","","null","","","","","","","",""
"435.30000001192093","","image-keyboard-response","392","290186","0.0-321.0","3XC1O3LBOT8PRW3OLAEB7NJ2TQXTLP","A2XQ3CFB5HT2ZQ","39N6W9XWRD9306QNTNZSDTAN4LJGYK","","img/set1/S4.jpg","74","4","structured_normal","74","true","structured_normal,structured_incentive,random","2,3,1,2","",""
"null","","html-keyboard-response","393","290550","0.0-322.0","3XC1O3LBOT8PRW3OLAEB7NJ2TQXTLP","A2XQ3CFB5HT2ZQ","39N6W9XWRD9306QNTNZSDTAN4LJGYK","","<img src=""img/set1/S4.jpg"" width=""540"" height = ""360"" style=""border:16px solid orange"">","null","","","","","","","",""
"null","","html-keyboard-response","394","290556","0.0-323.0","3XC1O3LBOT8PRW3OLAEB7NJ2TQXTLP","A2XQ3CFB5HT2ZQ","39N6W9XWRD9306QNTNZSDTAN4LJGYK","","","null","","","","","","","",""
"627.5","","image-keyboard-response","395","291185","0.0-324.0","3XC1O3LBOT8PRW3OLAEB7NJ2TQXTLP","A2XQ3CFB5HT2ZQ","39N6W9XWRD9306QNTNZSDTAN4LJGYK","","img/set1/S1.jpg","83","1","structured_normal","83","true","structured_normal,structured_incentive,random","2,3,1,2","",""
"null","","html-keyboard-response","396","291540","0.0-325.0","3XC1O3LBOT8PRW3OLAEB7NJ2TQXTLP","A2XQ3CFB5HT2ZQ","39N6W9XWRD9306QNTNZSDTAN4LJGYK","","<img src=""img/set1/S1.jpg"" width=""540"" height = ""360"" style=""border:16px solid orange"">","null","","","","","","","",""
"null","","html-keyboard-response","397","291545","0.0-326.0","3XC1O3LBOT8PRW3OLAEB7NJ2TQXTLP","A2XQ3CFB5HT2ZQ","39N6W9XWRD9306QNTNZSDTAN4LJGYK","","","null","","","","","","","",""
"586.3000000119209","","image-keyboard-response","398","292133","0.0-327.0","3XC1O3LBOT8PRW3OLAEB7NJ2TQXTLP","A2XQ3CFB5HT2ZQ","39N6W9XWRD9306QNTNZSDTAN4LJGYK","","img/set1/S2.jpg","68","2","structured_normal","68","true","structured_normal,structured_incentive,random","2,3,1,2","",""
"null","","html-keyboard-response","399","292498","0.0-328.0","3XC1O3LBOT8PRW3OLAEB7NJ2TQXTLP","A2XQ3CFB5HT2ZQ","39N6W9XWRD9306QNTNZSDTAN4LJGYK","","<img src=""img/set1/S2.jpg"" width=""540"" height = ""360"" style=""border:16px solid orange"">","null","","","","","","","",""
"null","","html-keyboard-response","400","292509","0.0-329.0","3XC1O3LBOT8PRW3OLAEB7NJ2TQXTLP","A2XQ3CFB5HT2ZQ","39N6W9XWRD9306QNTNZSDTAN4LJGYK","","","null","","","","","","","",""
"598.8999999761581","","image-keyboard-response","401","293110","0.0-330.0","3XC1O3LBOT8PRW3OLAEB7NJ2TQXTLP","A2XQ3CFB5HT2ZQ","39N6W9XWRD9306QNTNZSDTAN4LJGYK","","img/set1/S4.jpg","74","4","structured_normal","74","true","structured_normal,structured_incentive,random","2,3,1,2","",""
"null","","html-keyboard-response","402","293472","0.0-331.0","3XC1O3LBOT8PRW3OLAEB7NJ2TQXTLP","A2XQ3CFB5HT2ZQ","39N6W9XWRD9306QNTNZSDTAN4LJGYK","","<img src=""img/set1/S4.jpg"" width=""540"" height = ""360"" style=""border:16px solid orange"">","null","","","","","","","",""
"null","","html-keyboard-response","403","293477","0.0-332.0","3XC1O3LBOT8PRW3OLAEB7NJ2TQXTLP","A2XQ3CFB5HT2ZQ","39N6W9XWRD9306QNTNZSDTAN4LJGYK","","","null","","","","","","","",""
"897","","image-keyboard-response","404","294376","0.0-333.0","3XC1O3LBOT8PRW3OLAEB7NJ2TQXTLP","A2XQ3CFB5HT2ZQ","39N6W9XWRD9306QNTNZSDTAN4LJGYK","","img/set1/S3.jpg","72","3","structured_normal","72","true","structured_normal,structured_incentive,random","2,3,1,2","",""
"null","","html-keyboard-response","405","294742","0.0-334.0","3XC1O3LBOT8PRW3OLAEB7NJ2TQXTLP","A2XQ3CFB5HT2ZQ","39N6W9XWRD9306QNTNZSDTAN4LJGYK","","<img src=""img/set1/S3.jpg"" width=""540"" height = ""360"" style=""border:16px solid orange"">","null","","","","","","","",""
"null","","html-keyboard-response","406","294747","0.0-335.0","3XC1O3LBOT8PRW3OLAEB7NJ2TQXTLP","A2XQ3CFB5HT2ZQ","39N6W9XWRD9306QNTNZSDTAN4LJGYK","","","null","","","","","","","",""
"589.8000000119209","","image-keyboard-response","407","295339","0.0-336.0","3XC1O3LBOT8PRW3OLAEB7NJ2TQXTLP","A2XQ3CFB5HT2ZQ","39N6W9XWRD9306QNTNZSDTAN4LJGYK","","img/set1/S4.jpg","74","4","structured_normal","74","true","structured_normal,structured_incentive,random","2,3,1,2","",""
"null","","html-keyboard-response","408","295700","0.0-337.0","3XC1O3LBOT8PRW3OLAEB7NJ2TQXTLP","A2XQ3CFB5HT2ZQ","39N6W9XWRD9306QNTNZSDTAN4LJGYK","","<img src=""img/set1/S4.jpg"" width=""540"" height = ""360"" style=""border:16px solid orange"">","null","","","","","","","",""
"null","","html-keyboard-response","409","295705","0.0-338.0","3XC1O3LBOT8PRW3OLAEB7NJ2TQXTLP","A2XQ3CFB5HT2ZQ","39N6W9XWRD9306QNTNZSDTAN4LJGYK","","","null","","","","","","","",""
