"rt","url","trial_type","trial_index","time_elapsed","internal_node_id","assignmentID","mturkID","hitID","view_history","stimulus","key_press","state","test_part","correct_response","correct","order_block","order_chunk","bonus","responses"
"5839.900000095367","consent.html","external-html","0","5982","0.0-0.0","3GDTJDAPVVXQZUTLIO4VG424FI38MI","A2YGOORS5N9RW8","3XUSYT70ITN3RRKBJPNBFGD6FGOD06","","","","","","","","","","",""
"89398.69999980927","","instructions","1","95385","0.0-1.0","3GDTJDAPVVXQZUTLIO4VG424FI38MI","A2YGOORS5N9RW8","3XUSYT70ITN3RRKBJPNBFGD6FGOD06","[{""page_index"":0,""viewing_time"":5310.699999809265},{""page_index"":1,""viewing_time"":7223.300000190735},{""page_index"":2,""viewing_time"":10465},{""page_index"":3,""viewing_time"":15564.899999856949},{""page_index"":4,""viewing_time"":7154.299999952316},{""page_index"":5,""viewing_time"":13576.600000143051},{""page_index"":6,""viewing_time"":13542.200000047684},{""page_index"":7,""viewing_time"":16560.699999809265}]","","","","","","","","","",""
"1782.2999999523163","","image-keyboard-response","2","97169","0.0-2.0-0.0","3GDTJDAPVVXQZUTLIO4VG424FI38MI","A2YGOORS5N9RW8","3XUSYT70ITN3RRKBJPNBFGD6FGOD06","","img/practice/S3.jpg","72","3","practice","72","true","","","",""
"null","","html-keyboard-response","3","97478","0.0-2.0-1.0","3GDTJDAPVVXQZUTLIO4VG424FI38MI","A2YGOORS5N9RW8","3XUSYT70ITN3RRKBJPNBFGD6FGOD06","","<img src=""img/practice/S3.jpg"" width=""540"" height = ""360"" style=""border:16px solid orange"">","null","","","","","","","",""
"null","","html-keyboard-response","4","97482","0.0-2.0-2.0","3GDTJDAPVVXQZUTLIO4VG424FI38MI","A2YGOORS5N9RW8","3XUSYT70ITN3RRKBJPNBFGD6FGOD06","","","null","","","","","","","",""
"900.4000000953674","","image-keyboard-response","5","98388","0.0-2.0-0.1","3GDTJDAPVVXQZUTLIO4VG424FI38MI","A2YGOORS5N9RW8","3XUSYT70ITN3RRKBJPNBFGD6FGOD06","","img/practice/S4.jpg","74","4","practice","74","true","","","",""
"null","","html-keyboard-response","6","98692","0.0-2.0-1.1","3GDTJDAPVVXQZUTLIO4VG424FI38MI","A2YGOORS5N9RW8","3XUSYT70ITN3RRKBJPNBFGD6FGOD06","","<img src=""img/practice/S4.jpg"" width=""540"" height = ""360"" style=""border:16px solid orange"">","null","","","","","","","",""
"null","","html-keyboard-response","7","98701","0.0-2.0-2.1","3GDTJDAPVVXQZUTLIO4VG424FI38MI","A2YGOORS5N9RW8","3XUSYT70ITN3RRKBJPNBFGD6FGOD06","","","null","","","","","","","",""
"647.2999999523163","","image-keyboard-response","8","99352","0.0-2.0-0.2","3GDTJDAPVVXQZUTLIO4VG424FI38MI","A2YGOORS5N9RW8","3XUSYT70ITN3RRKBJPNBFGD6FGOD06","","img/practice/S2.jpg","83","2","practice","68","false","","","",""
"null","","html-keyboard-response","9","99662","0.0-2.0-1.2","3GDTJDAPVVXQZUTLIO4VG424FI38MI","A2YGOORS5N9RW8","3XUSYT70ITN3RRKBJPNBFGD6FGOD06","","<img src=""img/practice/S2.jpg"" width=""540"" height = ""360"">","null","","","","","","","",""
"null","","html-keyboard-response","10","99666","0.0-2.0-2.2","3GDTJDAPVVXQZUTLIO4VG424FI38MI","A2YGOORS5N9RW8","3XUSYT70ITN3RRKBJPNBFGD6FGOD06","","","null","","","","","","","",""
"170.70000004768372","","image-keyboard-response","11","99840","0.0-2.0-0.3","3GDTJDAPVVXQZUTLIO4VG424FI38MI","A2YGOORS5N9RW8","3XUSYT70ITN3RRKBJPNBFGD6FGOD06","","img/practice/S1.jpg","68","1","practice","83","false","","","",""
"null","","html-keyboard-response","12","100146","0.0-2.0-1.3","3GDTJDAPVVXQZUTLIO4VG424FI38MI","A2YGOORS5N9RW8","3XUSYT70ITN3RRKBJPNBFGD6FGOD06","","<img src=""img/practice/S1.jpg"" width=""540"" height = ""360"">","null","","","","","","","",""
"null","","html-keyboard-response","13","100148","0.0-2.0-2.3","3GDTJDAPVVXQZUTLIO4VG424FI38MI","A2YGOORS5N9RW8","3XUSYT70ITN3RRKBJPNBFGD6FGOD06","","","null","","","","","","","",""
"974.4000000953674","","image-keyboard-response","14","101124","0.0-2.0-0.4","3GDTJDAPVVXQZUTLIO4VG424FI38MI","A2YGOORS5N9RW8","3XUSYT70ITN3RRKBJPNBFGD6FGOD06","","img/practice/S4.jpg","74","4","practice","74","true","","","",""
"null","","html-keyboard-response","15","101429","0.0-2.0-1.4","3GDTJDAPVVXQZUTLIO4VG424FI38MI","A2YGOORS5N9RW8","3XUSYT70ITN3RRKBJPNBFGD6FGOD06","","<img src=""img/practice/S4.jpg"" width=""540"" height = ""360"" style=""border:16px solid orange"">","null","","","","","","","",""
"null","","html-keyboard-response","16","101440","0.0-2.0-2.4","3GDTJDAPVVXQZUTLIO4VG424FI38MI","A2YGOORS5N9RW8","3XUSYT70ITN3RRKBJPNBFGD6FGOD06","","","null","","","","","","","",""
"1033.0999999046326","","image-keyboard-response","17","102476","0.0-2.0-0.5","3GDTJDAPVVXQZUTLIO4VG424FI38MI","A2YGOORS5N9RW8","3XUSYT70ITN3RRKBJPNBFGD6FGOD06","","img/practice/S1.jpg","72","1","practice","83","false","","","",""
"null","","html-keyboard-response","18","102783","0.0-2.0-1.5","3GDTJDAPVVXQZUTLIO4VG424FI38MI","A2YGOORS5N9RW8","3XUSYT70ITN3RRKBJPNBFGD6FGOD06","","<img src=""img/practice/S1.jpg"" width=""540"" height = ""360"">","null","","","","","","","",""
"null","","html-keyboard-response","19","102786","0.0-2.0-2.5","3GDTJDAPVVXQZUTLIO4VG424FI38MI","A2YGOORS5N9RW8","3XUSYT70ITN3RRKBJPNBFGD6FGOD06","","","null","","","","","","","",""
"1000.5","","image-keyboard-response","20","103788","0.0-2.0-0.6","3GDTJDAPVVXQZUTLIO4VG424FI38MI","A2YGOORS5N9RW8","3XUSYT70ITN3RRKBJPNBFGD6FGOD06","","img/practice/S2.jpg","68","2","practice","68","true","","","",""
"null","","html-keyboard-response","21","104096","0.0-2.0-1.6","3GDTJDAPVVXQZUTLIO4VG424FI38MI","A2YGOORS5N9RW8","3XUSYT70ITN3RRKBJPNBFGD6FGOD06","","<img src=""img/practice/S2.jpg"" width=""540"" height = ""360"" style=""border:16px solid orange"">","null","","","","","","","",""
"null","","html-keyboard-response","22","104099","0.0-2.0-2.6","3GDTJDAPVVXQZUTLIO4VG424FI38MI","A2YGOORS5N9RW8","3XUSYT70ITN3RRKBJPNBFGD6FGOD06","","","null","","","","","","","",""
"1076.2000000476837","","image-keyboard-response","23","105177","0.0-2.0-0.7","3GDTJDAPVVXQZUTLIO4VG424FI38MI","A2YGOORS5N9RW8","3XUSYT70ITN3RRKBJPNBFGD6FGOD06","","img/practice/S3.jpg","74","3","practice","72","false","","","",""
"null","","html-keyboard-response","24","105492","0.0-2.0-1.7","3GDTJDAPVVXQZUTLIO4VG424FI38MI","A2YGOORS5N9RW8","3XUSYT70ITN3RRKBJPNBFGD6FGOD06","","<img src=""img/practice/S3.jpg"" width=""540"" height = ""360"">","null","","","","","","","",""
"null","","html-keyboard-response","25","105495","0.0-2.0-2.7","3GDTJDAPVVXQZUTLIO4VG424FI38MI","A2YGOORS5N9RW8","3XUSYT70ITN3RRKBJPNBFGD6FGOD06","","","null","","","","","","","",""
"1324.5999999046326","","image-keyboard-response","26","106820","0.0-2.0-0.8","3GDTJDAPVVXQZUTLIO4VG424FI38MI","A2YGOORS5N9RW8","3XUSYT70ITN3RRKBJPNBFGD6FGOD06","","img/practice/S1.jpg","83","1","practice","83","true","","","",""
"null","","html-keyboard-response","27","107134","0.0-2.0-1.8","3GDTJDAPVVXQZUTLIO4VG424FI38MI","A2YGOORS5N9RW8","3XUSYT70ITN3RRKBJPNBFGD6FGOD06","","<img src=""img/practice/S1.jpg"" width=""540"" height = ""360"" style=""border:16px solid orange"">","null","","","","","","","",""
"null","","html-keyboard-response","28","107137","0.0-2.0-2.8","3GDTJDAPVVXQZUTLIO4VG424FI38MI","A2YGOORS5N9RW8","3XUSYT70ITN3RRKBJPNBFGD6FGOD06","","","null","","","","","","","",""
"1147.1000001430511","","image-keyboard-response","29","108286","0.0-2.0-0.9","3GDTJDAPVVXQZUTLIO4VG424FI38MI","A2YGOORS5N9RW8","3XUSYT70ITN3RRKBJPNBFGD6FGOD06","","img/practice/S4.jpg","74","4","practice","74","true","","","",""
"null","","html-keyboard-response","30","108606","0.0-2.0-1.9","3GDTJDAPVVXQZUTLIO4VG424FI38MI","A2YGOORS5N9RW8","3XUSYT70ITN3RRKBJPNBFGD6FGOD06","","<img src=""img/practice/S4.jpg"" width=""540"" height = ""360"" style=""border:16px solid orange"">","null","","","","","","","",""
"null","","html-keyboard-response","31","108609","0.0-2.0-2.9","3GDTJDAPVVXQZUTLIO4VG424FI38MI","A2YGOORS5N9RW8","3XUSYT70ITN3RRKBJPNBFGD6FGOD06","","","null","","","","","","","",""
"940.2999999523163","","image-keyboard-response","32","109552","0.0-2.0-0.10","3GDTJDAPVVXQZUTLIO4VG424FI38MI","A2YGOORS5N9RW8","3XUSYT70ITN3RRKBJPNBFGD6FGOD06","","img/practice/S3.jpg","72","3","practice","72","true","","","",""
"null","","html-keyboard-response","33","109869","0.0-2.0-1.10","3GDTJDAPVVXQZUTLIO4VG424FI38MI","A2YGOORS5N9RW8","3XUSYT70ITN3RRKBJPNBFGD6FGOD06","","<img src=""img/practice/S3.jpg"" width=""540"" height = ""360"" style=""border:16px solid orange"">","null","","","","","","","",""
"null","","html-keyboard-response","34","109873","0.0-2.0-2.10","3GDTJDAPVVXQZUTLIO4VG424FI38MI","A2YGOORS5N9RW8","3XUSYT70ITN3RRKBJPNBFGD6FGOD06","","","null","","","","","","","",""
"661.9000000953674","","image-keyboard-response","35","110537","0.0-2.0-0.11","3GDTJDAPVVXQZUTLIO4VG424FI38MI","A2YGOORS5N9RW8","3XUSYT70ITN3RRKBJPNBFGD6FGOD06","","img/practice/S2.jpg","68","2","practice","68","true","","","",""
"null","","html-keyboard-response","36","110854","0.0-2.0-1.11","3GDTJDAPVVXQZUTLIO4VG424FI38MI","A2YGOORS5N9RW8","3XUSYT70ITN3RRKBJPNBFGD6FGOD06","","<img src=""img/practice/S2.jpg"" width=""540"" height = ""360"" style=""border:16px solid orange"">","null","","","","","","","",""
"null","","html-keyboard-response","37","110857","0.0-2.0-2.11","3GDTJDAPVVXQZUTLIO4VG424FI38MI","A2YGOORS5N9RW8","3XUSYT70ITN3RRKBJPNBFGD6FGOD06","","","null","","","","","","","",""
"1089.2000000476837","","image-keyboard-response","38","111950","0.0-2.0-0.12","3GDTJDAPVVXQZUTLIO4VG424FI38MI","A2YGOORS5N9RW8","3XUSYT70ITN3RRKBJPNBFGD6FGOD06","","img/practice/S3.jpg","83","3","practice","72","false","","","",""
"null","","html-keyboard-response","39","112263","0.0-2.0-1.12","3GDTJDAPVVXQZUTLIO4VG424FI38MI","A2YGOORS5N9RW8","3XUSYT70ITN3RRKBJPNBFGD6FGOD06","","<img src=""img/practice/S3.jpg"" width=""540"" height = ""360"">","null","","","","","","","",""
"null","","html-keyboard-response","40","112265","0.0-2.0-2.12","3GDTJDAPVVXQZUTLIO4VG424FI38MI","A2YGOORS5N9RW8","3XUSYT70ITN3RRKBJPNBFGD6FGOD06","","","null","","","","","","","",""
"933.9000000953674","","image-keyboard-response","41","113202","0.0-2.0-0.13","3GDTJDAPVVXQZUTLIO4VG424FI38MI","A2YGOORS5N9RW8","3XUSYT70ITN3RRKBJPNBFGD6FGOD06","","img/practice/S4.jpg","74","4","practice","74","true","","","",""
"null","","html-keyboard-response","42","113519","0.0-2.0-1.13","3GDTJDAPVVXQZUTLIO4VG424FI38MI","A2YGOORS5N9RW8","3XUSYT70ITN3RRKBJPNBFGD6FGOD06","","<img src=""img/practice/S4.jpg"" width=""540"" height = ""360"" style=""border:16px solid orange"">","null","","","","","","","",""
"null","","html-keyboard-response","43","113523","0.0-2.0-2.13","3GDTJDAPVVXQZUTLIO4VG424FI38MI","A2YGOORS5N9RW8","3XUSYT70ITN3RRKBJPNBFGD6FGOD06","","","null","","","","","","","",""
"972.5","","image-keyboard-response","44","114500","0.0-2.0-0.14","3GDTJDAPVVXQZUTLIO4VG424FI38MI","A2YGOORS5N9RW8","3XUSYT70ITN3RRKBJPNBFGD6FGOD06","","img/practice/S2.jpg","72","2","practice","68","false","","","",""
"null","","html-keyboard-response","45","114814","0.0-2.0-1.14","3GDTJDAPVVXQZUTLIO4VG424FI38MI","A2YGOORS5N9RW8","3XUSYT70ITN3RRKBJPNBFGD6FGOD06","","<img src=""img/practice/S2.jpg"" width=""540"" height = ""360"">","null","","","","","","","",""
"null","","html-keyboard-response","46","114818","0.0-2.0-2.14","3GDTJDAPVVXQZUTLIO4VG424FI38MI","A2YGOORS5N9RW8","3XUSYT70ITN3RRKBJPNBFGD6FGOD06","","","null","","","","","","","",""
"876.9000000953674","","image-keyboard-response","47","115696","0.0-2.0-0.15","3GDTJDAPVVXQZUTLIO4VG424FI38MI","A2YGOORS5N9RW8","3XUSYT70ITN3RRKBJPNBFGD6FGOD06","","img/practice/S1.jpg","68","1","practice","83","false","","","",""
"null","","html-keyboard-response","48","116000","0.0-2.0-1.15","3GDTJDAPVVXQZUTLIO4VG424FI38MI","A2YGOORS5N9RW8","3XUSYT70ITN3RRKBJPNBFGD6FGOD06","","<img src=""img/practice/S1.jpg"" width=""540"" height = ""360"">","null","","","","","","","",""
"null","","html-keyboard-response","49","116003","0.0-2.0-2.15","3GDTJDAPVVXQZUTLIO4VG424FI38MI","A2YGOORS5N9RW8","3XUSYT70ITN3RRKBJPNBFGD6FGOD06","","","null","","","","","","","",""
"871.3000001907349","","image-keyboard-response","50","116878","0.0-2.0-0.16","3GDTJDAPVVXQZUTLIO4VG424FI38MI","A2YGOORS5N9RW8","3XUSYT70ITN3RRKBJPNBFGD6FGOD06","","img/practice/S2.jpg","83","2","practice","68","false","","","",""
"null","","html-keyboard-response","51","117185","0.0-2.0-1.16","3GDTJDAPVVXQZUTLIO4VG424FI38MI","A2YGOORS5N9RW8","3XUSYT70ITN3RRKBJPNBFGD6FGOD06","","<img src=""img/practice/S2.jpg"" width=""540"" height = ""360"">","null","","","","","","","",""
"null","","html-keyboard-response","52","117188","0.0-2.0-2.16","3GDTJDAPVVXQZUTLIO4VG424FI38MI","A2YGOORS5N9RW8","3XUSYT70ITN3RRKBJPNBFGD6FGOD06","","","null","","","","","","","",""
"865","","image-keyboard-response","53","118056","0.0-2.0-0.17","3GDTJDAPVVXQZUTLIO4VG424FI38MI","A2YGOORS5N9RW8","3XUSYT70ITN3RRKBJPNBFGD6FGOD06","","img/practice/S3.jpg","68","3","practice","72","false","","","",""
"null","","html-keyboard-response","54","118370","0.0-2.0-1.17","3GDTJDAPVVXQZUTLIO4VG424FI38MI","A2YGOORS5N9RW8","3XUSYT70ITN3RRKBJPNBFGD6FGOD06","","<img src=""img/practice/S3.jpg"" width=""540"" height = ""360"">","null","","","","","","","",""
"null","","html-keyboard-response","55","118373","0.0-2.0-2.17","3GDTJDAPVVXQZUTLIO4VG424FI38MI","A2YGOORS5N9RW8","3XUSYT70ITN3RRKBJPNBFGD6FGOD06","","","null","","","","","","","",""
"994.2000000476837","","image-keyboard-response","56","119370","0.0-2.0-0.18","3GDTJDAPVVXQZUTLIO4VG424FI38MI","A2YGOORS5N9RW8","3XUSYT70ITN3RRKBJPNBFGD6FGOD06","","img/practice/S4.jpg","74","4","practice","74","true","","","",""
"null","","html-keyboard-response","57","119675","0.0-2.0-1.18","3GDTJDAPVVXQZUTLIO4VG424FI38MI","A2YGOORS5N9RW8","3XUSYT70ITN3RRKBJPNBFGD6FGOD06","","<img src=""img/practice/S4.jpg"" width=""540"" height = ""360"" style=""border:16px solid orange"">","null","","","","","","","",""
"null","","html-keyboard-response","58","119677","0.0-2.0-2.18","3GDTJDAPVVXQZUTLIO4VG424FI38MI","A2YGOORS5N9RW8","3XUSYT70ITN3RRKBJPNBFGD6FGOD06","","","null","","","","","","","",""
"773.4000000953674","","image-keyboard-response","59","120453","0.0-2.0-0.19","3GDTJDAPVVXQZUTLIO4VG424FI38MI","A2YGOORS5N9RW8","3XUSYT70ITN3RRKBJPNBFGD6FGOD06","","img/practice/S1.jpg","72","1","practice","83","false","","","",""
"null","","html-keyboard-response","60","120770","0.0-2.0-1.19","3GDTJDAPVVXQZUTLIO4VG424FI38MI","A2YGOORS5N9RW8","3XUSYT70ITN3RRKBJPNBFGD6FGOD06","","<img src=""img/practice/S1.jpg"" width=""540"" height = ""360"">","null","","","","","","","",""
"null","","html-keyboard-response","61","120773","0.0-2.0-2.19","3GDTJDAPVVXQZUTLIO4VG424FI38MI","A2YGOORS5N9RW8","3XUSYT70ITN3RRKBJPNBFGD6FGOD06","","","null","","","","","","","",""
"1028.8000001907349","","image-keyboard-response","62","121804","0.0-2.0-0.20","3GDTJDAPVVXQZUTLIO4VG424FI38MI","A2YGOORS5N9RW8","3XUSYT70ITN3RRKBJPNBFGD6FGOD06","","img/practice/S2.jpg","72","2","practice","68","false","","","",""
"null","","html-keyboard-response","63","122109","0.0-2.0-1.20","3GDTJDAPVVXQZUTLIO4VG424FI38MI","A2YGOORS5N9RW8","3XUSYT70ITN3RRKBJPNBFGD6FGOD06","","<img src=""img/practice/S2.jpg"" width=""540"" height = ""360"">","null","","","","","","","",""
"null","","html-keyboard-response","64","122111","0.0-2.0-2.20","3GDTJDAPVVXQZUTLIO4VG424FI38MI","A2YGOORS5N9RW8","3XUSYT70ITN3RRKBJPNBFGD6FGOD06","","","null","","","","","","","",""
"1144.5","","image-keyboard-response","65","123258","0.0-2.0-0.21","3GDTJDAPVVXQZUTLIO4VG424FI38MI","A2YGOORS5N9RW8","3XUSYT70ITN3RRKBJPNBFGD6FGOD06","","img/practice/S1.jpg","83","1","practice","83","true","","","",""
"null","","html-keyboard-response","66","123563","0.0-2.0-1.21","3GDTJDAPVVXQZUTLIO4VG424FI38MI","A2YGOORS5N9RW8","3XUSYT70ITN3RRKBJPNBFGD6FGOD06","","<img src=""img/practice/S1.jpg"" width=""540"" height = ""360"" style=""border:16px solid orange"">","null","","","","","","","",""
"null","","html-keyboard-response","67","123567","0.0-2.0-2.21","3GDTJDAPVVXQZUTLIO4VG424FI38MI","A2YGOORS5N9RW8","3XUSYT70ITN3RRKBJPNBFGD6FGOD06","","","null","","","","","","","",""
"726.2999999523163","","image-keyboard-response","68","124296","0.0-2.0-0.22","3GDTJDAPVVXQZUTLIO4VG424FI38MI","A2YGOORS5N9RW8","3XUSYT70ITN3RRKBJPNBFGD6FGOD06","","img/practice/S4.jpg","74","4","practice","74","true","","","",""
"null","","html-keyboard-response","69","124609","0.0-2.0-1.22","3GDTJDAPVVXQZUTLIO4VG424FI38MI","A2YGOORS5N9RW8","3XUSYT70ITN3RRKBJPNBFGD6FGOD06","","<img src=""img/practice/S4.jpg"" width=""540"" height = ""360"" style=""border:16px solid orange"">","null","","","","","","","",""
"null","","html-keyboard-response","70","124613","0.0-2.0-2.22","3GDTJDAPVVXQZUTLIO4VG424FI38MI","A2YGOORS5N9RW8","3XUSYT70ITN3RRKBJPNBFGD6FGOD06","","","null","","","","","","","",""
"902.3000001907349","","image-keyboard-response","71","125518","0.0-2.0-0.23","3GDTJDAPVVXQZUTLIO4VG424FI38MI","A2YGOORS5N9RW8","3XUSYT70ITN3RRKBJPNBFGD6FGOD06","","img/practice/S3.jpg","68","3","practice","72","false","","","",""
"null","","html-keyboard-response","72","125828","0.0-2.0-1.23","3GDTJDAPVVXQZUTLIO4VG424FI38MI","A2YGOORS5N9RW8","3XUSYT70ITN3RRKBJPNBFGD6FGOD06","","<img src=""img/practice/S3.jpg"" width=""540"" height = ""360"">","null","","","","","","","",""
"null","","html-keyboard-response","73","125831","0.0-2.0-2.23","3GDTJDAPVVXQZUTLIO4VG424FI38MI","A2YGOORS5N9RW8","3XUSYT70ITN3RRKBJPNBFGD6FGOD06","","","null","","","","","","","",""
"2325","","instructions","74","128157","0.0-3.0","3GDTJDAPVVXQZUTLIO4VG424FI38MI","A2YGOORS5N9RW8","3XUSYT70ITN3RRKBJPNBFGD6FGOD06","[{""page_index"":0,""viewing_time"":2324.7000000476837}]","","","","","","","","","",""
"7810.5","","instructions","75","135968","0.0-4.0","3GDTJDAPVVXQZUTLIO4VG424FI38MI","A2YGOORS5N9RW8","3XUSYT70ITN3RRKBJPNBFGD6FGOD06","[{""page_index"":0,""viewing_time"":7810.099999904633}]","","","","","","","","","",""
"6888.300000190735","","instructions","76","142857","0.0-5.0","3GDTJDAPVVXQZUTLIO4VG424FI38MI","A2YGOORS5N9RW8","3XUSYT70ITN3RRKBJPNBFGD6FGOD06","[{""page_index"":0,""viewing_time"":6887.900000095367}]","","","","","","","","","",""
"991.2999999523163","","image-keyboard-response","77","143850","0.0-6.0","3GDTJDAPVVXQZUTLIO4VG424FI38MI","A2YGOORS5N9RW8","3XUSYT70ITN3RRKBJPNBFGD6FGOD06","","img/set1/S2.jpg","68","2","random","68","true","random,structured_normal,structured_incentive","1,2,2,3","",""
"null","","html-keyboard-response","78","144218","0.0-7.0","3GDTJDAPVVXQZUTLIO4VG424FI38MI","A2YGOORS5N9RW8","3XUSYT70ITN3RRKBJPNBFGD6FGOD06","","<img src=""img/set1/S2.jpg"" width=""540"" height = ""360"" style=""border:16px solid orange"">","null","","","","","","","",""
"null","","html-keyboard-response","79","144220","0.0-8.0","3GDTJDAPVVXQZUTLIO4VG424FI38MI","A2YGOORS5N9RW8","3XUSYT70ITN3RRKBJPNBFGD6FGOD06","","","null","","","","","","","",""
"895.5","","image-keyboard-response","80","145117","0.0-9.0","3GDTJDAPVVXQZUTLIO4VG424FI38MI","A2YGOORS5N9RW8","3XUSYT70ITN3RRKBJPNBFGD6FGOD06","","img/set1/S4.jpg","74","4","random","74","true","random,structured_normal,structured_incentive","1,2,2,3","",""
"null","","html-keyboard-response","81","145469","0.0-10.0","3GDTJDAPVVXQZUTLIO4VG424FI38MI","A2YGOORS5N9RW8","3XUSYT70ITN3RRKBJPNBFGD6FGOD06","","<img src=""img/set1/S4.jpg"" width=""540"" height = ""360"" style=""border:16px solid orange"">","null","","","","","","","",""
"null","","html-keyboard-response","82","145473","0.0-11.0","3GDTJDAPVVXQZUTLIO4VG424FI38MI","A2YGOORS5N9RW8","3XUSYT70ITN3RRKBJPNBFGD6FGOD06","","","null","","","","","","","",""
"726.8000001907349","","image-keyboard-response","83","146202","0.0-12.0","3GDTJDAPVVXQZUTLIO4VG424FI38MI","A2YGOORS5N9RW8","3XUSYT70ITN3RRKBJPNBFGD6FGOD06","","img/set1/S4.jpg","74","4","random","74","true","random,structured_normal,structured_incentive","1,2,2,3","",""
"null","","html-keyboard-response","84","146558","0.0-13.0","3GDTJDAPVVXQZUTLIO4VG424FI38MI","A2YGOORS5N9RW8","3XUSYT70ITN3RRKBJPNBFGD6FGOD06","","<img src=""img/set1/S4.jpg"" width=""540"" height = ""360"" style=""border:16px solid orange"">","null","","","","","","","",""
"null","","html-keyboard-response","85","146561","0.0-14.0","3GDTJDAPVVXQZUTLIO4VG424FI38MI","A2YGOORS5N9RW8","3XUSYT70ITN3RRKBJPNBFGD6FGOD06","","","null","","","","","","","",""
"536.7999999523163","","image-keyboard-response","86","147101","0.0-15.0","3GDTJDAPVVXQZUTLIO4VG424FI38MI","A2YGOORS5N9RW8","3XUSYT70ITN3RRKBJPNBFGD6FGOD06","","img/set1/S4.jpg","74","4","random","74","true","random,structured_normal,structured_incentive","1,2,2,3","",""
"null","","html-keyboard-response","87","147467","0.0-16.0","3GDTJDAPVVXQZUTLIO4VG424FI38MI","A2YGOORS5N9RW8","3XUSYT70ITN3RRKBJPNBFGD6FGOD06","","<img src=""img/set1/S4.jpg"" width=""540"" height = ""360"" style=""border:16px solid orange"">","null","","","","","","","",""
"null","","html-keyboard-response","88","147474","0.0-17.0","3GDTJDAPVVXQZUTLIO4VG424FI38MI","A2YGOORS5N9RW8","3XUSYT70ITN3RRKBJPNBFGD6FGOD06","","","null","","","","","","","",""
"441.40000009536743","","image-keyboard-response","89","147918","0.0-18.0","3GDTJDAPVVXQZUTLIO4VG424FI38MI","A2YGOORS5N9RW8","3XUSYT70ITN3RRKBJPNBFGD6FGOD06","","img/set1/S4.jpg","74","4","random","74","true","random,structured_normal,structured_incentive","1,2,2,3","",""
"null","","html-keyboard-response","90","148276","0.0-19.0","3GDTJDAPVVXQZUTLIO4VG424FI38MI","A2YGOORS5N9RW8","3XUSYT70ITN3RRKBJPNBFGD6FGOD06","","<img src=""img/set1/S4.jpg"" width=""540"" height = ""360"" style=""border:16px solid orange"">","null","","","","","","","",""
"null","","html-keyboard-response","91","148288","0.0-20.0","3GDTJDAPVVXQZUTLIO4VG424FI38MI","A2YGOORS5N9RW8","3XUSYT70ITN3RRKBJPNBFGD6FGOD06","","","null","","","","","","","",""
"974.5","","image-keyboard-response","92","149266","0.0-21.0","3GDTJDAPVVXQZUTLIO4VG424FI38MI","A2YGOORS5N9RW8","3XUSYT70ITN3RRKBJPNBFGD6FGOD06","","img/set1/S2.jpg","83","2","random","68","false","random,structured_normal,structured_incentive","1,2,2,3","",""
"null","","html-keyboard-response","93","149634","0.0-22.0","3GDTJDAPVVXQZUTLIO4VG424FI38MI","A2YGOORS5N9RW8","3XUSYT70ITN3RRKBJPNBFGD6FGOD06","","<img src=""img/set1/S2.jpg"" width=""540"" height = ""360"">","null","","","","","","","",""
"null","","html-keyboard-response","94","149637","0.0-23.0","3GDTJDAPVVXQZUTLIO4VG424FI38MI","A2YGOORS5N9RW8","3XUSYT70ITN3RRKBJPNBFGD6FGOD06","","","null","","","","","","","",""
"1574.8999998569489","","image-keyboard-response","95","151214","0.0-24.0","3GDTJDAPVVXQZUTLIO4VG424FI38MI","A2YGOORS5N9RW8","3XUSYT70ITN3RRKBJPNBFGD6FGOD06","","img/set1/S2.jpg","68","2","random","68","true","random,structured_normal,structured_incentive","1,2,2,3","",""
"null","","html-keyboard-response","96","151573","0.0-25.0","3GDTJDAPVVXQZUTLIO4VG424FI38MI","A2YGOORS5N9RW8","3XUSYT70ITN3RRKBJPNBFGD6FGOD06","","<img src=""img/set1/S2.jpg"" width=""540"" height = ""360"" style=""border:16px solid orange"">","null","","","","","","","",""
"null","","html-keyboard-response","97","151576","0.0-26.0","3GDTJDAPVVXQZUTLIO4VG424FI38MI","A2YGOORS5N9RW8","3XUSYT70ITN3RRKBJPNBFGD6FGOD06","","","null","","","","","","","",""
"1665.4000000953674","","image-keyboard-response","98","153244","0.0-27.0","3GDTJDAPVVXQZUTLIO4VG424FI38MI","A2YGOORS5N9RW8","3XUSYT70ITN3RRKBJPNBFGD6FGOD06","","img/set1/S3.jpg","83","3","random","72","false","random,structured_normal,structured_incentive","1,2,2,3","",""
"null","","html-keyboard-response","99","153599","0.0-28.0","3GDTJDAPVVXQZUTLIO4VG424FI38MI","A2YGOORS5N9RW8","3XUSYT70ITN3RRKBJPNBFGD6FGOD06","","<img src=""img/set1/S3.jpg"" width=""540"" height = ""360"">","null","","","","","","","",""
"null","","html-keyboard-response","100","153602","0.0-29.0","3GDTJDAPVVXQZUTLIO4VG424FI38MI","A2YGOORS5N9RW8","3XUSYT70ITN3RRKBJPNBFGD6FGOD06","","","null","","","","","","","",""
"1181.0999999046326","","image-keyboard-response","101","154786","0.0-30.0","3GDTJDAPVVXQZUTLIO4VG424FI38MI","A2YGOORS5N9RW8","3XUSYT70ITN3RRKBJPNBFGD6FGOD06","","img/set1/S1.jpg","68","1","random","83","false","random,structured_normal,structured_incentive","1,2,2,3","",""
"null","","html-keyboard-response","102","155142","0.0-31.0","3GDTJDAPVVXQZUTLIO4VG424FI38MI","A2YGOORS5N9RW8","3XUSYT70ITN3RRKBJPNBFGD6FGOD06","","<img src=""img/set1/S1.jpg"" width=""540"" height = ""360"">","null","","","","","","","",""
"null","","html-keyboard-response","103","155144","0.0-32.0","3GDTJDAPVVXQZUTLIO4VG424FI38MI","A2YGOORS5N9RW8","3XUSYT70ITN3RRKBJPNBFGD6FGOD06","","","null","","","","","","","",""
"1175.1000001430511","","image-keyboard-response","104","156321","0.0-33.0","3GDTJDAPVVXQZUTLIO4VG424FI38MI","A2YGOORS5N9RW8","3XUSYT70ITN3RRKBJPNBFGD6FGOD06","","img/set1/S1.jpg","83","1","random","83","true","random,structured_normal,structured_incentive","1,2,2,3","",""
"null","","html-keyboard-response","105","156686","0.0-34.0","3GDTJDAPVVXQZUTLIO4VG424FI38MI","A2YGOORS5N9RW8","3XUSYT70ITN3RRKBJPNBFGD6FGOD06","","<img src=""img/set1/S1.jpg"" width=""540"" height = ""360"" style=""border:16px solid orange"">","null","","","","","","","",""
"null","","html-keyboard-response","106","156689","0.0-35.0","3GDTJDAPVVXQZUTLIO4VG424FI38MI","A2YGOORS5N9RW8","3XUSYT70ITN3RRKBJPNBFGD6FGOD06","","","null","","","","","","","",""
"933.2999999523163","","image-keyboard-response","107","157626","0.0-36.0","3GDTJDAPVVXQZUTLIO4VG424FI38MI","A2YGOORS5N9RW8","3XUSYT70ITN3RRKBJPNBFGD6FGOD06","","img/set1/S2.jpg","74","2","random","68","false","random,structured_normal,structured_incentive","1,2,2,3","",""
"null","","html-keyboard-response","108","157986","0.0-37.0","3GDTJDAPVVXQZUTLIO4VG424FI38MI","A2YGOORS5N9RW8","3XUSYT70ITN3RRKBJPNBFGD6FGOD06","","<img src=""img/set1/S2.jpg"" width=""540"" height = ""360"">","null","","","","","","","",""
"null","","html-keyboard-response","109","157989","0.0-38.0","3GDTJDAPVVXQZUTLIO4VG424FI38MI","A2YGOORS5N9RW8","3XUSYT70ITN3RRKBJPNBFGD6FGOD06","","","null","","","","","","","",""
"746.6000001430511","","image-keyboard-response","110","158740","0.0-39.0","3GDTJDAPVVXQZUTLIO4VG424FI38MI","A2YGOORS5N9RW8","3XUSYT70ITN3RRKBJPNBFGD6FGOD06","","img/set1/S4.jpg","68","4","random","74","false","random,structured_normal,structured_incentive","1,2,2,3","",""
"null","","html-keyboard-response","111","159107","0.0-40.0","3GDTJDAPVVXQZUTLIO4VG424FI38MI","A2YGOORS5N9RW8","3XUSYT70ITN3RRKBJPNBFGD6FGOD06","","<img src=""img/set1/S4.jpg"" width=""540"" height = ""360"">","null","","","","","","","",""
"null","","html-keyboard-response","112","159110","0.0-41.0","3GDTJDAPVVXQZUTLIO4VG424FI38MI","A2YGOORS5N9RW8","3XUSYT70ITN3RRKBJPNBFGD6FGOD06","","","null","","","","","","","",""
"1191.8999998569489","","image-keyboard-response","113","160304","0.0-42.0","3GDTJDAPVVXQZUTLIO4VG424FI38MI","A2YGOORS5N9RW8","3XUSYT70ITN3RRKBJPNBFGD6FGOD06","","img/set1/S2.jpg","74","2","random","68","false","random,structured_normal,structured_incentive","1,2,2,3","",""
"null","","html-keyboard-response","114","160664","0.0-43.0","3GDTJDAPVVXQZUTLIO4VG424FI38MI","A2YGOORS5N9RW8","3XUSYT70ITN3RRKBJPNBFGD6FGOD06","","<img src=""img/set1/S2.jpg"" width=""540"" height = ""360"">","null","","","","","","","",""
"null","","html-keyboard-response","115","160667","0.0-44.0","3GDTJDAPVVXQZUTLIO4VG424FI38MI","A2YGOORS5N9RW8","3XUSYT70ITN3RRKBJPNBFGD6FGOD06","","","null","","","","","","","",""
"1153.4000000953674","","image-keyboard-response","116","161823","0.0-45.0","3GDTJDAPVVXQZUTLIO4VG424FI38MI","A2YGOORS5N9RW8","3XUSYT70ITN3RRKBJPNBFGD6FGOD06","","img/set1/S2.jpg","83","2","random","68","false","random,structured_normal,structured_incentive","1,2,2,3","",""
"null","","html-keyboard-response","117","162179","0.0-46.0","3GDTJDAPVVXQZUTLIO4VG424FI38MI","A2YGOORS5N9RW8","3XUSYT70ITN3RRKBJPNBFGD6FGOD06","","<img src=""img/set1/S2.jpg"" width=""540"" height = ""360"">","null","","","","","","","",""
"null","","html-keyboard-response","118","162181","0.0-47.0","3GDTJDAPVVXQZUTLIO4VG424FI38MI","A2YGOORS5N9RW8","3XUSYT70ITN3RRKBJPNBFGD6FGOD06","","","null","","","","","","","",""
"889.5","","image-keyboard-response","119","163072","0.0-48.0","3GDTJDAPVVXQZUTLIO4VG424FI38MI","A2YGOORS5N9RW8","3XUSYT70ITN3RRKBJPNBFGD6FGOD06","","img/set1/S1.jpg","83","1","random","83","true","random,structured_normal,structured_incentive","1,2,2,3","",""
"null","","html-keyboard-response","120","163428","0.0-49.0","3GDTJDAPVVXQZUTLIO4VG424FI38MI","A2YGOORS5N9RW8","3XUSYT70ITN3RRKBJPNBFGD6FGOD06","","<img src=""img/set1/S1.jpg"" width=""540"" height = ""360"" style=""border:16px solid orange"">","null","","","","","","","",""
"null","","html-keyboard-response","121","163433","0.0-50.0","3GDTJDAPVVXQZUTLIO4VG424FI38MI","A2YGOORS5N9RW8","3XUSYT70ITN3RRKBJPNBFGD6FGOD06","","","null","","","","","","","",""
"764.5999999046326","","image-keyboard-response","122","164199","0.0-51.0","3GDTJDAPVVXQZUTLIO4VG424FI38MI","A2YGOORS5N9RW8","3XUSYT70ITN3RRKBJPNBFGD6FGOD06","","img/set1/S3.jpg","68","3","random","72","false","random,structured_normal,structured_incentive","1,2,2,3","",""
"null","","html-keyboard-response","123","164564","0.0-52.0","3GDTJDAPVVXQZUTLIO4VG424FI38MI","A2YGOORS5N9RW8","3XUSYT70ITN3RRKBJPNBFGD6FGOD06","","<img src=""img/set1/S3.jpg"" width=""540"" height = ""360"">","null","","","","","","","",""
"null","","html-keyboard-response","124","164567","0.0-53.0","3GDTJDAPVVXQZUTLIO4VG424FI38MI","A2YGOORS5N9RW8","3XUSYT70ITN3RRKBJPNBFGD6FGOD06","","","null","","","","","","","",""
"585.5","","image-keyboard-response","125","165155","0.0-54.0","3GDTJDAPVVXQZUTLIO4VG424FI38MI","A2YGOORS5N9RW8","3XUSYT70ITN3RRKBJPNBFGD6FGOD06","","img/set1/S1.jpg","83","1","random","83","true","random,structured_normal,structured_incentive","1,2,2,3","",""
"null","","html-keyboard-response","126","165512","0.0-55.0","3GDTJDAPVVXQZUTLIO4VG424FI38MI","A2YGOORS5N9RW8","3XUSYT70ITN3RRKBJPNBFGD6FGOD06","","<img src=""img/set1/S1.jpg"" width=""540"" height = ""360"" style=""border:16px solid orange"">","null","","","","","","","",""
"null","","html-keyboard-response","127","165515","0.0-56.0","3GDTJDAPVVXQZUTLIO4VG424FI38MI","A2YGOORS5N9RW8","3XUSYT70ITN3RRKBJPNBFGD6FGOD06","","","null","","","","","","","",""
"696","","image-keyboard-response","128","166213","0.0-57.0","3GDTJDAPVVXQZUTLIO4VG424FI38MI","A2YGOORS5N9RW8","3XUSYT70ITN3RRKBJPNBFGD6FGOD06","","img/set1/S4.jpg","74","4","random","74","true","random,structured_normal,structured_incentive","1,2,2,3","",""
"null","","html-keyboard-response","129","166571","0.0-58.0","3GDTJDAPVVXQZUTLIO4VG424FI38MI","A2YGOORS5N9RW8","3XUSYT70ITN3RRKBJPNBFGD6FGOD06","","<img src=""img/set1/S4.jpg"" width=""540"" height = ""360"" style=""border:16px solid orange"">","null","","","","","","","",""
"null","","html-keyboard-response","130","166575","0.0-59.0","3GDTJDAPVVXQZUTLIO4VG424FI38MI","A2YGOORS5N9RW8","3XUSYT70ITN3RRKBJPNBFGD6FGOD06","","","null","","","","","","","",""
"458.40000009536743","","image-keyboard-response","131","167036","0.0-60.0","3GDTJDAPVVXQZUTLIO4VG424FI38MI","A2YGOORS5N9RW8","3XUSYT70ITN3RRKBJPNBFGD6FGOD06","","img/set1/S4.jpg","74","4","random","74","true","random,structured_normal,structured_incentive","1,2,2,3","",""
"null","","html-keyboard-response","132","167402","0.0-61.0","3GDTJDAPVVXQZUTLIO4VG424FI38MI","A2YGOORS5N9RW8","3XUSYT70ITN3RRKBJPNBFGD6FGOD06","","<img src=""img/set1/S4.jpg"" width=""540"" height = ""360"" style=""border:16px solid orange"">","null","","","","","","","",""
"null","","html-keyboard-response","133","167406","0.0-62.0","3GDTJDAPVVXQZUTLIO4VG424FI38MI","A2YGOORS5N9RW8","3XUSYT70ITN3RRKBJPNBFGD6FGOD06","","","null","","","","","","","",""
"852.5","","image-keyboard-response","134","168261","0.0-63.0","3GDTJDAPVVXQZUTLIO4VG424FI38MI","A2YGOORS5N9RW8","3XUSYT70ITN3RRKBJPNBFGD6FGOD06","","img/set1/S1.jpg","68","1","random","83","false","random,structured_normal,structured_incentive","1,2,2,3","",""
"null","","html-keyboard-response","135","168626","0.0-64.0","3GDTJDAPVVXQZUTLIO4VG424FI38MI","A2YGOORS5N9RW8","3XUSYT70ITN3RRKBJPNBFGD6FGOD06","","<img src=""img/set1/S1.jpg"" width=""540"" height = ""360"">","null","","","","","","","",""
"null","","html-keyboard-response","136","168628","0.0-65.0","3GDTJDAPVVXQZUTLIO4VG424FI38MI","A2YGOORS5N9RW8","3XUSYT70ITN3RRKBJPNBFGD6FGOD06","","","null","","","","","","","",""
"1381.7000000476837","","image-keyboard-response","137","170015","0.0-66.0","3GDTJDAPVVXQZUTLIO4VG424FI38MI","A2YGOORS5N9RW8","3XUSYT70ITN3RRKBJPNBFGD6FGOD06","","img/set1/S1.jpg","83","1","random","83","true","random,structured_normal,structured_incentive","1,2,2,3","",""
"null","","html-keyboard-response","138","170383","0.0-67.0","3GDTJDAPVVXQZUTLIO4VG424FI38MI","A2YGOORS5N9RW8","3XUSYT70ITN3RRKBJPNBFGD6FGOD06","","<img src=""img/set1/S1.jpg"" width=""540"" height = ""360"" style=""border:16px solid orange"">","null","","","","","","","",""
"null","","html-keyboard-response","139","170385","0.0-68.0","3GDTJDAPVVXQZUTLIO4VG424FI38MI","A2YGOORS5N9RW8","3XUSYT70ITN3RRKBJPNBFGD6FGOD06","","","null","","","","","","","",""
"1265.1000001430511","","image-keyboard-response","140","171652","0.0-69.0","3GDTJDAPVVXQZUTLIO4VG424FI38MI","A2YGOORS5N9RW8","3XUSYT70ITN3RRKBJPNBFGD6FGOD06","","img/set1/S4.jpg","74","4","random","74","true","random,structured_normal,structured_incentive","1,2,2,3","",""
"null","","html-keyboard-response","141","172009","0.0-70.0","3GDTJDAPVVXQZUTLIO4VG424FI38MI","A2YGOORS5N9RW8","3XUSYT70ITN3RRKBJPNBFGD6FGOD06","","<img src=""img/set1/S4.jpg"" width=""540"" height = ""360"" style=""border:16px solid orange"">","null","","","","","","","",""
"null","","html-keyboard-response","142","172012","0.0-71.0","3GDTJDAPVVXQZUTLIO4VG424FI38MI","A2YGOORS5N9RW8","3XUSYT70ITN3RRKBJPNBFGD6FGOD06","","","null","","","","","","","",""
"393.90000009536743","","image-keyboard-response","143","172407","0.0-72.0","3GDTJDAPVVXQZUTLIO4VG424FI38MI","A2YGOORS5N9RW8","3XUSYT70ITN3RRKBJPNBFGD6FGOD06","","img/set1/S4.jpg","74","4","random","74","true","random,structured_normal,structured_incentive","1,2,2,3","",""
"null","","html-keyboard-response","144","172764","0.0-73.0","3GDTJDAPVVXQZUTLIO4VG424FI38MI","A2YGOORS5N9RW8","3XUSYT70ITN3RRKBJPNBFGD6FGOD06","","<img src=""img/set1/S4.jpg"" width=""540"" height = ""360"" style=""border:16px solid orange"">","null","","","","","","","",""
"null","","html-keyboard-response","145","172767","0.0-74.0","3GDTJDAPVVXQZUTLIO4VG424FI38MI","A2YGOORS5N9RW8","3XUSYT70ITN3RRKBJPNBFGD6FGOD06","","","null","","","","","","","",""
"660.2999999523163","","image-keyboard-response","146","173430","0.0-75.0","3GDTJDAPVVXQZUTLIO4VG424FI38MI","A2YGOORS5N9RW8","3XUSYT70ITN3RRKBJPNBFGD6FGOD06","","img/set1/S1.jpg","83","1","random","83","true","random,structured_normal,structured_incentive","1,2,2,3","",""
"null","","html-keyboard-response","147","173789","0.0-76.0","3GDTJDAPVVXQZUTLIO4VG424FI38MI","A2YGOORS5N9RW8","3XUSYT70ITN3RRKBJPNBFGD6FGOD06","","<img src=""img/set1/S1.jpg"" width=""540"" height = ""360"" style=""border:16px solid orange"">","null","","","","","","","",""
"null","","html-keyboard-response","148","173792","0.0-77.0","3GDTJDAPVVXQZUTLIO4VG424FI38MI","A2YGOORS5N9RW8","3XUSYT70ITN3RRKBJPNBFGD6FGOD06","","","null","","","","","","","",""
"457.90000009536743","","image-keyboard-response","149","174253","0.0-78.0","3GDTJDAPVVXQZUTLIO4VG424FI38MI","A2YGOORS5N9RW8","3XUSYT70ITN3RRKBJPNBFGD6FGOD06","","img/set1/S1.jpg","83","1","random","83","true","random,structured_normal,structured_incentive","1,2,2,3","",""
"null","","html-keyboard-response","150","174615","0.0-79.0","3GDTJDAPVVXQZUTLIO4VG424FI38MI","A2YGOORS5N9RW8","3XUSYT70ITN3RRKBJPNBFGD6FGOD06","","<img src=""img/set1/S1.jpg"" width=""540"" height = ""360"" style=""border:16px solid orange"">","null","","","","","","","",""
"null","","html-keyboard-response","151","174618","0.0-80.0","3GDTJDAPVVXQZUTLIO4VG424FI38MI","A2YGOORS5N9RW8","3XUSYT70ITN3RRKBJPNBFGD6FGOD06","","","null","","","","","","","",""
"595.7000000476837","","image-keyboard-response","152","175216","0.0-81.0","3GDTJDAPVVXQZUTLIO4VG424FI38MI","A2YGOORS5N9RW8","3XUSYT70ITN3RRKBJPNBFGD6FGOD06","","img/set1/S4.jpg","74","4","random","74","true","random,structured_normal,structured_incentive","1,2,2,3","",""
"null","","html-keyboard-response","153","175579","0.0-82.0","3GDTJDAPVVXQZUTLIO4VG424FI38MI","A2YGOORS5N9RW8","3XUSYT70ITN3RRKBJPNBFGD6FGOD06","","<img src=""img/set1/S4.jpg"" width=""540"" height = ""360"" style=""border:16px solid orange"">","null","","","","","","","",""
"null","","html-keyboard-response","154","175582","0.0-83.0","3GDTJDAPVVXQZUTLIO4VG424FI38MI","A2YGOORS5N9RW8","3XUSYT70ITN3RRKBJPNBFGD6FGOD06","","","null","","","","","","","",""
"382.2999999523163","","image-keyboard-response","155","175966","0.0-84.0","3GDTJDAPVVXQZUTLIO4VG424FI38MI","A2YGOORS5N9RW8","3XUSYT70ITN3RRKBJPNBFGD6FGOD06","","img/set1/S4.jpg","74","4","random","74","true","random,structured_normal,structured_incentive","1,2,2,3","",""
"null","","html-keyboard-response","156","176327","0.0-85.0","3GDTJDAPVVXQZUTLIO4VG424FI38MI","A2YGOORS5N9RW8","3XUSYT70ITN3RRKBJPNBFGD6FGOD06","","<img src=""img/set1/S4.jpg"" width=""540"" height = ""360"" style=""border:16px solid orange"">","null","","","","","","","",""
"null","","html-keyboard-response","157","176329","0.0-86.0","3GDTJDAPVVXQZUTLIO4VG424FI38MI","A2YGOORS5N9RW8","3XUSYT70ITN3RRKBJPNBFGD6FGOD06","","","null","","","","","","","",""
"445.7000000476837","","image-keyboard-response","158","176777","0.0-87.0","3GDTJDAPVVXQZUTLIO4VG424FI38MI","A2YGOORS5N9RW8","3XUSYT70ITN3RRKBJPNBFGD6FGOD06","","img/set1/S4.jpg","74","4","random","74","true","random,structured_normal,structured_incentive","1,2,2,3","",""
"null","","html-keyboard-response","159","177136","0.0-88.0","3GDTJDAPVVXQZUTLIO4VG424FI38MI","A2YGOORS5N9RW8","3XUSYT70ITN3RRKBJPNBFGD6FGOD06","","<img src=""img/set1/S4.jpg"" width=""540"" height = ""360"" style=""border:16px solid orange"">","null","","","","","","","",""
"null","","html-keyboard-response","160","177139","0.0-89.0","3GDTJDAPVVXQZUTLIO4VG424FI38MI","A2YGOORS5N9RW8","3XUSYT70ITN3RRKBJPNBFGD6FGOD06","","","null","","","","","","","",""
"398.2999999523163","","image-keyboard-response","161","177540","0.0-90.0","3GDTJDAPVVXQZUTLIO4VG424FI38MI","A2YGOORS5N9RW8","3XUSYT70ITN3RRKBJPNBFGD6FGOD06","","img/set1/S4.jpg","74","4","random","74","true","random,structured_normal,structured_incentive","1,2,2,3","",""
"null","","html-keyboard-response","162","177900","0.0-91.0","3GDTJDAPVVXQZUTLIO4VG424FI38MI","A2YGOORS5N9RW8","3XUSYT70ITN3RRKBJPNBFGD6FGOD06","","<img src=""img/set1/S4.jpg"" width=""540"" height = ""360"" style=""border:16px solid orange"">","null","","","","","","","",""
"null","","html-keyboard-response","163","177903","0.0-92.0","3GDTJDAPVVXQZUTLIO4VG424FI38MI","A2YGOORS5N9RW8","3XUSYT70ITN3RRKBJPNBFGD6FGOD06","","","null","","","","","","","",""
"733.5","","image-keyboard-response","164","178639","0.0-93.0","3GDTJDAPVVXQZUTLIO4VG424FI38MI","A2YGOORS5N9RW8","3XUSYT70ITN3RRKBJPNBFGD6FGOD06","","img/set1/S1.jpg","68","1","random","83","false","random,structured_normal,structured_incentive","1,2,2,3","",""
"null","","html-keyboard-response","165","179004","0.0-94.0","3GDTJDAPVVXQZUTLIO4VG424FI38MI","A2YGOORS5N9RW8","3XUSYT70ITN3RRKBJPNBFGD6FGOD06","","<img src=""img/set1/S1.jpg"" width=""540"" height = ""360"">","null","","","","","","","",""
"null","","html-keyboard-response","166","179006","0.0-95.0","3GDTJDAPVVXQZUTLIO4VG424FI38MI","A2YGOORS5N9RW8","3XUSYT70ITN3RRKBJPNBFGD6FGOD06","","","null","","","","","","","",""
"2153","","image-keyboard-response","167","181161","0.0-96.0","3GDTJDAPVVXQZUTLIO4VG424FI38MI","A2YGOORS5N9RW8","3XUSYT70ITN3RRKBJPNBFGD6FGOD06","","img/set1/S3.jpg","83","3","random","72","false","random,structured_normal,structured_incentive","1,2,2,3","",""
"null","","html-keyboard-response","168","181525","0.0-97.0","3GDTJDAPVVXQZUTLIO4VG424FI38MI","A2YGOORS5N9RW8","3XUSYT70ITN3RRKBJPNBFGD6FGOD06","","<img src=""img/set1/S3.jpg"" width=""540"" height = ""360"">","null","","","","","","","",""
"null","","html-keyboard-response","169","181529","0.0-98.0","3GDTJDAPVVXQZUTLIO4VG424FI38MI","A2YGOORS5N9RW8","3XUSYT70ITN3RRKBJPNBFGD6FGOD06","","","null","","","","","","","",""
"175.20000004768372","","image-keyboard-response","170","181706","0.0-99.0","3GDTJDAPVVXQZUTLIO4VG424FI38MI","A2YGOORS5N9RW8","3XUSYT70ITN3RRKBJPNBFGD6FGOD06","","img/set1/S1.jpg","68","1","random","83","false","random,structured_normal,structured_incentive","1,2,2,3","",""
"null","","html-keyboard-response","171","182071","0.0-100.0","3GDTJDAPVVXQZUTLIO4VG424FI38MI","A2YGOORS5N9RW8","3XUSYT70ITN3RRKBJPNBFGD6FGOD06","","<img src=""img/set1/S1.jpg"" width=""540"" height = ""360"">","null","","","","","","","",""
"null","","html-keyboard-response","172","182075","0.0-101.0","3GDTJDAPVVXQZUTLIO4VG424FI38MI","A2YGOORS5N9RW8","3XUSYT70ITN3RRKBJPNBFGD6FGOD06","","","null","","","","","","","",""
"710.3000001907349","","image-keyboard-response","173","182789","0.0-102.0","3GDTJDAPVVXQZUTLIO4VG424FI38MI","A2YGOORS5N9RW8","3XUSYT70ITN3RRKBJPNBFGD6FGOD06","","img/set1/S2.jpg","74","2","random","68","false","random,structured_normal,structured_incentive","1,2,2,3","",""
"null","","html-keyboard-response","174","183145","0.0-103.0","3GDTJDAPVVXQZUTLIO4VG424FI38MI","A2YGOORS5N9RW8","3XUSYT70ITN3RRKBJPNBFGD6FGOD06","","<img src=""img/set1/S2.jpg"" width=""540"" height = ""360"">","null","","","","","","","",""
"null","","html-keyboard-response","175","183148","0.0-104.0","3GDTJDAPVVXQZUTLIO4VG424FI38MI","A2YGOORS5N9RW8","3XUSYT70ITN3RRKBJPNBFGD6FGOD06","","","null","","","","","","","",""
"977.5","","image-keyboard-response","176","184127","0.0-105.0","3GDTJDAPVVXQZUTLIO4VG424FI38MI","A2YGOORS5N9RW8","3XUSYT70ITN3RRKBJPNBFGD6FGOD06","","img/set1/S3.jpg","68","3","random","72","false","random,structured_normal,structured_incentive","1,2,2,3","",""
"null","","html-keyboard-response","177","184486","0.0-106.0","3GDTJDAPVVXQZUTLIO4VG424FI38MI","A2YGOORS5N9RW8","3XUSYT70ITN3RRKBJPNBFGD6FGOD06","","<img src=""img/set1/S3.jpg"" width=""540"" height = ""360"">","null","","","","","","","",""
"null","","html-keyboard-response","178","184488","0.0-107.0","3GDTJDAPVVXQZUTLIO4VG424FI38MI","A2YGOORS5N9RW8","3XUSYT70ITN3RRKBJPNBFGD6FGOD06","","","null","","","","","","","",""
"1630.6000001430511","","image-keyboard-response","179","186119","0.0-108.0","3GDTJDAPVVXQZUTLIO4VG424FI38MI","A2YGOORS5N9RW8","3XUSYT70ITN3RRKBJPNBFGD6FGOD06","","img/set1/S1.jpg","83","1","random","83","true","random,structured_normal,structured_incentive","1,2,2,3","",""
"null","","html-keyboard-response","180","186482","0.0-109.0","3GDTJDAPVVXQZUTLIO4VG424FI38MI","A2YGOORS5N9RW8","3XUSYT70ITN3RRKBJPNBFGD6FGOD06","","<img src=""img/set1/S1.jpg"" width=""540"" height = ""360"" style=""border:16px solid orange"">","null","","","","","","","",""
"null","","html-keyboard-response","181","186487","0.0-110.0","3GDTJDAPVVXQZUTLIO4VG424FI38MI","A2YGOORS5N9RW8","3XUSYT70ITN3RRKBJPNBFGD6FGOD06","","","null","","","","","","","",""
"547.5999999046326","","image-keyboard-response","182","187038","0.0-111.0","3GDTJDAPVVXQZUTLIO4VG424FI38MI","A2YGOORS5N9RW8","3XUSYT70ITN3RRKBJPNBFGD6FGOD06","","img/set1/S3.jpg","83","3","random","72","false","random,structured_normal,structured_incentive","1,2,2,3","",""
"null","","html-keyboard-response","183","187399","0.0-112.0","3GDTJDAPVVXQZUTLIO4VG424FI38MI","A2YGOORS5N9RW8","3XUSYT70ITN3RRKBJPNBFGD6FGOD06","","<img src=""img/set1/S3.jpg"" width=""540"" height = ""360"">","null","","","","","","","",""
"null","","html-keyboard-response","184","187401","0.0-113.0","3GDTJDAPVVXQZUTLIO4VG424FI38MI","A2YGOORS5N9RW8","3XUSYT70ITN3RRKBJPNBFGD6FGOD06","","","null","","","","","","","",""
"981","","image-keyboard-response","185","188383","0.0-114.0","3GDTJDAPVVXQZUTLIO4VG424FI38MI","A2YGOORS5N9RW8","3XUSYT70ITN3RRKBJPNBFGD6FGOD06","","img/set1/S2.jpg","83","2","random","68","false","random,structured_normal,structured_incentive","1,2,2,3","",""
"null","","html-keyboard-response","186","188736","0.0-115.0","3GDTJDAPVVXQZUTLIO4VG424FI38MI","A2YGOORS5N9RW8","3XUSYT70ITN3RRKBJPNBFGD6FGOD06","","<img src=""img/set1/S2.jpg"" width=""540"" height = ""360"">","null","","","","","","","",""
"null","","html-keyboard-response","187","188739","0.0-116.0","3GDTJDAPVVXQZUTLIO4VG424FI38MI","A2YGOORS5N9RW8","3XUSYT70ITN3RRKBJPNBFGD6FGOD06","","","null","","","","","","","",""
"1138.2999999523163","","image-keyboard-response","188","189881","0.0-117.0","3GDTJDAPVVXQZUTLIO4VG424FI38MI","A2YGOORS5N9RW8","3XUSYT70ITN3RRKBJPNBFGD6FGOD06","","img/set1/S1.jpg","83","1","random","83","true","random,structured_normal,structured_incentive","1,2,2,3","",""
"null","","html-keyboard-response","189","190235","0.0-118.0","3GDTJDAPVVXQZUTLIO4VG424FI38MI","A2YGOORS5N9RW8","3XUSYT70ITN3RRKBJPNBFGD6FGOD06","","<img src=""img/set1/S1.jpg"" width=""540"" height = ""360"" style=""border:16px solid orange"">","null","","","","","","","",""
"null","","html-keyboard-response","190","190238","0.0-119.0","3GDTJDAPVVXQZUTLIO4VG424FI38MI","A2YGOORS5N9RW8","3XUSYT70ITN3RRKBJPNBFGD6FGOD06","","","null","","","","","","","",""
"415.09999990463257","","image-keyboard-response","191","190655","0.0-120.0","3GDTJDAPVVXQZUTLIO4VG424FI38MI","A2YGOORS5N9RW8","3XUSYT70ITN3RRKBJPNBFGD6FGOD06","","img/set1/S1.jpg","83","1","random","83","true","random,structured_normal,structured_incentive","1,2,2,3","",""
"null","","html-keyboard-response","192","191017","0.0-121.0","3GDTJDAPVVXQZUTLIO4VG424FI38MI","A2YGOORS5N9RW8","3XUSYT70ITN3RRKBJPNBFGD6FGOD06","","<img src=""img/set1/S1.jpg"" width=""540"" height = ""360"" style=""border:16px solid orange"">","null","","","","","","","",""
"null","","html-keyboard-response","193","191020","0.0-122.0","3GDTJDAPVVXQZUTLIO4VG424FI38MI","A2YGOORS5N9RW8","3XUSYT70ITN3RRKBJPNBFGD6FGOD06","","","null","","","","","","","",""
"450.10000014305115","","image-keyboard-response","194","191473","0.0-123.0","3GDTJDAPVVXQZUTLIO4VG424FI38MI","A2YGOORS5N9RW8","3XUSYT70ITN3RRKBJPNBFGD6FGOD06","","img/set1/S4.jpg","74","4","random","74","true","random,structured_normal,structured_incentive","1,2,2,3","",""
"null","","html-keyboard-response","195","191827","0.0-124.0","3GDTJDAPVVXQZUTLIO4VG424FI38MI","A2YGOORS5N9RW8","3XUSYT70ITN3RRKBJPNBFGD6FGOD06","","<img src=""img/set1/S4.jpg"" width=""540"" height = ""360"" style=""border:16px solid orange"">","null","","","","","","","",""
"null","","html-keyboard-response","196","191831","0.0-125.0","3GDTJDAPVVXQZUTLIO4VG424FI38MI","A2YGOORS5N9RW8","3XUSYT70ITN3RRKBJPNBFGD6FGOD06","","","null","","","","","","","",""
"2063.2000000476837","","image-keyboard-response","197","193901","0.0-126.0","3GDTJDAPVVXQZUTLIO4VG424FI38MI","A2YGOORS5N9RW8","3XUSYT70ITN3RRKBJPNBFGD6FGOD06","","img/set1/S2.jpg","74","2","random","68","false","random,structured_normal,structured_incentive","1,2,2,3","",""
"null","","html-keyboard-response","198","194261","0.0-127.0","3GDTJDAPVVXQZUTLIO4VG424FI38MI","A2YGOORS5N9RW8","3XUSYT70ITN3RRKBJPNBFGD6FGOD06","","<img src=""img/set1/S2.jpg"" width=""540"" height = ""360"">","null","","","","","","","",""
"null","","html-keyboard-response","199","194264","0.0-128.0","3GDTJDAPVVXQZUTLIO4VG424FI38MI","A2YGOORS5N9RW8","3XUSYT70ITN3RRKBJPNBFGD6FGOD06","","","null","","","","","","","",""
"1228.2000000476837","","image-keyboard-response","200","195493","0.0-129.0","3GDTJDAPVVXQZUTLIO4VG424FI38MI","A2YGOORS5N9RW8","3XUSYT70ITN3RRKBJPNBFGD6FGOD06","","img/set1/S3.jpg","68","3","random","72","false","random,structured_normal,structured_incentive","1,2,2,3","",""
"null","","html-keyboard-response","201","195849","0.0-130.0","3GDTJDAPVVXQZUTLIO4VG424FI38MI","A2YGOORS5N9RW8","3XUSYT70ITN3RRKBJPNBFGD6FGOD06","","<img src=""img/set1/S3.jpg"" width=""540"" height = ""360"">","null","","","","","","","",""
"null","","html-keyboard-response","202","195852","0.0-131.0","3GDTJDAPVVXQZUTLIO4VG424FI38MI","A2YGOORS5N9RW8","3XUSYT70ITN3RRKBJPNBFGD6FGOD06","","","null","","","","","","","",""
"1340.7999999523163","","image-keyboard-response","203","197195","0.0-132.0","3GDTJDAPVVXQZUTLIO4VG424FI38MI","A2YGOORS5N9RW8","3XUSYT70ITN3RRKBJPNBFGD6FGOD06","","img/set1/S1.jpg","83","1","random","83","true","random,structured_normal,structured_incentive","1,2,2,3","",""
"null","","html-keyboard-response","204","197549","0.0-133.0","3GDTJDAPVVXQZUTLIO4VG424FI38MI","A2YGOORS5N9RW8","3XUSYT70ITN3RRKBJPNBFGD6FGOD06","","<img src=""img/set1/S1.jpg"" width=""540"" height = ""360"" style=""border:16px solid orange"">","null","","","","","","","",""
"null","","html-keyboard-response","205","197552","0.0-134.0","3GDTJDAPVVXQZUTLIO4VG424FI38MI","A2YGOORS5N9RW8","3XUSYT70ITN3RRKBJPNBFGD6FGOD06","","","null","","","","","","","",""
"736.5","","image-keyboard-response","206","198290","0.0-135.0","3GDTJDAPVVXQZUTLIO4VG424FI38MI","A2YGOORS5N9RW8","3XUSYT70ITN3RRKBJPNBFGD6FGOD06","","img/set1/S2.jpg","83","2","random","68","false","random,structured_normal,structured_incentive","1,2,2,3","",""
"null","","html-keyboard-response","207","198657","0.0-136.0","3GDTJDAPVVXQZUTLIO4VG424FI38MI","A2YGOORS5N9RW8","3XUSYT70ITN3RRKBJPNBFGD6FGOD06","","<img src=""img/set1/S2.jpg"" width=""540"" height = ""360"">","null","","","","","","","",""
"null","","html-keyboard-response","208","198659","0.0-137.0","3GDTJDAPVVXQZUTLIO4VG424FI38MI","A2YGOORS5N9RW8","3XUSYT70ITN3RRKBJPNBFGD6FGOD06","","","null","","","","","","","",""
"890","","image-keyboard-response","209","199551","0.0-138.0","3GDTJDAPVVXQZUTLIO4VG424FI38MI","A2YGOORS5N9RW8","3XUSYT70ITN3RRKBJPNBFGD6FGOD06","","img/set1/S3.jpg","74","3","random","72","false","random,structured_normal,structured_incentive","1,2,2,3","",""
"null","","html-keyboard-response","210","199907","0.0-139.0","3GDTJDAPVVXQZUTLIO4VG424FI38MI","A2YGOORS5N9RW8","3XUSYT70ITN3RRKBJPNBFGD6FGOD06","","<img src=""img/set1/S3.jpg"" width=""540"" height = ""360"">","null","","","","","","","",""
"null","","html-keyboard-response","211","199911","0.0-140.0","3GDTJDAPVVXQZUTLIO4VG424FI38MI","A2YGOORS5N9RW8","3XUSYT70ITN3RRKBJPNBFGD6FGOD06","","","null","","","","","","","",""
"1667.5999999046326","","image-keyboard-response","212","201582","0.0-141.0","3GDTJDAPVVXQZUTLIO4VG424FI38MI","A2YGOORS5N9RW8","3XUSYT70ITN3RRKBJPNBFGD6FGOD06","","img/set1/S3.jpg","68","3","random","72","false","random,structured_normal,structured_incentive","1,2,2,3","",""
"null","","html-keyboard-response","213","201942","0.0-142.0","3GDTJDAPVVXQZUTLIO4VG424FI38MI","A2YGOORS5N9RW8","3XUSYT70ITN3RRKBJPNBFGD6FGOD06","","<img src=""img/set1/S3.jpg"" width=""540"" height = ""360"">","null","","","","","","","",""
"null","","html-keyboard-response","214","201945","0.0-143.0","3GDTJDAPVVXQZUTLIO4VG424FI38MI","A2YGOORS5N9RW8","3XUSYT70ITN3RRKBJPNBFGD6FGOD06","","","null","","","","","","","",""
"696.7000000476837","","image-keyboard-response","215","202644","0.0-144.0","3GDTJDAPVVXQZUTLIO4VG424FI38MI","A2YGOORS5N9RW8","3XUSYT70ITN3RRKBJPNBFGD6FGOD06","","img/set1/S4.jpg","74","4","random","74","true","random,structured_normal,structured_incentive","1,2,2,3","",""
"null","","html-keyboard-response","216","203001","0.0-145.0","3GDTJDAPVVXQZUTLIO4VG424FI38MI","A2YGOORS5N9RW8","3XUSYT70ITN3RRKBJPNBFGD6FGOD06","","<img src=""img/set1/S4.jpg"" width=""540"" height = ""360"" style=""border:16px solid orange"">","null","","","","","","","",""
"null","","html-keyboard-response","217","203004","0.0-146.0","3GDTJDAPVVXQZUTLIO4VG424FI38MI","A2YGOORS5N9RW8","3XUSYT70ITN3RRKBJPNBFGD6FGOD06","","","null","","","","","","","",""
"783.5","","image-keyboard-response","218","203790","0.0-147.0","3GDTJDAPVVXQZUTLIO4VG424FI38MI","A2YGOORS5N9RW8","3XUSYT70ITN3RRKBJPNBFGD6FGOD06","","img/set1/S1.jpg","83","1","random","83","true","random,structured_normal,structured_incentive","1,2,2,3","",""
"null","","html-keyboard-response","219","204156","0.0-148.0","3GDTJDAPVVXQZUTLIO4VG424FI38MI","A2YGOORS5N9RW8","3XUSYT70ITN3RRKBJPNBFGD6FGOD06","","<img src=""img/set1/S1.jpg"" width=""540"" height = ""360"" style=""border:16px solid orange"">","null","","","","","","","",""
"null","","html-keyboard-response","220","204160","0.0-149.0","3GDTJDAPVVXQZUTLIO4VG424FI38MI","A2YGOORS5N9RW8","3XUSYT70ITN3RRKBJPNBFGD6FGOD06","","","null","","","","","","","",""
"387.2000000476837","","image-keyboard-response","221","204548","0.0-150.0","3GDTJDAPVVXQZUTLIO4VG424FI38MI","A2YGOORS5N9RW8","3XUSYT70ITN3RRKBJPNBFGD6FGOD06","","img/set1/S1.jpg","83","1","random","83","true","random,structured_normal,structured_incentive","1,2,2,3","",""
"null","","html-keyboard-response","222","204907","0.0-151.0","3GDTJDAPVVXQZUTLIO4VG424FI38MI","A2YGOORS5N9RW8","3XUSYT70ITN3RRKBJPNBFGD6FGOD06","","<img src=""img/set1/S1.jpg"" width=""540"" height = ""360"" style=""border:16px solid orange"">","null","","","","","","","",""
"null","","html-keyboard-response","223","204910","0.0-152.0","3GDTJDAPVVXQZUTLIO4VG424FI38MI","A2YGOORS5N9RW8","3XUSYT70ITN3RRKBJPNBFGD6FGOD06","","","null","","","","","","","",""
"826.2999999523163","","image-keyboard-response","224","205739","0.0-153.0","3GDTJDAPVVXQZUTLIO4VG424FI38MI","A2YGOORS5N9RW8","3XUSYT70ITN3RRKBJPNBFGD6FGOD06","","img/set1/S2.jpg","83","2","random","68","false","random,structured_normal,structured_incentive","1,2,2,3","",""
"null","","html-keyboard-response","225","206105","0.0-154.0","3GDTJDAPVVXQZUTLIO4VG424FI38MI","A2YGOORS5N9RW8","3XUSYT70ITN3RRKBJPNBFGD6FGOD06","","<img src=""img/set1/S2.jpg"" width=""540"" height = ""360"">","null","","","","","","","",""
"null","","html-keyboard-response","226","206108","0.0-155.0","3GDTJDAPVVXQZUTLIO4VG424FI38MI","A2YGOORS5N9RW8","3XUSYT70ITN3RRKBJPNBFGD6FGOD06","","","null","","","","","","","",""
"823.1000001430511","","image-keyboard-response","227","206932","0.0-156.0","3GDTJDAPVVXQZUTLIO4VG424FI38MI","A2YGOORS5N9RW8","3XUSYT70ITN3RRKBJPNBFGD6FGOD06","","img/set1/S3.jpg","83","3","random","72","false","random,structured_normal,structured_incentive","1,2,2,3","",""
"null","","html-keyboard-response","228","207301","0.0-157.0","3GDTJDAPVVXQZUTLIO4VG424FI38MI","A2YGOORS5N9RW8","3XUSYT70ITN3RRKBJPNBFGD6FGOD06","","<img src=""img/set1/S3.jpg"" width=""540"" height = ""360"">","null","","","","","","","",""
"null","","html-keyboard-response","229","207325","0.0-158.0","3GDTJDAPVVXQZUTLIO4VG424FI38MI","A2YGOORS5N9RW8","3XUSYT70ITN3RRKBJPNBFGD6FGOD06","","","null","","","","","","","",""
"1088.8999998569489","","image-keyboard-response","230","208416","0.0-159.0","3GDTJDAPVVXQZUTLIO4VG424FI38MI","A2YGOORS5N9RW8","3XUSYT70ITN3RRKBJPNBFGD6FGOD06","","img/set1/S2.jpg","68","2","random","68","true","random,structured_normal,structured_incentive","1,2,2,3","",""
"null","","html-keyboard-response","231","208780","0.0-160.0","3GDTJDAPVVXQZUTLIO4VG424FI38MI","A2YGOORS5N9RW8","3XUSYT70ITN3RRKBJPNBFGD6FGOD06","","<img src=""img/set1/S2.jpg"" width=""540"" height = ""360"" style=""border:16px solid orange"">","null","","","","","","","",""
"null","","html-keyboard-response","232","208784","0.0-161.0","3GDTJDAPVVXQZUTLIO4VG424FI38MI","A2YGOORS5N9RW8","3XUSYT70ITN3RRKBJPNBFGD6FGOD06","","","null","","","","","","","",""
"1046.6000001430511","","image-keyboard-response","233","209833","0.0-162.0","3GDTJDAPVVXQZUTLIO4VG424FI38MI","A2YGOORS5N9RW8","3XUSYT70ITN3RRKBJPNBFGD6FGOD06","","img/set1/S1.jpg","83","1","random","83","true","random,structured_normal,structured_incentive","1,2,2,3","",""
"null","","html-keyboard-response","234","210189","0.0-163.0","3GDTJDAPVVXQZUTLIO4VG424FI38MI","A2YGOORS5N9RW8","3XUSYT70ITN3RRKBJPNBFGD6FGOD06","","<img src=""img/set1/S1.jpg"" width=""540"" height = ""360"" style=""border:16px solid orange"">","null","","","","","","","",""
"null","","html-keyboard-response","235","210192","0.0-164.0","3GDTJDAPVVXQZUTLIO4VG424FI38MI","A2YGOORS5N9RW8","3XUSYT70ITN3RRKBJPNBFGD6FGOD06","","","null","","","","","","","",""
"663.9000000953674","","image-keyboard-response","236","210857","0.0-165.0","3GDTJDAPVVXQZUTLIO4VG424FI38MI","A2YGOORS5N9RW8","3XUSYT70ITN3RRKBJPNBFGD6FGOD06","","img/set1/S4.jpg","74","4","random","74","true","random,structured_normal,structured_incentive","1,2,2,3","",""
"null","","html-keyboard-response","237","211208","0.0-166.0","3GDTJDAPVVXQZUTLIO4VG424FI38MI","A2YGOORS5N9RW8","3XUSYT70ITN3RRKBJPNBFGD6FGOD06","","<img src=""img/set1/S4.jpg"" width=""540"" height = ""360"" style=""border:16px solid orange"">","null","","","","","","","",""
"null","","html-keyboard-response","238","211210","0.0-167.0","3GDTJDAPVVXQZUTLIO4VG424FI38MI","A2YGOORS5N9RW8","3XUSYT70ITN3RRKBJPNBFGD6FGOD06","","","null","","","","","","","",""
"527.6000001430511","","image-keyboard-response","239","211740","0.0-168.0","3GDTJDAPVVXQZUTLIO4VG424FI38MI","A2YGOORS5N9RW8","3XUSYT70ITN3RRKBJPNBFGD6FGOD06","","img/set1/S2.jpg","68","2","random","68","true","random,structured_normal,structured_incentive","1,2,2,3","",""
"null","","html-keyboard-response","240","212102","0.0-169.0","3GDTJDAPVVXQZUTLIO4VG424FI38MI","A2YGOORS5N9RW8","3XUSYT70ITN3RRKBJPNBFGD6FGOD06","","<img src=""img/set1/S2.jpg"" width=""540"" height = ""360"" style=""border:16px solid orange"">","null","","","","","","","",""
"null","","html-keyboard-response","241","212105","0.0-170.0","3GDTJDAPVVXQZUTLIO4VG424FI38MI","A2YGOORS5N9RW8","3XUSYT70ITN3RRKBJPNBFGD6FGOD06","","","null","","","","","","","",""
"416.69999980926514","","image-keyboard-response","242","212524","0.0-171.0","3GDTJDAPVVXQZUTLIO4VG424FI38MI","A2YGOORS5N9RW8","3XUSYT70ITN3RRKBJPNBFGD6FGOD06","","img/set1/S2.jpg","68","2","random","68","true","random,structured_normal,structured_incentive","1,2,2,3","",""
"null","","html-keyboard-response","243","212879","0.0-172.0","3GDTJDAPVVXQZUTLIO4VG424FI38MI","A2YGOORS5N9RW8","3XUSYT70ITN3RRKBJPNBFGD6FGOD06","","<img src=""img/set1/S2.jpg"" width=""540"" height = ""360"" style=""border:16px solid orange"">","null","","","","","","","",""
"null","","html-keyboard-response","244","212883","0.0-173.0","3GDTJDAPVVXQZUTLIO4VG424FI38MI","A2YGOORS5N9RW8","3XUSYT70ITN3RRKBJPNBFGD6FGOD06","","","null","","","","","","","",""
"671.6000001430511","","image-keyboard-response","245","213558","0.0-174.0","3GDTJDAPVVXQZUTLIO4VG424FI38MI","A2YGOORS5N9RW8","3XUSYT70ITN3RRKBJPNBFGD6FGOD06","","img/set1/S4.jpg","74","4","random","74","true","random,structured_normal,structured_incentive","1,2,2,3","",""
"null","","html-keyboard-response","246","213923","0.0-175.0","3GDTJDAPVVXQZUTLIO4VG424FI38MI","A2YGOORS5N9RW8","3XUSYT70ITN3RRKBJPNBFGD6FGOD06","","<img src=""img/set1/S4.jpg"" width=""540"" height = ""360"" style=""border:16px solid orange"">","null","","","","","","","",""
"null","","html-keyboard-response","247","213926","0.0-176.0","3GDTJDAPVVXQZUTLIO4VG424FI38MI","A2YGOORS5N9RW8","3XUSYT70ITN3RRKBJPNBFGD6FGOD06","","","null","","","","","","","",""
"385.90000009536743","","image-keyboard-response","248","214317","0.0-177.0","3GDTJDAPVVXQZUTLIO4VG424FI38MI","A2YGOORS5N9RW8","3XUSYT70ITN3RRKBJPNBFGD6FGOD06","","img/set1/S4.jpg","74","4","random","74","true","random,structured_normal,structured_incentive","1,2,2,3","",""
"null","","html-keyboard-response","249","214688","0.0-178.0","3GDTJDAPVVXQZUTLIO4VG424FI38MI","A2YGOORS5N9RW8","3XUSYT70ITN3RRKBJPNBFGD6FGOD06","","<img src=""img/set1/S4.jpg"" width=""540"" height = ""360"" style=""border:16px solid orange"">","null","","","","","","","",""
"null","","html-keyboard-response","250","214691","0.0-179.0","3GDTJDAPVVXQZUTLIO4VG424FI38MI","A2YGOORS5N9RW8","3XUSYT70ITN3RRKBJPNBFGD6FGOD06","","","null","","","","","","","",""
"548.1999998092651","","image-keyboard-response","251","215241","0.0-180.0","3GDTJDAPVVXQZUTLIO4VG424FI38MI","A2YGOORS5N9RW8","3XUSYT70ITN3RRKBJPNBFGD6FGOD06","","img/set1/S2.jpg","68","2","random","68","true","random,structured_normal,structured_incentive","1,2,2,3","",""
"null","","html-keyboard-response","252","215597","0.0-181.0","3GDTJDAPVVXQZUTLIO4VG424FI38MI","A2YGOORS5N9RW8","3XUSYT70ITN3RRKBJPNBFGD6FGOD06","","<img src=""img/set1/S2.jpg"" width=""540"" height = ""360"" style=""border:16px solid orange"">","null","","","","","","","",""
"null","","html-keyboard-response","253","215599","0.0-182.0","3GDTJDAPVVXQZUTLIO4VG424FI38MI","A2YGOORS5N9RW8","3XUSYT70ITN3RRKBJPNBFGD6FGOD06","","","null","","","","","","","",""
"627.2999999523163","","image-keyboard-response","254","216229","0.0-183.0","3GDTJDAPVVXQZUTLIO4VG424FI38MI","A2YGOORS5N9RW8","3XUSYT70ITN3RRKBJPNBFGD6FGOD06","","img/set1/S1.jpg","83","1","random","83","true","random,structured_normal,structured_incentive","1,2,2,3","",""
"null","","html-keyboard-response","255","216587","0.0-184.0","3GDTJDAPVVXQZUTLIO4VG424FI38MI","A2YGOORS5N9RW8","3XUSYT70ITN3RRKBJPNBFGD6FGOD06","","<img src=""img/set1/S1.jpg"" width=""540"" height = ""360"" style=""border:16px solid orange"">","null","","","","","","","",""
"null","","html-keyboard-response","256","216590","0.0-185.0","3GDTJDAPVVXQZUTLIO4VG424FI38MI","A2YGOORS5N9RW8","3XUSYT70ITN3RRKBJPNBFGD6FGOD06","","","null","","","","","","","",""
"1705.8999998569489","","image-keyboard-response","257","218301","0.0-186.0","3GDTJDAPVVXQZUTLIO4VG424FI38MI","A2YGOORS5N9RW8","3XUSYT70ITN3RRKBJPNBFGD6FGOD06","","img/set1/S3.jpg","74","3","random","72","false","random,structured_normal,structured_incentive","1,2,2,3","",""
"null","","html-keyboard-response","258","218662","0.0-187.0","3GDTJDAPVVXQZUTLIO4VG424FI38MI","A2YGOORS5N9RW8","3XUSYT70ITN3RRKBJPNBFGD6FGOD06","","<img src=""img/set1/S3.jpg"" width=""540"" height = ""360"">","null","","","","","","","",""
"null","","html-keyboard-response","259","218665","0.0-188.0","3GDTJDAPVVXQZUTLIO4VG424FI38MI","A2YGOORS5N9RW8","3XUSYT70ITN3RRKBJPNBFGD6FGOD06","","","null","","","","","","","",""
"883.3999998569489","","image-keyboard-response","260","219549","0.0-189.0","3GDTJDAPVVXQZUTLIO4VG424FI38MI","A2YGOORS5N9RW8","3XUSYT70ITN3RRKBJPNBFGD6FGOD06","","img/set1/S1.jpg","83","1","random","83","true","random,structured_normal,structured_incentive","1,2,2,3","",""
"null","","html-keyboard-response","261","219906","0.0-190.0","3GDTJDAPVVXQZUTLIO4VG424FI38MI","A2YGOORS5N9RW8","3XUSYT70ITN3RRKBJPNBFGD6FGOD06","","<img src=""img/set1/S1.jpg"" width=""540"" height = ""360"" style=""border:16px solid orange"">","null","","","","","","","",""
"null","","html-keyboard-response","262","219909","0.0-191.0","3GDTJDAPVVXQZUTLIO4VG424FI38MI","A2YGOORS5N9RW8","3XUSYT70ITN3RRKBJPNBFGD6FGOD06","","","null","","","","","","","",""
"509.10000014305115","","image-keyboard-response","263","220420","0.0-192.0","3GDTJDAPVVXQZUTLIO4VG424FI38MI","A2YGOORS5N9RW8","3XUSYT70ITN3RRKBJPNBFGD6FGOD06","","img/set1/S4.jpg","74","4","random","74","true","random,structured_normal,structured_incentive","1,2,2,3","",""
"null","","html-keyboard-response","264","220775","0.0-193.0","3GDTJDAPVVXQZUTLIO4VG424FI38MI","A2YGOORS5N9RW8","3XUSYT70ITN3RRKBJPNBFGD6FGOD06","","<img src=""img/set1/S4.jpg"" width=""540"" height = ""360"" style=""border:16px solid orange"">","null","","","","","","","",""
"null","","html-keyboard-response","265","220779","0.0-194.0","3GDTJDAPVVXQZUTLIO4VG424FI38MI","A2YGOORS5N9RW8","3XUSYT70ITN3RRKBJPNBFGD6FGOD06","","","null","","","","","","","",""
"763.1000001430511","","image-keyboard-response","266","221546","0.0-195.0","3GDTJDAPVVXQZUTLIO4VG424FI38MI","A2YGOORS5N9RW8","3XUSYT70ITN3RRKBJPNBFGD6FGOD06","","img/set1/S2.jpg","68","2","random","68","true","random,structured_normal,structured_incentive","1,2,2,3","",""
"null","","html-keyboard-response","267","221907","0.0-196.0","3GDTJDAPVVXQZUTLIO4VG424FI38MI","A2YGOORS5N9RW8","3XUSYT70ITN3RRKBJPNBFGD6FGOD06","","<img src=""img/set1/S2.jpg"" width=""540"" height = ""360"" style=""border:16px solid orange"">","null","","","","","","","",""
"null","","html-keyboard-response","268","221912","0.0-197.0","3GDTJDAPVVXQZUTLIO4VG424FI38MI","A2YGOORS5N9RW8","3XUSYT70ITN3RRKBJPNBFGD6FGOD06","","","null","","","","","","","",""
"650.3999998569489","","image-keyboard-response","269","222565","0.0-198.0","3GDTJDAPVVXQZUTLIO4VG424FI38MI","A2YGOORS5N9RW8","3XUSYT70ITN3RRKBJPNBFGD6FGOD06","","img/set1/S4.jpg","74","4","random","74","true","random,structured_normal,structured_incentive","1,2,2,3","",""
"null","","html-keyboard-response","270","222927","0.0-199.0","3GDTJDAPVVXQZUTLIO4VG424FI38MI","A2YGOORS5N9RW8","3XUSYT70ITN3RRKBJPNBFGD6FGOD06","","<img src=""img/set1/S4.jpg"" width=""540"" height = ""360"" style=""border:16px solid orange"">","null","","","","","","","",""
"null","","html-keyboard-response","271","222930","0.0-200.0","3GDTJDAPVVXQZUTLIO4VG424FI38MI","A2YGOORS5N9RW8","3XUSYT70ITN3RRKBJPNBFGD6FGOD06","","","null","","","","","","","",""
"416.19999980926514","","image-keyboard-response","272","223348","0.0-201.0","3GDTJDAPVVXQZUTLIO4VG424FI38MI","A2YGOORS5N9RW8","3XUSYT70ITN3RRKBJPNBFGD6FGOD06","","img/set1/S2.jpg","68","2","random","68","true","random,structured_normal,structured_incentive","1,2,2,3","",""
"null","","html-keyboard-response","273","223716","0.0-202.0","3GDTJDAPVVXQZUTLIO4VG424FI38MI","A2YGOORS5N9RW8","3XUSYT70ITN3RRKBJPNBFGD6FGOD06","","<img src=""img/set1/S2.jpg"" width=""540"" height = ""360"" style=""border:16px solid orange"">","null","","","","","","","",""
"null","","html-keyboard-response","274","223719","0.0-203.0","3GDTJDAPVVXQZUTLIO4VG424FI38MI","A2YGOORS5N9RW8","3XUSYT70ITN3RRKBJPNBFGD6FGOD06","","","null","","","","","","","",""
"433.19999980926514","","image-keyboard-response","275","224155","0.0-204.0","3GDTJDAPVVXQZUTLIO4VG424FI38MI","A2YGOORS5N9RW8","3XUSYT70ITN3RRKBJPNBFGD6FGOD06","","img/set1/S1.jpg","83","1","random","83","true","random,structured_normal,structured_incentive","1,2,2,3","",""
"null","","html-keyboard-response","276","224519","0.0-205.0","3GDTJDAPVVXQZUTLIO4VG424FI38MI","A2YGOORS5N9RW8","3XUSYT70ITN3RRKBJPNBFGD6FGOD06","","<img src=""img/set1/S1.jpg"" width=""540"" height = ""360"" style=""border:16px solid orange"">","null","","","","","","","",""
"null","","html-keyboard-response","277","224522","0.0-206.0","3GDTJDAPVVXQZUTLIO4VG424FI38MI","A2YGOORS5N9RW8","3XUSYT70ITN3RRKBJPNBFGD6FGOD06","","","null","","","","","","","",""
"529","","image-keyboard-response","278","225053","0.0-207.0","3GDTJDAPVVXQZUTLIO4VG424FI38MI","A2YGOORS5N9RW8","3XUSYT70ITN3RRKBJPNBFGD6FGOD06","","img/set1/S4.jpg","74","4","random","74","true","random,structured_normal,structured_incentive","1,2,2,3","",""
"null","","html-keyboard-response","279","225413","0.0-208.0","3GDTJDAPVVXQZUTLIO4VG424FI38MI","A2YGOORS5N9RW8","3XUSYT70ITN3RRKBJPNBFGD6FGOD06","","<img src=""img/set1/S4.jpg"" width=""540"" height = ""360"" style=""border:16px solid orange"">","null","","","","","","","",""
"null","","html-keyboard-response","280","225416","0.0-209.0","3GDTJDAPVVXQZUTLIO4VG424FI38MI","A2YGOORS5N9RW8","3XUSYT70ITN3RRKBJPNBFGD6FGOD06","","","null","","","","","","","",""
"696.6000001430511","","image-keyboard-response","281","226114","0.0-210.0","3GDTJDAPVVXQZUTLIO4VG424FI38MI","A2YGOORS5N9RW8","3XUSYT70ITN3RRKBJPNBFGD6FGOD06","","img/set1/S1.jpg","83","1","random","83","true","random,structured_normal,structured_incentive","1,2,2,3","",""
"null","","html-keyboard-response","282","226470","0.0-211.0","3GDTJDAPVVXQZUTLIO4VG424FI38MI","A2YGOORS5N9RW8","3XUSYT70ITN3RRKBJPNBFGD6FGOD06","","<img src=""img/set1/S1.jpg"" width=""540"" height = ""360"" style=""border:16px solid orange"">","null","","","","","","","",""
"null","","html-keyboard-response","283","226472","0.0-212.0","3GDTJDAPVVXQZUTLIO4VG424FI38MI","A2YGOORS5N9RW8","3XUSYT70ITN3RRKBJPNBFGD6FGOD06","","","null","","","","","","","",""
"839.5999999046326","","image-keyboard-response","284","227314","0.0-213.0","3GDTJDAPVVXQZUTLIO4VG424FI38MI","A2YGOORS5N9RW8","3XUSYT70ITN3RRKBJPNBFGD6FGOD06","","img/set1/S3.jpg","68","3","random","72","false","random,structured_normal,structured_incentive","1,2,2,3","",""
"null","","html-keyboard-response","285","227675","0.0-214.0","3GDTJDAPVVXQZUTLIO4VG424FI38MI","A2YGOORS5N9RW8","3XUSYT70ITN3RRKBJPNBFGD6FGOD06","","<img src=""img/set1/S3.jpg"" width=""540"" height = ""360"">","null","","","","","","","",""
"null","","html-keyboard-response","286","227677","0.0-215.0","3GDTJDAPVVXQZUTLIO4VG424FI38MI","A2YGOORS5N9RW8","3XUSYT70ITN3RRKBJPNBFGD6FGOD06","","","null","","","","","","","",""
"759.4000000953674","","image-keyboard-response","287","228437","0.0-216.0","3GDTJDAPVVXQZUTLIO4VG424FI38MI","A2YGOORS5N9RW8","3XUSYT70ITN3RRKBJPNBFGD6FGOD06","","img/set1/S1.jpg","83","1","random","83","true","random,structured_normal,structured_incentive","1,2,2,3","",""
"null","","html-keyboard-response","288","228800","0.0-217.0","3GDTJDAPVVXQZUTLIO4VG424FI38MI","A2YGOORS5N9RW8","3XUSYT70ITN3RRKBJPNBFGD6FGOD06","","<img src=""img/set1/S1.jpg"" width=""540"" height = ""360"" style=""border:16px solid orange"">","null","","","","","","","",""
"null","","html-keyboard-response","289","228803","0.0-218.0","3GDTJDAPVVXQZUTLIO4VG424FI38MI","A2YGOORS5N9RW8","3XUSYT70ITN3RRKBJPNBFGD6FGOD06","","","null","","","","","","","",""
"583.7999999523163","","image-keyboard-response","290","229390","0.0-219.0","3GDTJDAPVVXQZUTLIO4VG424FI38MI","A2YGOORS5N9RW8","3XUSYT70ITN3RRKBJPNBFGD6FGOD06","","img/set1/S4.jpg","74","4","random","74","true","random,structured_normal,structured_incentive","1,2,2,3","",""
"null","","html-keyboard-response","291","229757","0.0-220.0","3GDTJDAPVVXQZUTLIO4VG424FI38MI","A2YGOORS5N9RW8","3XUSYT70ITN3RRKBJPNBFGD6FGOD06","","<img src=""img/set1/S4.jpg"" width=""540"" height = ""360"" style=""border:16px solid orange"">","null","","","","","","","",""
"null","","html-keyboard-response","292","229760","0.0-221.0","3GDTJDAPVVXQZUTLIO4VG424FI38MI","A2YGOORS5N9RW8","3XUSYT70ITN3RRKBJPNBFGD6FGOD06","","","null","","","","","","","",""
"669.5999999046326","","image-keyboard-response","293","230431","0.0-222.0","3GDTJDAPVVXQZUTLIO4VG424FI38MI","A2YGOORS5N9RW8","3XUSYT70ITN3RRKBJPNBFGD6FGOD06","","img/set1/S2.jpg","68","2","random","68","true","random,structured_normal,structured_incentive","1,2,2,3","",""
"null","","html-keyboard-response","294","230791","0.0-223.0","3GDTJDAPVVXQZUTLIO4VG424FI38MI","A2YGOORS5N9RW8","3XUSYT70ITN3RRKBJPNBFGD6FGOD06","","<img src=""img/set1/S2.jpg"" width=""540"" height = ""360"" style=""border:16px solid orange"">","null","","","","","","","",""
"null","","html-keyboard-response","295","230793","0.0-224.0","3GDTJDAPVVXQZUTLIO4VG424FI38MI","A2YGOORS5N9RW8","3XUSYT70ITN3RRKBJPNBFGD6FGOD06","","","null","","","","","","","",""
"461.5","","image-keyboard-response","296","231257","0.0-225.0","3GDTJDAPVVXQZUTLIO4VG424FI38MI","A2YGOORS5N9RW8","3XUSYT70ITN3RRKBJPNBFGD6FGOD06","","img/set1/S2.jpg","68","2","random","68","true","random,structured_normal,structured_incentive","1,2,2,3","",""
"null","","html-keyboard-response","297","231619","0.0-226.0","3GDTJDAPVVXQZUTLIO4VG424FI38MI","A2YGOORS5N9RW8","3XUSYT70ITN3RRKBJPNBFGD6FGOD06","","<img src=""img/set1/S2.jpg"" width=""540"" height = ""360"" style=""border:16px solid orange"">","null","","","","","","","",""
"null","","html-keyboard-response","298","231622","0.0-227.0","3GDTJDAPVVXQZUTLIO4VG424FI38MI","A2YGOORS5N9RW8","3XUSYT70ITN3RRKBJPNBFGD6FGOD06","","","null","","","","","","","",""
"676.5","","image-keyboard-response","299","232301","0.0-228.0","3GDTJDAPVVXQZUTLIO4VG424FI38MI","A2YGOORS5N9RW8","3XUSYT70ITN3RRKBJPNBFGD6FGOD06","","img/set1/S1.jpg","83","1","random","83","true","random,structured_normal,structured_incentive","1,2,2,3","",""
"null","","html-keyboard-response","300","232665","0.0-229.0","3GDTJDAPVVXQZUTLIO4VG424FI38MI","A2YGOORS5N9RW8","3XUSYT70ITN3RRKBJPNBFGD6FGOD06","","<img src=""img/set1/S1.jpg"" width=""540"" height = ""360"" style=""border:16px solid orange"">","null","","","","","","","",""
"null","","html-keyboard-response","301","232668","0.0-230.0","3GDTJDAPVVXQZUTLIO4VG424FI38MI","A2YGOORS5N9RW8","3XUSYT70ITN3RRKBJPNBFGD6FGOD06","","","null","","","","","","","",""
"771.7999999523163","","image-keyboard-response","302","233442","0.0-231.0","3GDTJDAPVVXQZUTLIO4VG424FI38MI","A2YGOORS5N9RW8","3XUSYT70ITN3RRKBJPNBFGD6FGOD06","","img/set1/S4.jpg","74","4","random","74","true","random,structured_normal,structured_incentive","1,2,2,3","",""
"null","","html-keyboard-response","303","233800","0.0-232.0","3GDTJDAPVVXQZUTLIO4VG424FI38MI","A2YGOORS5N9RW8","3XUSYT70ITN3RRKBJPNBFGD6FGOD06","","<img src=""img/set1/S4.jpg"" width=""540"" height = ""360"" style=""border:16px solid orange"">","null","","","","","","","",""
"null","","html-keyboard-response","304","233803","0.0-233.0","3GDTJDAPVVXQZUTLIO4VG424FI38MI","A2YGOORS5N9RW8","3XUSYT70ITN3RRKBJPNBFGD6FGOD06","","","null","","","","","","","",""
"534.6000001430511","","image-keyboard-response","305","234345","0.0-234.0","3GDTJDAPVVXQZUTLIO4VG424FI38MI","A2YGOORS5N9RW8","3XUSYT70ITN3RRKBJPNBFGD6FGOD06","","img/set1/S4.jpg","74","4","random","74","true","random,structured_normal,structured_incentive","1,2,2,3","",""
"null","","html-keyboard-response","306","234703","0.0-235.0","3GDTJDAPVVXQZUTLIO4VG424FI38MI","A2YGOORS5N9RW8","3XUSYT70ITN3RRKBJPNBFGD6FGOD06","","<img src=""img/set1/S4.jpg"" width=""540"" height = ""360"" style=""border:16px solid orange"">","null","","","","","","","",""
"null","","html-keyboard-response","307","234706","0.0-236.0","3GDTJDAPVVXQZUTLIO4VG424FI38MI","A2YGOORS5N9RW8","3XUSYT70ITN3RRKBJPNBFGD6FGOD06","","","null","","","","","","","",""
"645.8999998569489","","image-keyboard-response","308","235354","0.0-237.0","3GDTJDAPVVXQZUTLIO4VG424FI38MI","A2YGOORS5N9RW8","3XUSYT70ITN3RRKBJPNBFGD6FGOD06","","img/set1/S1.jpg","83","1","random","83","true","random,structured_normal,structured_incentive","1,2,2,3","",""
"null","","html-keyboard-response","309","235720","0.0-238.0","3GDTJDAPVVXQZUTLIO4VG424FI38MI","A2YGOORS5N9RW8","3XUSYT70ITN3RRKBJPNBFGD6FGOD06","","<img src=""img/set1/S1.jpg"" width=""540"" height = ""360"" style=""border:16px solid orange"">","null","","","","","","","",""
"null","","html-keyboard-response","310","235723","0.0-239.0","3GDTJDAPVVXQZUTLIO4VG424FI38MI","A2YGOORS5N9RW8","3XUSYT70ITN3RRKBJPNBFGD6FGOD06","","","null","","","","","","","",""
"808.8999998569489","","image-keyboard-response","311","236534","0.0-240.0","3GDTJDAPVVXQZUTLIO4VG424FI38MI","A2YGOORS5N9RW8","3XUSYT70ITN3RRKBJPNBFGD6FGOD06","","img/set1/S2.jpg","83","2","random","68","false","random,structured_normal,structured_incentive","1,2,2,3","",""
"null","","html-keyboard-response","312","236889","0.0-241.0","3GDTJDAPVVXQZUTLIO4VG424FI38MI","A2YGOORS5N9RW8","3XUSYT70ITN3RRKBJPNBFGD6FGOD06","","<img src=""img/set1/S2.jpg"" width=""540"" height = ""360"">","null","","","","","","","",""
"null","","html-keyboard-response","313","236892","0.0-242.0","3GDTJDAPVVXQZUTLIO4VG424FI38MI","A2YGOORS5N9RW8","3XUSYT70ITN3RRKBJPNBFGD6FGOD06","","","null","","","","","","","",""
"456.90000009536743","","image-keyboard-response","314","237352","0.0-243.0","3GDTJDAPVVXQZUTLIO4VG424FI38MI","A2YGOORS5N9RW8","3XUSYT70ITN3RRKBJPNBFGD6FGOD06","","img/set1/S2.jpg","68","2","random","68","true","random,structured_normal,structured_incentive","1,2,2,3","",""
"null","","html-keyboard-response","315","237716","0.0-244.0","3GDTJDAPVVXQZUTLIO4VG424FI38MI","A2YGOORS5N9RW8","3XUSYT70ITN3RRKBJPNBFGD6FGOD06","","<img src=""img/set1/S2.jpg"" width=""540"" height = ""360"" style=""border:16px solid orange"">","null","","","","","","","",""
"null","","html-keyboard-response","316","237718","0.0-245.0","3GDTJDAPVVXQZUTLIO4VG424FI38MI","A2YGOORS5N9RW8","3XUSYT70ITN3RRKBJPNBFGD6FGOD06","","","null","","","","","","","",""
"364.59999990463257","","image-keyboard-response","317","238084","0.0-246.0","3GDTJDAPVVXQZUTLIO4VG424FI38MI","A2YGOORS5N9RW8","3XUSYT70ITN3RRKBJPNBFGD6FGOD06","","img/set1/S2.jpg","68","2","random","68","true","random,structured_normal,structured_incentive","1,2,2,3","",""
"null","","html-keyboard-response","318","238451","0.0-247.0","3GDTJDAPVVXQZUTLIO4VG424FI38MI","A2YGOORS5N9RW8","3XUSYT70ITN3RRKBJPNBFGD6FGOD06","","<img src=""img/set1/S2.jpg"" width=""540"" height = ""360"" style=""border:16px solid orange"">","null","","","","","","","",""
"null","","html-keyboard-response","319","238457","0.0-248.0","3GDTJDAPVVXQZUTLIO4VG424FI38MI","A2YGOORS5N9RW8","3XUSYT70ITN3RRKBJPNBFGD6FGOD06","","","null","","","","","","","",""
"678","","image-keyboard-response","320","239137","0.0-249.0","3GDTJDAPVVXQZUTLIO4VG424FI38MI","A2YGOORS5N9RW8","3XUSYT70ITN3RRKBJPNBFGD6FGOD06","","img/set1/S1.jpg","83","1","random","83","true","random,structured_normal,structured_incentive","1,2,2,3","",""
"null","","html-keyboard-response","321","239493","0.0-250.0","3GDTJDAPVVXQZUTLIO4VG424FI38MI","A2YGOORS5N9RW8","3XUSYT70ITN3RRKBJPNBFGD6FGOD06","","<img src=""img/set1/S1.jpg"" width=""540"" height = ""360"" style=""border:16px solid orange"">","null","","","","","","","",""
"null","","html-keyboard-response","322","239497","0.0-251.0","3GDTJDAPVVXQZUTLIO4VG424FI38MI","A2YGOORS5N9RW8","3XUSYT70ITN3RRKBJPNBFGD6FGOD06","","","null","","","","","","","",""
"480.59999990463257","","image-keyboard-response","323","239979","0.0-252.0","3GDTJDAPVVXQZUTLIO4VG424FI38MI","A2YGOORS5N9RW8","3XUSYT70ITN3RRKBJPNBFGD6FGOD06","","img/set1/S1.jpg","83","1","random","83","true","random,structured_normal,structured_incentive","1,2,2,3","",""
"null","","html-keyboard-response","324","240339","0.0-253.0","3GDTJDAPVVXQZUTLIO4VG424FI38MI","A2YGOORS5N9RW8","3XUSYT70ITN3RRKBJPNBFGD6FGOD06","","<img src=""img/set1/S1.jpg"" width=""540"" height = ""360"" style=""border:16px solid orange"">","null","","","","","","","",""
"null","","html-keyboard-response","325","240342","0.0-254.0","3GDTJDAPVVXQZUTLIO4VG424FI38MI","A2YGOORS5N9RW8","3XUSYT70ITN3RRKBJPNBFGD6FGOD06","","","null","","","","","","","",""
"826.3000001907349","","image-keyboard-response","326","241169","0.0-255.0","3GDTJDAPVVXQZUTLIO4VG424FI38MI","A2YGOORS5N9RW8","3XUSYT70ITN3RRKBJPNBFGD6FGOD06","","img/set1/S2.jpg","68","2","random","68","true","random,structured_normal,structured_incentive","1,2,2,3","",""
"null","","html-keyboard-response","327","241522","0.0-256.0","3GDTJDAPVVXQZUTLIO4VG424FI38MI","A2YGOORS5N9RW8","3XUSYT70ITN3RRKBJPNBFGD6FGOD06","","<img src=""img/set1/S2.jpg"" width=""540"" height = ""360"" style=""border:16px solid orange"">","null","","","","","","","",""
"null","","html-keyboard-response","328","241524","0.0-257.0","3GDTJDAPVVXQZUTLIO4VG424FI38MI","A2YGOORS5N9RW8","3XUSYT70ITN3RRKBJPNBFGD6FGOD06","","","null","","","","","","","",""
"474.2999999523163","","image-keyboard-response","329","242000","0.0-258.0","3GDTJDAPVVXQZUTLIO4VG424FI38MI","A2YGOORS5N9RW8","3XUSYT70ITN3RRKBJPNBFGD6FGOD06","","img/set1/S1.jpg","83","1","random","83","true","random,structured_normal,structured_incentive","1,2,2,3","",""
"null","","html-keyboard-response","330","242363","0.0-259.0","3GDTJDAPVVXQZUTLIO4VG424FI38MI","A2YGOORS5N9RW8","3XUSYT70ITN3RRKBJPNBFGD6FGOD06","","<img src=""img/set1/S1.jpg"" width=""540"" height = ""360"" style=""border:16px solid orange"">","null","","","","","","","",""
"null","","html-keyboard-response","331","242366","0.0-260.0","3GDTJDAPVVXQZUTLIO4VG424FI38MI","A2YGOORS5N9RW8","3XUSYT70ITN3RRKBJPNBFGD6FGOD06","","","null","","","","","","","",""
"652.2999999523163","","image-keyboard-response","332","243020","0.0-261.0","3GDTJDAPVVXQZUTLIO4VG424FI38MI","A2YGOORS5N9RW8","3XUSYT70ITN3RRKBJPNBFGD6FGOD06","","img/set1/S4.jpg","74","4","random","74","true","random,structured_normal,structured_incentive","1,2,2,3","",""
"null","","html-keyboard-response","333","243377","0.0-262.0","3GDTJDAPVVXQZUTLIO4VG424FI38MI","A2YGOORS5N9RW8","3XUSYT70ITN3RRKBJPNBFGD6FGOD06","","<img src=""img/set1/S4.jpg"" width=""540"" height = ""360"" style=""border:16px solid orange"">","null","","","","","","","",""
"null","","html-keyboard-response","334","243380","0.0-263.0","3GDTJDAPVVXQZUTLIO4VG424FI38MI","A2YGOORS5N9RW8","3XUSYT70ITN3RRKBJPNBFGD6FGOD06","","","null","","","","","","","",""
"338.2000000476837","","image-keyboard-response","335","243722","0.0-264.0","3GDTJDAPVVXQZUTLIO4VG424FI38MI","A2YGOORS5N9RW8","3XUSYT70ITN3RRKBJPNBFGD6FGOD06","","img/set1/S4.jpg","74","4","random","74","true","random,structured_normal,structured_incentive","1,2,2,3","",""
"null","","html-keyboard-response","336","244077","0.0-265.0","3GDTJDAPVVXQZUTLIO4VG424FI38MI","A2YGOORS5N9RW8","3XUSYT70ITN3RRKBJPNBFGD6FGOD06","","<img src=""img/set1/S4.jpg"" width=""540"" height = ""360"" style=""border:16px solid orange"">","null","","","","","","","",""
"null","","html-keyboard-response","337","244080","0.0-266.0","3GDTJDAPVVXQZUTLIO4VG424FI38MI","A2YGOORS5N9RW8","3XUSYT70ITN3RRKBJPNBFGD6FGOD06","","","null","","","","","","","",""
"671.5999999046326","","image-keyboard-response","338","244754","0.0-267.0","3GDTJDAPVVXQZUTLIO4VG424FI38MI","A2YGOORS5N9RW8","3XUSYT70ITN3RRKBJPNBFGD6FGOD06","","img/set1/S1.jpg","83","1","random","83","true","random,structured_normal,structured_incentive","1,2,2,3","",""
"null","","html-keyboard-response","339","245109","0.0-268.0","3GDTJDAPVVXQZUTLIO4VG424FI38MI","A2YGOORS5N9RW8","3XUSYT70ITN3RRKBJPNBFGD6FGOD06","","<img src=""img/set1/S1.jpg"" width=""540"" height = ""360"" style=""border:16px solid orange"">","null","","","","","","","",""
"null","","html-keyboard-response","340","245112","0.0-269.0","3GDTJDAPVVXQZUTLIO4VG424FI38MI","A2YGOORS5N9RW8","3XUSYT70ITN3RRKBJPNBFGD6FGOD06","","","null","","","","","","","",""
"1969.7000000476837","","image-keyboard-response","341","247083","0.0-270.0","3GDTJDAPVVXQZUTLIO4VG424FI38MI","A2YGOORS5N9RW8","3XUSYT70ITN3RRKBJPNBFGD6FGOD06","","img/set1/S3.jpg","74","3","random","72","false","random,structured_normal,structured_incentive","1,2,2,3","",""
"null","","html-keyboard-response","342","247437","0.0-271.0","3GDTJDAPVVXQZUTLIO4VG424FI38MI","A2YGOORS5N9RW8","3XUSYT70ITN3RRKBJPNBFGD6FGOD06","","<img src=""img/set1/S3.jpg"" width=""540"" height = ""360"">","null","","","","","","","",""
"null","","html-keyboard-response","343","247441","0.0-272.0","3GDTJDAPVVXQZUTLIO4VG424FI38MI","A2YGOORS5N9RW8","3XUSYT70ITN3RRKBJPNBFGD6FGOD06","","","null","","","","","","","",""
"644.2000000476837","","image-keyboard-response","344","248088","0.0-273.0","3GDTJDAPVVXQZUTLIO4VG424FI38MI","A2YGOORS5N9RW8","3XUSYT70ITN3RRKBJPNBFGD6FGOD06","","img/set1/S3.jpg","68","3","random","72","false","random,structured_normal,structured_incentive","1,2,2,3","",""
"null","","html-keyboard-response","345","248445","0.0-274.0","3GDTJDAPVVXQZUTLIO4VG424FI38MI","A2YGOORS5N9RW8","3XUSYT70ITN3RRKBJPNBFGD6FGOD06","","<img src=""img/set1/S3.jpg"" width=""540"" height = ""360"">","null","","","","","","","",""
"null","","html-keyboard-response","346","248448","0.0-275.0","3GDTJDAPVVXQZUTLIO4VG424FI38MI","A2YGOORS5N9RW8","3XUSYT70ITN3RRKBJPNBFGD6FGOD06","","","null","","","","","","","",""
"898.7999999523163","","image-keyboard-response","347","249349","0.0-276.0","3GDTJDAPVVXQZUTLIO4VG424FI38MI","A2YGOORS5N9RW8","3XUSYT70ITN3RRKBJPNBFGD6FGOD06","","img/set1/S2.jpg","68","2","random","68","true","random,structured_normal,structured_incentive","1,2,2,3","",""
"null","","html-keyboard-response","348","249706","0.0-277.0","3GDTJDAPVVXQZUTLIO4VG424FI38MI","A2YGOORS5N9RW8","3XUSYT70ITN3RRKBJPNBFGD6FGOD06","","<img src=""img/set1/S2.jpg"" width=""540"" height = ""360"" style=""border:16px solid orange"">","null","","","","","","","",""
"null","","html-keyboard-response","349","249709","0.0-278.0","3GDTJDAPVVXQZUTLIO4VG424FI38MI","A2YGOORS5N9RW8","3XUSYT70ITN3RRKBJPNBFGD6FGOD06","","","null","","","","","","","",""
"705.4000000953674","","image-keyboard-response","350","250417","0.0-279.0","3GDTJDAPVVXQZUTLIO4VG424FI38MI","A2YGOORS5N9RW8","3XUSYT70ITN3RRKBJPNBFGD6FGOD06","","img/set1/S4.jpg","74","4","random","74","true","random,structured_normal,structured_incentive","1,2,2,3","",""
"null","","html-keyboard-response","351","250782","0.0-280.0","3GDTJDAPVVXQZUTLIO4VG424FI38MI","A2YGOORS5N9RW8","3XUSYT70ITN3RRKBJPNBFGD6FGOD06","","<img src=""img/set1/S4.jpg"" width=""540"" height = ""360"" style=""border:16px solid orange"">","null","","","","","","","",""
"null","","html-keyboard-response","352","250784","0.0-281.0","3GDTJDAPVVXQZUTLIO4VG424FI38MI","A2YGOORS5N9RW8","3XUSYT70ITN3RRKBJPNBFGD6FGOD06","","","null","","","","","","","",""
"1123.5999999046326","","image-keyboard-response","353","251909","0.0-282.0","3GDTJDAPVVXQZUTLIO4VG424FI38MI","A2YGOORS5N9RW8","3XUSYT70ITN3RRKBJPNBFGD6FGOD06","","img/set1/S2.jpg","68","2","random","68","true","random,structured_normal,structured_incentive","1,2,2,3","",""
"null","","html-keyboard-response","354","252272","0.0-283.0","3GDTJDAPVVXQZUTLIO4VG424FI38MI","A2YGOORS5N9RW8","3XUSYT70ITN3RRKBJPNBFGD6FGOD06","","<img src=""img/set1/S2.jpg"" width=""540"" height = ""360"" style=""border:16px solid orange"">","null","","","","","","","",""
"null","","html-keyboard-response","355","252275","0.0-284.0","3GDTJDAPVVXQZUTLIO4VG424FI38MI","A2YGOORS5N9RW8","3XUSYT70ITN3RRKBJPNBFGD6FGOD06","","","null","","","","","","","",""
"551.2999999523163","","image-keyboard-response","356","252828","0.0-285.0","3GDTJDAPVVXQZUTLIO4VG424FI38MI","A2YGOORS5N9RW8","3XUSYT70ITN3RRKBJPNBFGD6FGOD06","","img/set1/S3.jpg","83","3","random","72","false","random,structured_normal,structured_incentive","1,2,2,3","",""
"null","","html-keyboard-response","357","253188","0.0-286.0","3GDTJDAPVVXQZUTLIO4VG424FI38MI","A2YGOORS5N9RW8","3XUSYT70ITN3RRKBJPNBFGD6FGOD06","","<img src=""img/set1/S3.jpg"" width=""540"" height = ""360"">","null","","","","","","","",""
"null","","html-keyboard-response","358","253190","0.0-287.0","3GDTJDAPVVXQZUTLIO4VG424FI38MI","A2YGOORS5N9RW8","3XUSYT70ITN3RRKBJPNBFGD6FGOD06","","","null","","","","","","","",""
"380.7000000476837","","image-keyboard-response","359","253573","0.0-288.0","3GDTJDAPVVXQZUTLIO4VG424FI38MI","A2YGOORS5N9RW8","3XUSYT70ITN3RRKBJPNBFGD6FGOD06","","img/set1/S3.jpg","68","3","random","72","false","random,structured_normal,structured_incentive","1,2,2,3","",""
"null","","html-keyboard-response","360","253929","0.0-289.0","3GDTJDAPVVXQZUTLIO4VG424FI38MI","A2YGOORS5N9RW8","3XUSYT70ITN3RRKBJPNBFGD6FGOD06","","<img src=""img/set1/S3.jpg"" width=""540"" height = ""360"">","null","","","","","","","",""
"null","","html-keyboard-response","361","253937","0.0-290.0","3GDTJDAPVVXQZUTLIO4VG424FI38MI","A2YGOORS5N9RW8","3XUSYT70ITN3RRKBJPNBFGD6FGOD06","","","null","","","","","","","",""
"559.5","","image-keyboard-response","362","254499","0.0-291.0","3GDTJDAPVVXQZUTLIO4VG424FI38MI","A2YGOORS5N9RW8","3XUSYT70ITN3RRKBJPNBFGD6FGOD06","","img/set1/S3.jpg","74","3","random","72","false","random,structured_normal,structured_incentive","1,2,2,3","",""
"null","","html-keyboard-response","363","254859","0.0-292.0","3GDTJDAPVVXQZUTLIO4VG424FI38MI","A2YGOORS5N9RW8","3XUSYT70ITN3RRKBJPNBFGD6FGOD06","","<img src=""img/set1/S3.jpg"" width=""540"" height = ""360"">","null","","","","","","","",""
"null","","html-keyboard-response","364","254861","0.0-293.0","3GDTJDAPVVXQZUTLIO4VG424FI38MI","A2YGOORS5N9RW8","3XUSYT70ITN3RRKBJPNBFGD6FGOD06","","","null","","","","","","","",""
"1140.2000000476837","","image-keyboard-response","365","256002","0.0-294.0","3GDTJDAPVVXQZUTLIO4VG424FI38MI","A2YGOORS5N9RW8","3XUSYT70ITN3RRKBJPNBFGD6FGOD06","","img/set1/S2.jpg","68","2","random","68","true","random,structured_normal,structured_incentive","1,2,2,3","",""
"null","","html-keyboard-response","366","256356","0.0-295.0","3GDTJDAPVVXQZUTLIO4VG424FI38MI","A2YGOORS5N9RW8","3XUSYT70ITN3RRKBJPNBFGD6FGOD06","","<img src=""img/set1/S2.jpg"" width=""540"" height = ""360"" style=""border:16px solid orange"">","null","","","","","","","",""
"null","","html-keyboard-response","367","256358","0.0-296.0","3GDTJDAPVVXQZUTLIO4VG424FI38MI","A2YGOORS5N9RW8","3XUSYT70ITN3RRKBJPNBFGD6FGOD06","","","null","","","","","","","",""
"609.7000000476837","","image-keyboard-response","368","256970","0.0-297.0","3GDTJDAPVVXQZUTLIO4VG424FI38MI","A2YGOORS5N9RW8","3XUSYT70ITN3RRKBJPNBFGD6FGOD06","","img/set1/S4.jpg","74","4","random","74","true","random,structured_normal,structured_incentive","1,2,2,3","",""
"null","","html-keyboard-response","369","257325","0.0-298.0","3GDTJDAPVVXQZUTLIO4VG424FI38MI","A2YGOORS5N9RW8","3XUSYT70ITN3RRKBJPNBFGD6FGOD06","","<img src=""img/set1/S4.jpg"" width=""540"" height = ""360"" style=""border:16px solid orange"">","null","","","","","","","",""
"null","","html-keyboard-response","370","257330","0.0-299.0","3GDTJDAPVVXQZUTLIO4VG424FI38MI","A2YGOORS5N9RW8","3XUSYT70ITN3RRKBJPNBFGD6FGOD06","","","null","","","","","","","",""
"666","","image-keyboard-response","371","257999","0.0-300.0","3GDTJDAPVVXQZUTLIO4VG424FI38MI","A2YGOORS5N9RW8","3XUSYT70ITN3RRKBJPNBFGD6FGOD06","","img/set1/S2.jpg","68","2","random","68","true","random,structured_normal,structured_incentive","1,2,2,3","",""
"null","","html-keyboard-response","372","258353","0.0-301.0","3GDTJDAPVVXQZUTLIO4VG424FI38MI","A2YGOORS5N9RW8","3XUSYT70ITN3RRKBJPNBFGD6FGOD06","","<img src=""img/set1/S2.jpg"" width=""540"" height = ""360"" style=""border:16px solid orange"">","null","","","","","","","",""
"null","","html-keyboard-response","373","258357","0.0-302.0","3GDTJDAPVVXQZUTLIO4VG424FI38MI","A2YGOORS5N9RW8","3XUSYT70ITN3RRKBJPNBFGD6FGOD06","","","null","","","","","","","",""
"637.5999999046326","","image-keyboard-response","374","258997","0.0-303.0","3GDTJDAPVVXQZUTLIO4VG424FI38MI","A2YGOORS5N9RW8","3XUSYT70ITN3RRKBJPNBFGD6FGOD06","","img/set1/S4.jpg","74","4","random","74","true","random,structured_normal,structured_incentive","1,2,2,3","",""
"null","","html-keyboard-response","375","259351","0.0-304.0","3GDTJDAPVVXQZUTLIO4VG424FI38MI","A2YGOORS5N9RW8","3XUSYT70ITN3RRKBJPNBFGD6FGOD06","","<img src=""img/set1/S4.jpg"" width=""540"" height = ""360"" style=""border:16px solid orange"">","null","","","","","","","",""
"null","","html-keyboard-response","376","259355","0.0-305.0","3GDTJDAPVVXQZUTLIO4VG424FI38MI","A2YGOORS5N9RW8","3XUSYT70ITN3RRKBJPNBFGD6FGOD06","","","null","","","","","","","",""
"666.6000001430511","","image-keyboard-response","377","260024","0.0-306.0","3GDTJDAPVVXQZUTLIO4VG424FI38MI","A2YGOORS5N9RW8","3XUSYT70ITN3RRKBJPNBFGD6FGOD06","","img/set1/S1.jpg","83","1","random","83","true","random,structured_normal,structured_incentive","1,2,2,3","",""
"null","","html-keyboard-response","378","260380","0.0-307.0","3GDTJDAPVVXQZUTLIO4VG424FI38MI","A2YGOORS5N9RW8","3XUSYT70ITN3RRKBJPNBFGD6FGOD06","","<img src=""img/set1/S1.jpg"" width=""540"" height = ""360"" style=""border:16px solid orange"">","null","","","","","","","",""
"null","","html-keyboard-response","379","260383","0.0-308.0","3GDTJDAPVVXQZUTLIO4VG424FI38MI","A2YGOORS5N9RW8","3XUSYT70ITN3RRKBJPNBFGD6FGOD06","","","null","","","","","","","",""
"735.3999998569489","","image-keyboard-response","380","261119","0.0-309.0","3GDTJDAPVVXQZUTLIO4VG424FI38MI","A2YGOORS5N9RW8","3XUSYT70ITN3RRKBJPNBFGD6FGOD06","","img/set1/S2.jpg","68","2","random","68","true","random,structured_normal,structured_incentive","1,2,2,3","",""
"null","","html-keyboard-response","381","261475","0.0-310.0","3GDTJDAPVVXQZUTLIO4VG424FI38MI","A2YGOORS5N9RW8","3XUSYT70ITN3RRKBJPNBFGD6FGOD06","","<img src=""img/set1/S2.jpg"" width=""540"" height = ""360"" style=""border:16px solid orange"">","null","","","","","","","",""
"null","","html-keyboard-response","382","261478","0.0-311.0","3GDTJDAPVVXQZUTLIO4VG424FI38MI","A2YGOORS5N9RW8","3XUSYT70ITN3RRKBJPNBFGD6FGOD06","","","null","","","","","","","",""
"1007.3000001907349","","image-keyboard-response","383","262486","0.0-312.0","3GDTJDAPVVXQZUTLIO4VG424FI38MI","A2YGOORS5N9RW8","3XUSYT70ITN3RRKBJPNBFGD6FGOD06","","img/set1/S2.jpg","68","2","random","68","true","random,structured_normal,structured_incentive","1,2,2,3","",""
"null","","html-keyboard-response","384","262854","0.0-313.0","3GDTJDAPVVXQZUTLIO4VG424FI38MI","A2YGOORS5N9RW8","3XUSYT70ITN3RRKBJPNBFGD6FGOD06","","<img src=""img/set1/S2.jpg"" width=""540"" height = ""360"" style=""border:16px solid orange"">","null","","","","","","","",""
"null","","html-keyboard-response","385","262859","0.0-314.0","3GDTJDAPVVXQZUTLIO4VG424FI38MI","A2YGOORS5N9RW8","3XUSYT70ITN3RRKBJPNBFGD6FGOD06","","","null","","","","","","","",""
"424.7999999523163","","image-keyboard-response","386","263288","0.0-315.0","3GDTJDAPVVXQZUTLIO4VG424FI38MI","A2YGOORS5N9RW8","3XUSYT70ITN3RRKBJPNBFGD6FGOD06","","img/set1/S2.jpg","68","2","random","68","true","random,structured_normal,structured_incentive","1,2,2,3","",""
"null","","html-keyboard-response","387","263650","0.0-316.0","3GDTJDAPVVXQZUTLIO4VG424FI38MI","A2YGOORS5N9RW8","3XUSYT70ITN3RRKBJPNBFGD6FGOD06","","<img src=""img/set1/S2.jpg"" width=""540"" height = ""360"" style=""border:16px solid orange"">","null","","","","","","","",""
"null","","html-keyboard-response","388","263654","0.0-317.0","3GDTJDAPVVXQZUTLIO4VG424FI38MI","A2YGOORS5N9RW8","3XUSYT70ITN3RRKBJPNBFGD6FGOD06","","","null","","","","","","","",""
"582.9000000953674","","image-keyboard-response","389","264238","0.0-318.0","3GDTJDAPVVXQZUTLIO4VG424FI38MI","A2YGOORS5N9RW8","3XUSYT70ITN3RRKBJPNBFGD6FGOD06","","img/set1/S4.jpg","74","4","random","74","true","random,structured_normal,structured_incentive","1,2,2,3","",""
"null","","html-keyboard-response","390","264600","0.0-319.0","3GDTJDAPVVXQZUTLIO4VG424FI38MI","A2YGOORS5N9RW8","3XUSYT70ITN3RRKBJPNBFGD6FGOD06","","<img src=""img/set1/S4.jpg"" width=""540"" height = ""360"" style=""border:16px solid orange"">","null","","","","","","","",""
"null","","html-keyboard-response","391","264604","0.0-320.0","3GDTJDAPVVXQZUTLIO4VG424FI38MI","A2YGOORS5N9RW8","3XUSYT70ITN3RRKBJPNBFGD6FGOD06","","","null","","","","","","","",""
"587.7999999523163","","image-keyboard-response","392","265194","0.0-321.0","3GDTJDAPVVXQZUTLIO4VG424FI38MI","A2YGOORS5N9RW8","3XUSYT70ITN3RRKBJPNBFGD6FGOD06","","img/set1/S1.jpg","83","1","random","83","true","random,structured_normal,structured_incentive","1,2,2,3","",""
"null","","html-keyboard-response","393","265553","0.0-322.0","3GDTJDAPVVXQZUTLIO4VG424FI38MI","A2YGOORS5N9RW8","3XUSYT70ITN3RRKBJPNBFGD6FGOD06","","<img src=""img/set1/S1.jpg"" width=""540"" height = ""360"" style=""border:16px solid orange"">","null","","","","","","","",""
"null","","html-keyboard-response","394","265556","0.0-323.0","3GDTJDAPVVXQZUTLIO4VG424FI38MI","A2YGOORS5N9RW8","3XUSYT70ITN3RRKBJPNBFGD6FGOD06","","","null","","","","","","","",""
"786.7000000476837","","image-keyboard-response","395","266346","0.0-324.0","3GDTJDAPVVXQZUTLIO4VG424FI38MI","A2YGOORS5N9RW8","3XUSYT70ITN3RRKBJPNBFGD6FGOD06","","img/set1/S1.jpg","83","1","random","83","true","random,structured_normal,structured_incentive","1,2,2,3","",""
"null","","html-keyboard-response","396","266703","0.0-325.0","3GDTJDAPVVXQZUTLIO4VG424FI38MI","A2YGOORS5N9RW8","3XUSYT70ITN3RRKBJPNBFGD6FGOD06","","<img src=""img/set1/S1.jpg"" width=""540"" height = ""360"" style=""border:16px solid orange"">","null","","","","","","","",""
"null","","html-keyboard-response","397","266706","0.0-326.0","3GDTJDAPVVXQZUTLIO4VG424FI38MI","A2YGOORS5N9RW8","3XUSYT70ITN3RRKBJPNBFGD6FGOD06","","","null","","","","","","","",""
"677.5999999046326","","image-keyboard-response","398","267387","0.0-327.0","3GDTJDAPVVXQZUTLIO4VG424FI38MI","A2YGOORS5N9RW8","3XUSYT70ITN3RRKBJPNBFGD6FGOD06","","img/set1/S2.jpg","68","2","random","68","true","random,structured_normal,structured_incentive","1,2,2,3","",""
"null","","html-keyboard-response","399","267751","0.0-328.0","3GDTJDAPVVXQZUTLIO4VG424FI38MI","A2YGOORS5N9RW8","3XUSYT70ITN3RRKBJPNBFGD6FGOD06","","<img src=""img/set1/S2.jpg"" width=""540"" height = ""360"" style=""border:16px solid orange"">","null","","","","","","","",""
"null","","html-keyboard-response","400","267753","0.0-329.0","3GDTJDAPVVXQZUTLIO4VG424FI38MI","A2YGOORS5N9RW8","3XUSYT70ITN3RRKBJPNBFGD6FGOD06","","","null","","","","","","","",""
"553.7999999523163","","image-keyboard-response","401","268310","0.0-330.0","3GDTJDAPVVXQZUTLIO4VG424FI38MI","A2YGOORS5N9RW8","3XUSYT70ITN3RRKBJPNBFGD6FGOD06","","img/set1/S3.jpg","74","3","random","72","false","random,structured_normal,structured_incentive","1,2,2,3","",""
"null","","html-keyboard-response","402","268663","0.0-331.0","3GDTJDAPVVXQZUTLIO4VG424FI38MI","A2YGOORS5N9RW8","3XUSYT70ITN3RRKBJPNBFGD6FGOD06","","<img src=""img/set1/S3.jpg"" width=""540"" height = ""360"">","null","","","","","","","",""
"null","","html-keyboard-response","403","268667","0.0-332.0","3GDTJDAPVVXQZUTLIO4VG424FI38MI","A2YGOORS5N9RW8","3XUSYT70ITN3RRKBJPNBFGD6FGOD06","","","null","","","","","","","",""
"800.2999999523163","","image-keyboard-response","404","269469","0.0-333.0","3GDTJDAPVVXQZUTLIO4VG424FI38MI","A2YGOORS5N9RW8","3XUSYT70ITN3RRKBJPNBFGD6FGOD06","","img/set1/S2.jpg","68","2","random","68","true","random,structured_normal,structured_incentive","1,2,2,3","",""
"null","","html-keyboard-response","405","269831","0.0-334.0","3GDTJDAPVVXQZUTLIO4VG424FI38MI","A2YGOORS5N9RW8","3XUSYT70ITN3RRKBJPNBFGD6FGOD06","","<img src=""img/set1/S2.jpg"" width=""540"" height = ""360"" style=""border:16px solid orange"">","null","","","","","","","",""
"null","","html-keyboard-response","406","269834","0.0-335.0","3GDTJDAPVVXQZUTLIO4VG424FI38MI","A2YGOORS5N9RW8","3XUSYT70ITN3RRKBJPNBFGD6FGOD06","","","null","","","","","","","",""
"550.3000001907349","","image-keyboard-response","407","270386","0.0-336.0","3GDTJDAPVVXQZUTLIO4VG424FI38MI","A2YGOORS5N9RW8","3XUSYT70ITN3RRKBJPNBFGD6FGOD06","","img/set1/S1.jpg","83","1","random","83","true","random,structured_normal,structured_incentive","1,2,2,3","",""
"null","","html-keyboard-response","408","270746","0.0-337.0","3GDTJDAPVVXQZUTLIO4VG424FI38MI","A2YGOORS5N9RW8","3XUSYT70ITN3RRKBJPNBFGD6FGOD06","","<img src=""img/set1/S1.jpg"" width=""540"" height = ""360"" style=""border:16px solid orange"">","null","","","","","","","",""
"null","","html-keyboard-response","409","270749","0.0-338.0","3GDTJDAPVVXQZUTLIO4VG424FI38MI","A2YGOORS5N9RW8","3XUSYT70ITN3RRKBJPNBFGD6FGOD06","","","null","","","","","","","",""
"736","","image-keyboard-response","410","271487","0.0-339.0","3GDTJDAPVVXQZUTLIO4VG424FI38MI","A2YGOORS5N9RW8","3XUSYT70ITN3RRKBJPNBFGD6FGOD06","","img/set1/S4.jpg","74","4","random","74","true","random,structured_normal,structured_incentive","1,2,2,3","",""
"null","","html-keyboard-response","411","271851","0.0-340.0","3GDTJDAPVVXQZUTLIO4VG424FI38MI","A2YGOORS5N9RW8","3XUSYT70ITN3RRKBJPNBFGD6FGOD06","","<img src=""img/set1/S4.jpg"" width=""540"" height = ""360"" style=""border:16px solid orange"">","null","","","","","","","",""
"null","","html-keyboard-response","412","271854","0.0-341.0","3GDTJDAPVVXQZUTLIO4VG424FI38MI","A2YGOORS5N9RW8","3XUSYT70ITN3RRKBJPNBFGD6FGOD06","","","null","","","","","","","",""
"694.5","","image-keyboard-response","413","272549","0.0-342.0","3GDTJDAPVVXQZUTLIO4VG424FI38MI","A2YGOORS5N9RW8","3XUSYT70ITN3RRKBJPNBFGD6FGOD06","","img/set1/S1.jpg","83","1","random","83","true","random,structured_normal,structured_incentive","1,2,2,3","",""
"null","","html-keyboard-response","414","272912","0.0-343.0","3GDTJDAPVVXQZUTLIO4VG424FI38MI","A2YGOORS5N9RW8","3XUSYT70ITN3RRKBJPNBFGD6FGOD06","","<img src=""img/set1/S1.jpg"" width=""540"" height = ""360"" style=""border:16px solid orange"">","null","","","","","","","",""
"null","","html-keyboard-response","415","272917","0.0-344.0","3GDTJDAPVVXQZUTLIO4VG424FI38MI","A2YGOORS5N9RW8","3XUSYT70ITN3RRKBJPNBFGD6FGOD06","","","null","","","","","","","",""
