"rt","url","trial_type","trial_index","time_elapsed","internal_node_id","assignmentID","mturkID","hitID","view_history","stimulus","key_press","state","test_part","correct_response","correct","order_block","order_chunk","bonus","responses"
"5228.600000023842","consent.html","external-html","0","5288","0.0-0.0","3PXX5PX6LYK8ZRI3OXY0YFX5T7ZBA0","A30W987G9S6F0G","3R5LWXWHR0UE010DORDQUF3E2FPGXE","","","","","","","","","","",""
"84881.69999998808","","instructions","1","90174","0.0-1.0","3PXX5PX6LYK8ZRI3OXY0YFX5T7ZBA0","A30W987G9S6F0G","3R5LWXWHR0UE010DORDQUF3E2FPGXE","[{""page_index"":0,""viewing_time"":4613.400000035763},{""page_index"":1,""viewing_time"":5587.799999952316},{""page_index"":2,""viewing_time"":8274},{""page_index"":3,""viewing_time"":27515.900000035763},{""page_index"":4,""viewing_time"":4040.199999988079},{""page_index"":5,""viewing_time"":10598},{""page_index"":6,""viewing_time"":4869.800000011921},{""page_index"":7,""viewing_time"":19382.099999964237}]","","","","","","","","","",""
"2345.899999976158","","image-keyboard-response","2","92521","0.0-2.0-0.0","3PXX5PX6LYK8ZRI3OXY0YFX5T7ZBA0","A30W987G9S6F0G","3R5LWXWHR0UE010DORDQUF3E2FPGXE","","img/practice/S1.jpg","83","1","practice","83","true","","","",""
"null","","html-keyboard-response","3","92830","0.0-2.0-1.0","3PXX5PX6LYK8ZRI3OXY0YFX5T7ZBA0","A30W987G9S6F0G","3R5LWXWHR0UE010DORDQUF3E2FPGXE","","<img src=""img/practice/S1.jpg"" width=""540"" height = ""360"" style=""border:16px solid orange"">","null","","","","","","","",""
"null","","html-keyboard-response","4","92833","0.0-2.0-2.0","3PXX5PX6LYK8ZRI3OXY0YFX5T7ZBA0","A30W987G9S6F0G","3R5LWXWHR0UE010DORDQUF3E2FPGXE","","","null","","","","","","","",""
"1126.3999999761581","","image-keyboard-response","5","93960","0.0-2.0-0.1","3PXX5PX6LYK8ZRI3OXY0YFX5T7ZBA0","A30W987G9S6F0G","3R5LWXWHR0UE010DORDQUF3E2FPGXE","","img/practice/S2.jpg","68","2","practice","68","true","","","",""
"null","","html-keyboard-response","6","94262","0.0-2.0-1.1","3PXX5PX6LYK8ZRI3OXY0YFX5T7ZBA0","A30W987G9S6F0G","3R5LWXWHR0UE010DORDQUF3E2FPGXE","","<img src=""img/practice/S2.jpg"" width=""540"" height = ""360"" style=""border:16px solid orange"">","null","","","","","","","",""
"null","","html-keyboard-response","7","94264","0.0-2.0-2.1","3PXX5PX6LYK8ZRI3OXY0YFX5T7ZBA0","A30W987G9S6F0G","3R5LWXWHR0UE010DORDQUF3E2FPGXE","","","null","","","","","","","",""
"591.6999999880791","","image-keyboard-response","8","94856","0.0-2.0-0.2","3PXX5PX6LYK8ZRI3OXY0YFX5T7ZBA0","A30W987G9S6F0G","3R5LWXWHR0UE010DORDQUF3E2FPGXE","","img/practice/S3.jpg","72","3","practice","72","true","","","",""
"null","","html-keyboard-response","9","95167","0.0-2.0-1.2","3PXX5PX6LYK8ZRI3OXY0YFX5T7ZBA0","A30W987G9S6F0G","3R5LWXWHR0UE010DORDQUF3E2FPGXE","","<img src=""img/practice/S3.jpg"" width=""540"" height = ""360"" style=""border:16px solid orange"">","null","","","","","","","",""
"null","","html-keyboard-response","10","95169","0.0-2.0-2.2","3PXX5PX6LYK8ZRI3OXY0YFX5T7ZBA0","A30W987G9S6F0G","3R5LWXWHR0UE010DORDQUF3E2FPGXE","","","null","","","","","","","",""
"358.80000001192093","","image-keyboard-response","11","95528","0.0-2.0-0.3","3PXX5PX6LYK8ZRI3OXY0YFX5T7ZBA0","A30W987G9S6F0G","3R5LWXWHR0UE010DORDQUF3E2FPGXE","","img/practice/S4.jpg","74","4","practice","74","true","","","",""
"null","","html-keyboard-response","12","95842","0.0-2.0-1.3","3PXX5PX6LYK8ZRI3OXY0YFX5T7ZBA0","A30W987G9S6F0G","3R5LWXWHR0UE010DORDQUF3E2FPGXE","","<img src=""img/practice/S4.jpg"" width=""540"" height = ""360"" style=""border:16px solid orange"">","null","","","","","","","",""
"null","","html-keyboard-response","13","95844","0.0-2.0-2.3","3PXX5PX6LYK8ZRI3OXY0YFX5T7ZBA0","A30W987G9S6F0G","3R5LWXWHR0UE010DORDQUF3E2FPGXE","","","null","","","","","","","",""
"907.5999999642372","","image-keyboard-response","14","96752","0.0-2.0-0.4","3PXX5PX6LYK8ZRI3OXY0YFX5T7ZBA0","A30W987G9S6F0G","3R5LWXWHR0UE010DORDQUF3E2FPGXE","","img/practice/S2.jpg","74","2","practice","68","false","","","",""
"null","","html-keyboard-response","15","97068","0.0-2.0-1.4","3PXX5PX6LYK8ZRI3OXY0YFX5T7ZBA0","A30W987G9S6F0G","3R5LWXWHR0UE010DORDQUF3E2FPGXE","","<img src=""img/practice/S2.jpg"" width=""540"" height = ""360"">","null","","","","","","","",""
"null","","html-keyboard-response","16","97069","0.0-2.0-2.4","3PXX5PX6LYK8ZRI3OXY0YFX5T7ZBA0","A30W987G9S6F0G","3R5LWXWHR0UE010DORDQUF3E2FPGXE","","","null","","","","","","","",""
"74.19999998807907","","image-keyboard-response","17","97144","0.0-2.0-0.5","3PXX5PX6LYK8ZRI3OXY0YFX5T7ZBA0","A30W987G9S6F0G","3R5LWXWHR0UE010DORDQUF3E2FPGXE","","img/practice/S4.jpg","74","4","practice","74","true","","","",""
"null","","html-keyboard-response","18","97455","0.0-2.0-1.5","3PXX5PX6LYK8ZRI3OXY0YFX5T7ZBA0","A30W987G9S6F0G","3R5LWXWHR0UE010DORDQUF3E2FPGXE","","<img src=""img/practice/S4.jpg"" width=""540"" height = ""360"" style=""border:16px solid orange"">","null","","","","","","","",""
"null","","html-keyboard-response","19","97457","0.0-2.0-2.5","3PXX5PX6LYK8ZRI3OXY0YFX5T7ZBA0","A30W987G9S6F0G","3R5LWXWHR0UE010DORDQUF3E2FPGXE","","","null","","","","","","","",""
"775.6999999880791","","image-keyboard-response","20","98234","0.0-2.0-0.6","3PXX5PX6LYK8ZRI3OXY0YFX5T7ZBA0","A30W987G9S6F0G","3R5LWXWHR0UE010DORDQUF3E2FPGXE","","img/practice/S3.jpg","83","3","practice","72","false","","","",""
"null","","html-keyboard-response","21","98540","0.0-2.0-1.6","3PXX5PX6LYK8ZRI3OXY0YFX5T7ZBA0","A30W987G9S6F0G","3R5LWXWHR0UE010DORDQUF3E2FPGXE","","<img src=""img/practice/S3.jpg"" width=""540"" height = ""360"">","null","","","","","","","",""
"null","","html-keyboard-response","22","98542","0.0-2.0-2.6","3PXX5PX6LYK8ZRI3OXY0YFX5T7ZBA0","A30W987G9S6F0G","3R5LWXWHR0UE010DORDQUF3E2FPGXE","","","null","","","","","","","",""
"489.80000001192093","","image-keyboard-response","23","99032","0.0-2.0-0.7","3PXX5PX6LYK8ZRI3OXY0YFX5T7ZBA0","A30W987G9S6F0G","3R5LWXWHR0UE010DORDQUF3E2FPGXE","","img/practice/S1.jpg","68","1","practice","83","false","","","",""
"null","","html-keyboard-response","24","99335","0.0-2.0-1.7","3PXX5PX6LYK8ZRI3OXY0YFX5T7ZBA0","A30W987G9S6F0G","3R5LWXWHR0UE010DORDQUF3E2FPGXE","","<img src=""img/practice/S1.jpg"" width=""540"" height = ""360"">","null","","","","","","","",""
"null","","html-keyboard-response","25","99337","0.0-2.0-2.7","3PXX5PX6LYK8ZRI3OXY0YFX5T7ZBA0","A30W987G9S6F0G","3R5LWXWHR0UE010DORDQUF3E2FPGXE","","","null","","","","","","","",""
"1238.1000000238419","","image-keyboard-response","26","100576","0.0-2.0-0.8","3PXX5PX6LYK8ZRI3OXY0YFX5T7ZBA0","A30W987G9S6F0G","3R5LWXWHR0UE010DORDQUF3E2FPGXE","","img/practice/S1.jpg","72","1","practice","83","false","","","",""
"null","","html-keyboard-response","27","100884","0.0-2.0-1.8","3PXX5PX6LYK8ZRI3OXY0YFX5T7ZBA0","A30W987G9S6F0G","3R5LWXWHR0UE010DORDQUF3E2FPGXE","","<img src=""img/practice/S1.jpg"" width=""540"" height = ""360"">","null","","","","","","","",""
"null","","html-keyboard-response","28","100885","0.0-2.0-2.8","3PXX5PX6LYK8ZRI3OXY0YFX5T7ZBA0","A30W987G9S6F0G","3R5LWXWHR0UE010DORDQUF3E2FPGXE","","","null","","","","","","","",""
"1626.0999999642372","","image-keyboard-response","29","102512","0.0-2.0-0.9","3PXX5PX6LYK8ZRI3OXY0YFX5T7ZBA0","A30W987G9S6F0G","3R5LWXWHR0UE010DORDQUF3E2FPGXE","","img/practice/S2.jpg","83","2","practice","68","false","","","",""
"null","","html-keyboard-response","30","102825","0.0-2.0-1.9","3PXX5PX6LYK8ZRI3OXY0YFX5T7ZBA0","A30W987G9S6F0G","3R5LWXWHR0UE010DORDQUF3E2FPGXE","","<img src=""img/practice/S2.jpg"" width=""540"" height = ""360"">","null","","","","","","","",""
"null","","html-keyboard-response","31","102828","0.0-2.0-2.9","3PXX5PX6LYK8ZRI3OXY0YFX5T7ZBA0","A30W987G9S6F0G","3R5LWXWHR0UE010DORDQUF3E2FPGXE","","","null","","","","","","","",""
"787.8000000119209","","image-keyboard-response","32","103616","0.0-2.0-0.10","3PXX5PX6LYK8ZRI3OXY0YFX5T7ZBA0","A30W987G9S6F0G","3R5LWXWHR0UE010DORDQUF3E2FPGXE","","img/practice/S3.jpg","68","3","practice","72","false","","","",""
"null","","html-keyboard-response","33","103928","0.0-2.0-1.10","3PXX5PX6LYK8ZRI3OXY0YFX5T7ZBA0","A30W987G9S6F0G","3R5LWXWHR0UE010DORDQUF3E2FPGXE","","<img src=""img/practice/S3.jpg"" width=""540"" height = ""360"">","null","","","","","","","",""
"null","","html-keyboard-response","34","103930","0.0-2.0-2.10","3PXX5PX6LYK8ZRI3OXY0YFX5T7ZBA0","A30W987G9S6F0G","3R5LWXWHR0UE010DORDQUF3E2FPGXE","","","null","","","","","","","",""
"773.8000000119209","","image-keyboard-response","35","104704","0.0-2.0-0.11","3PXX5PX6LYK8ZRI3OXY0YFX5T7ZBA0","A30W987G9S6F0G","3R5LWXWHR0UE010DORDQUF3E2FPGXE","","img/practice/S4.jpg","74","4","practice","74","true","","","",""
"null","","html-keyboard-response","36","105011","0.0-2.0-1.11","3PXX5PX6LYK8ZRI3OXY0YFX5T7ZBA0","A30W987G9S6F0G","3R5LWXWHR0UE010DORDQUF3E2FPGXE","","<img src=""img/practice/S4.jpg"" width=""540"" height = ""360"" style=""border:16px solid orange"">","null","","","","","","","",""
"null","","html-keyboard-response","37","105014","0.0-2.0-2.11","3PXX5PX6LYK8ZRI3OXY0YFX5T7ZBA0","A30W987G9S6F0G","3R5LWXWHR0UE010DORDQUF3E2FPGXE","","","null","","","","","","","",""
"1769.5","","image-keyboard-response","38","106784","0.0-2.0-0.12","3PXX5PX6LYK8ZRI3OXY0YFX5T7ZBA0","A30W987G9S6F0G","3R5LWXWHR0UE010DORDQUF3E2FPGXE","","img/practice/S2.jpg","68","2","practice","68","true","","","",""
"null","","html-keyboard-response","39","107090","0.0-2.0-1.12","3PXX5PX6LYK8ZRI3OXY0YFX5T7ZBA0","A30W987G9S6F0G","3R5LWXWHR0UE010DORDQUF3E2FPGXE","","<img src=""img/practice/S2.jpg"" width=""540"" height = ""360"" style=""border:16px solid orange"">","null","","","","","","","",""
"null","","html-keyboard-response","40","107092","0.0-2.0-2.12","3PXX5PX6LYK8ZRI3OXY0YFX5T7ZBA0","A30W987G9S6F0G","3R5LWXWHR0UE010DORDQUF3E2FPGXE","","","null","","","","","","","",""
"995.6000000238419","","image-keyboard-response","41","108088","0.0-2.0-0.13","3PXX5PX6LYK8ZRI3OXY0YFX5T7ZBA0","A30W987G9S6F0G","3R5LWXWHR0UE010DORDQUF3E2FPGXE","","img/practice/S4.jpg","74","4","practice","74","true","","","",""
"null","","html-keyboard-response","42","108400","0.0-2.0-1.13","3PXX5PX6LYK8ZRI3OXY0YFX5T7ZBA0","A30W987G9S6F0G","3R5LWXWHR0UE010DORDQUF3E2FPGXE","","<img src=""img/practice/S4.jpg"" width=""540"" height = ""360"" style=""border:16px solid orange"">","null","","","","","","","",""
"null","","html-keyboard-response","43","108402","0.0-2.0-2.13","3PXX5PX6LYK8ZRI3OXY0YFX5T7ZBA0","A30W987G9S6F0G","3R5LWXWHR0UE010DORDQUF3E2FPGXE","","","null","","","","","","","",""
"1015.6999999880791","","image-keyboard-response","44","109418","0.0-2.0-0.14","3PXX5PX6LYK8ZRI3OXY0YFX5T7ZBA0","A30W987G9S6F0G","3R5LWXWHR0UE010DORDQUF3E2FPGXE","","img/practice/S3.jpg","83","3","practice","72","false","","","",""
"null","","html-keyboard-response","45","109720","0.0-2.0-1.14","3PXX5PX6LYK8ZRI3OXY0YFX5T7ZBA0","A30W987G9S6F0G","3R5LWXWHR0UE010DORDQUF3E2FPGXE","","<img src=""img/practice/S3.jpg"" width=""540"" height = ""360"">","null","","","","","","","",""
"null","","html-keyboard-response","46","109723","0.0-2.0-2.14","3PXX5PX6LYK8ZRI3OXY0YFX5T7ZBA0","A30W987G9S6F0G","3R5LWXWHR0UE010DORDQUF3E2FPGXE","","","null","","","","","","","",""
"844.5","","image-keyboard-response","47","110568","0.0-2.0-0.15","3PXX5PX6LYK8ZRI3OXY0YFX5T7ZBA0","A30W987G9S6F0G","3R5LWXWHR0UE010DORDQUF3E2FPGXE","","img/practice/S1.jpg","83","1","practice","83","true","","","",""
"null","","html-keyboard-response","48","110873","0.0-2.0-1.15","3PXX5PX6LYK8ZRI3OXY0YFX5T7ZBA0","A30W987G9S6F0G","3R5LWXWHR0UE010DORDQUF3E2FPGXE","","<img src=""img/practice/S1.jpg"" width=""540"" height = ""360"" style=""border:16px solid orange"">","null","","","","","","","",""
"null","","html-keyboard-response","49","110876","0.0-2.0-2.15","3PXX5PX6LYK8ZRI3OXY0YFX5T7ZBA0","A30W987G9S6F0G","3R5LWXWHR0UE010DORDQUF3E2FPGXE","","","null","","","","","","","",""
"1323.9000000357628","","image-keyboard-response","50","112200","0.0-2.0-0.16","3PXX5PX6LYK8ZRI3OXY0YFX5T7ZBA0","A30W987G9S6F0G","3R5LWXWHR0UE010DORDQUF3E2FPGXE","","img/practice/S3.jpg","68","3","practice","72","false","","","",""
"null","","html-keyboard-response","51","112511","0.0-2.0-1.16","3PXX5PX6LYK8ZRI3OXY0YFX5T7ZBA0","A30W987G9S6F0G","3R5LWXWHR0UE010DORDQUF3E2FPGXE","","<img src=""img/practice/S3.jpg"" width=""540"" height = ""360"">","null","","","","","","","",""
"null","","html-keyboard-response","52","112512","0.0-2.0-2.16","3PXX5PX6LYK8ZRI3OXY0YFX5T7ZBA0","A30W987G9S6F0G","3R5LWXWHR0UE010DORDQUF3E2FPGXE","","","null","","","","","","","",""
"934.8999999761581","","image-keyboard-response","53","113448","0.0-2.0-0.17","3PXX5PX6LYK8ZRI3OXY0YFX5T7ZBA0","A30W987G9S6F0G","3R5LWXWHR0UE010DORDQUF3E2FPGXE","","img/practice/S1.jpg","83","1","practice","83","true","","","",""
"null","","html-keyboard-response","54","113760","0.0-2.0-1.17","3PXX5PX6LYK8ZRI3OXY0YFX5T7ZBA0","A30W987G9S6F0G","3R5LWXWHR0UE010DORDQUF3E2FPGXE","","<img src=""img/practice/S1.jpg"" width=""540"" height = ""360"" style=""border:16px solid orange"">","null","","","","","","","",""
"null","","html-keyboard-response","55","113762","0.0-2.0-2.17","3PXX5PX6LYK8ZRI3OXY0YFX5T7ZBA0","A30W987G9S6F0G","3R5LWXWHR0UE010DORDQUF3E2FPGXE","","","null","","","","","","","",""
"1445.300000011921","","image-keyboard-response","56","115208","0.0-2.0-0.18","3PXX5PX6LYK8ZRI3OXY0YFX5T7ZBA0","A30W987G9S6F0G","3R5LWXWHR0UE010DORDQUF3E2FPGXE","","img/practice/S2.jpg","72","2","practice","68","false","","","",""
"null","","html-keyboard-response","57","115516","0.0-2.0-1.18","3PXX5PX6LYK8ZRI3OXY0YFX5T7ZBA0","A30W987G9S6F0G","3R5LWXWHR0UE010DORDQUF3E2FPGXE","","<img src=""img/practice/S2.jpg"" width=""540"" height = ""360"">","null","","","","","","","",""
"null","","html-keyboard-response","58","115518","0.0-2.0-2.18","3PXX5PX6LYK8ZRI3OXY0YFX5T7ZBA0","A30W987G9S6F0G","3R5LWXWHR0UE010DORDQUF3E2FPGXE","","","null","","","","","","","",""
"929.4000000357628","","image-keyboard-response","59","116448","0.0-2.0-0.19","3PXX5PX6LYK8ZRI3OXY0YFX5T7ZBA0","A30W987G9S6F0G","3R5LWXWHR0UE010DORDQUF3E2FPGXE","","img/practice/S4.jpg","74","4","practice","74","true","","","",""
"null","","html-keyboard-response","60","116759","0.0-2.0-1.19","3PXX5PX6LYK8ZRI3OXY0YFX5T7ZBA0","A30W987G9S6F0G","3R5LWXWHR0UE010DORDQUF3E2FPGXE","","<img src=""img/practice/S4.jpg"" width=""540"" height = ""360"" style=""border:16px solid orange"">","null","","","","","","","",""
"null","","html-keyboard-response","61","116761","0.0-2.0-2.19","3PXX5PX6LYK8ZRI3OXY0YFX5T7ZBA0","A30W987G9S6F0G","3R5LWXWHR0UE010DORDQUF3E2FPGXE","","","null","","","","","","","",""
"638.1999999880791","","image-keyboard-response","62","117400","0.0-2.0-0.20","3PXX5PX6LYK8ZRI3OXY0YFX5T7ZBA0","A30W987G9S6F0G","3R5LWXWHR0UE010DORDQUF3E2FPGXE","","img/practice/S4.jpg","74","4","practice","74","true","","","",""
"null","","html-keyboard-response","63","117711","0.0-2.0-1.20","3PXX5PX6LYK8ZRI3OXY0YFX5T7ZBA0","A30W987G9S6F0G","3R5LWXWHR0UE010DORDQUF3E2FPGXE","","<img src=""img/practice/S4.jpg"" width=""540"" height = ""360"" style=""border:16px solid orange"">","null","","","","","","","",""
"null","","html-keyboard-response","64","117713","0.0-2.0-2.20","3PXX5PX6LYK8ZRI3OXY0YFX5T7ZBA0","A30W987G9S6F0G","3R5LWXWHR0UE010DORDQUF3E2FPGXE","","","null","","","","","","","",""
"2207.899999976158","","image-keyboard-response","65","119922","0.0-2.0-0.21","3PXX5PX6LYK8ZRI3OXY0YFX5T7ZBA0","A30W987G9S6F0G","3R5LWXWHR0UE010DORDQUF3E2FPGXE","","img/practice/S3.jpg","72","3","practice","72","true","","","",""
"null","","html-keyboard-response","66","120226","0.0-2.0-1.21","3PXX5PX6LYK8ZRI3OXY0YFX5T7ZBA0","A30W987G9S6F0G","3R5LWXWHR0UE010DORDQUF3E2FPGXE","","<img src=""img/practice/S3.jpg"" width=""540"" height = ""360"" style=""border:16px solid orange"">","null","","","","","","","",""
"null","","html-keyboard-response","67","120227","0.0-2.0-2.21","3PXX5PX6LYK8ZRI3OXY0YFX5T7ZBA0","A30W987G9S6F0G","3R5LWXWHR0UE010DORDQUF3E2FPGXE","","","null","","","","","","","",""
"1036.300000011921","","image-keyboard-response","68","121264","0.0-2.0-0.22","3PXX5PX6LYK8ZRI3OXY0YFX5T7ZBA0","A30W987G9S6F0G","3R5LWXWHR0UE010DORDQUF3E2FPGXE","","img/practice/S2.jpg","68","2","practice","68","true","","","",""
"null","","html-keyboard-response","69","121573","0.0-2.0-1.22","3PXX5PX6LYK8ZRI3OXY0YFX5T7ZBA0","A30W987G9S6F0G","3R5LWXWHR0UE010DORDQUF3E2FPGXE","","<img src=""img/practice/S2.jpg"" width=""540"" height = ""360"" style=""border:16px solid orange"">","null","","","","","","","",""
"null","","html-keyboard-response","70","121576","0.0-2.0-2.22","3PXX5PX6LYK8ZRI3OXY0YFX5T7ZBA0","A30W987G9S6F0G","3R5LWXWHR0UE010DORDQUF3E2FPGXE","","","null","","","","","","","",""
"512.1999999880791","","image-keyboard-response","71","122088","0.0-2.0-0.23","3PXX5PX6LYK8ZRI3OXY0YFX5T7ZBA0","A30W987G9S6F0G","3R5LWXWHR0UE010DORDQUF3E2FPGXE","","img/practice/S1.jpg","83","1","practice","83","true","","","",""
"null","","html-keyboard-response","72","122401","0.0-2.0-1.23","3PXX5PX6LYK8ZRI3OXY0YFX5T7ZBA0","A30W987G9S6F0G","3R5LWXWHR0UE010DORDQUF3E2FPGXE","","<img src=""img/practice/S1.jpg"" width=""540"" height = ""360"" style=""border:16px solid orange"">","null","","","","","","","",""
"null","","html-keyboard-response","73","122403","0.0-2.0-2.23","3PXX5PX6LYK8ZRI3OXY0YFX5T7ZBA0","A30W987G9S6F0G","3R5LWXWHR0UE010DORDQUF3E2FPGXE","","","null","","","","","","","",""
"2891.599999964237","","instructions","74","125295","0.0-3.0","3PXX5PX6LYK8ZRI3OXY0YFX5T7ZBA0","A30W987G9S6F0G","3R5LWXWHR0UE010DORDQUF3E2FPGXE","[{""page_index"":0,""viewing_time"":2891.5}]","","","","","","","","","",""
"15375.099999964237","","instructions","75","140670","0.0-4.0","3PXX5PX6LYK8ZRI3OXY0YFX5T7ZBA0","A30W987G9S6F0G","3R5LWXWHR0UE010DORDQUF3E2FPGXE","[{""page_index"":0,""viewing_time"":15374.899999976158}]","","","","","","","","","",""
"2307.600000023842","","instructions","76","142978","0.0-5.0","3PXX5PX6LYK8ZRI3OXY0YFX5T7ZBA0","A30W987G9S6F0G","3R5LWXWHR0UE010DORDQUF3E2FPGXE","[{""page_index"":0,""viewing_time"":2307.400000035763}]","","","","","","","","","",""
"1765.0999999642372","","image-keyboard-response","77","144744","0.0-6.0","3PXX5PX6LYK8ZRI3OXY0YFX5T7ZBA0","A30W987G9S6F0G","3R5LWXWHR0UE010DORDQUF3E2FPGXE","","img/set1/S4.jpg","72","4","structured_normal","74","false","structured_normal,structured_incentive,random","1,2,2,3","",""
"null","","html-keyboard-response","78","145097","0.0-7.0","3PXX5PX6LYK8ZRI3OXY0YFX5T7ZBA0","A30W987G9S6F0G","3R5LWXWHR0UE010DORDQUF3E2FPGXE","","<img src=""img/set1/S4.jpg"" width=""540"" height = ""360"">","null","","","","","","","",""
"null","","html-keyboard-response","79","145098","0.0-8.0","3PXX5PX6LYK8ZRI3OXY0YFX5T7ZBA0","A30W987G9S6F0G","3R5LWXWHR0UE010DORDQUF3E2FPGXE","","","null","","","","","","","",""
"973.5","","image-keyboard-response","80","146073","0.0-9.0","3PXX5PX6LYK8ZRI3OXY0YFX5T7ZBA0","A30W987G9S6F0G","3R5LWXWHR0UE010DORDQUF3E2FPGXE","","img/set1/S1.jpg","83","1","structured_normal","83","true","structured_normal,structured_incentive,random","1,2,2,3","",""
"null","","html-keyboard-response","81","146428","0.0-10.0","3PXX5PX6LYK8ZRI3OXY0YFX5T7ZBA0","A30W987G9S6F0G","3R5LWXWHR0UE010DORDQUF3E2FPGXE","","<img src=""img/set1/S1.jpg"" width=""540"" height = ""360"" style=""border:16px solid orange"">","null","","","","","","","",""
"null","","html-keyboard-response","82","146429","0.0-11.0","3PXX5PX6LYK8ZRI3OXY0YFX5T7ZBA0","A30W987G9S6F0G","3R5LWXWHR0UE010DORDQUF3E2FPGXE","","","null","","","","","","","",""
"1298.199999988079","","image-keyboard-response","83","147728","0.0-12.0","3PXX5PX6LYK8ZRI3OXY0YFX5T7ZBA0","A30W987G9S6F0G","3R5LWXWHR0UE010DORDQUF3E2FPGXE","","img/set1/S2.jpg","74","2","structured_normal","68","false","structured_normal,structured_incentive,random","1,2,2,3","",""
"null","","html-keyboard-response","84","148081","0.0-13.0","3PXX5PX6LYK8ZRI3OXY0YFX5T7ZBA0","A30W987G9S6F0G","3R5LWXWHR0UE010DORDQUF3E2FPGXE","","<img src=""img/set1/S2.jpg"" width=""540"" height = ""360"">","null","","","","","","","",""
"null","","html-keyboard-response","85","148083","0.0-14.0","3PXX5PX6LYK8ZRI3OXY0YFX5T7ZBA0","A30W987G9S6F0G","3R5LWXWHR0UE010DORDQUF3E2FPGXE","","","null","","","","","","","",""
"836.5","","image-keyboard-response","86","148920","0.0-15.0","3PXX5PX6LYK8ZRI3OXY0YFX5T7ZBA0","A30W987G9S6F0G","3R5LWXWHR0UE010DORDQUF3E2FPGXE","","img/set1/S3.jpg","74","3","structured_normal","72","false","structured_normal,structured_incentive,random","1,2,2,3","",""
"null","","html-keyboard-response","87","149280","0.0-16.0","3PXX5PX6LYK8ZRI3OXY0YFX5T7ZBA0","A30W987G9S6F0G","3R5LWXWHR0UE010DORDQUF3E2FPGXE","","<img src=""img/set1/S3.jpg"" width=""540"" height = ""360"">","null","","","","","","","",""
"null","","html-keyboard-response","88","149281","0.0-17.0","3PXX5PX6LYK8ZRI3OXY0YFX5T7ZBA0","A30W987G9S6F0G","3R5LWXWHR0UE010DORDQUF3E2FPGXE","","","null","","","","","","","",""
"822","","image-keyboard-response","89","150104","0.0-18.0","3PXX5PX6LYK8ZRI3OXY0YFX5T7ZBA0","A30W987G9S6F0G","3R5LWXWHR0UE010DORDQUF3E2FPGXE","","img/set1/S1.jpg","72","1","structured_normal","83","false","structured_normal,structured_incentive,random","1,2,2,3","",""
"null","","html-keyboard-response","90","150457","0.0-19.0","3PXX5PX6LYK8ZRI3OXY0YFX5T7ZBA0","A30W987G9S6F0G","3R5LWXWHR0UE010DORDQUF3E2FPGXE","","<img src=""img/set1/S1.jpg"" width=""540"" height = ""360"">","null","","","","","","","",""
"null","","html-keyboard-response","91","150459","0.0-20.0","3PXX5PX6LYK8ZRI3OXY0YFX5T7ZBA0","A30W987G9S6F0G","3R5LWXWHR0UE010DORDQUF3E2FPGXE","","","null","","","","","","","",""
"982.3000000119209","","image-keyboard-response","92","151442","0.0-21.0","3PXX5PX6LYK8ZRI3OXY0YFX5T7ZBA0","A30W987G9S6F0G","3R5LWXWHR0UE010DORDQUF3E2FPGXE","","img/set1/S2.jpg","74","2","structured_normal","68","false","structured_normal,structured_incentive,random","1,2,2,3","",""
"null","","html-keyboard-response","93","151807","0.0-22.0","3PXX5PX6LYK8ZRI3OXY0YFX5T7ZBA0","A30W987G9S6F0G","3R5LWXWHR0UE010DORDQUF3E2FPGXE","","<img src=""img/set1/S2.jpg"" width=""540"" height = ""360"">","null","","","","","","","",""
"null","","html-keyboard-response","94","151808","0.0-23.0","3PXX5PX6LYK8ZRI3OXY0YFX5T7ZBA0","A30W987G9S6F0G","3R5LWXWHR0UE010DORDQUF3E2FPGXE","","","null","","","","","","","",""
"679.0999999642372","","image-keyboard-response","95","152488","0.0-24.0","3PXX5PX6LYK8ZRI3OXY0YFX5T7ZBA0","A30W987G9S6F0G","3R5LWXWHR0UE010DORDQUF3E2FPGXE","","img/set1/S3.jpg","68","3","structured_normal","72","false","structured_normal,structured_incentive,random","1,2,2,3","",""
"null","","html-keyboard-response","96","152851","0.0-25.0","3PXX5PX6LYK8ZRI3OXY0YFX5T7ZBA0","A30W987G9S6F0G","3R5LWXWHR0UE010DORDQUF3E2FPGXE","","<img src=""img/set1/S3.jpg"" width=""540"" height = ""360"">","null","","","","","","","",""
"null","","html-keyboard-response","97","152853","0.0-26.0","3PXX5PX6LYK8ZRI3OXY0YFX5T7ZBA0","A30W987G9S6F0G","3R5LWXWHR0UE010DORDQUF3E2FPGXE","","","null","","","","","","","",""
"1314.9000000357628","","image-keyboard-response","98","154168","0.0-27.0","3PXX5PX6LYK8ZRI3OXY0YFX5T7ZBA0","A30W987G9S6F0G","3R5LWXWHR0UE010DORDQUF3E2FPGXE","","img/set1/S4.jpg","83","4","structured_normal","74","false","structured_normal,structured_incentive,random","1,2,2,3","",""
"null","","html-keyboard-response","99","154522","0.0-28.0","3PXX5PX6LYK8ZRI3OXY0YFX5T7ZBA0","A30W987G9S6F0G","3R5LWXWHR0UE010DORDQUF3E2FPGXE","","<img src=""img/set1/S4.jpg"" width=""540"" height = ""360"">","null","","","","","","","",""
"null","","html-keyboard-response","100","154525","0.0-29.0","3PXX5PX6LYK8ZRI3OXY0YFX5T7ZBA0","A30W987G9S6F0G","3R5LWXWHR0UE010DORDQUF3E2FPGXE","","","null","","","","","","","",""
"674.3999999761581","","image-keyboard-response","101","155200","0.0-30.0","3PXX5PX6LYK8ZRI3OXY0YFX5T7ZBA0","A30W987G9S6F0G","3R5LWXWHR0UE010DORDQUF3E2FPGXE","","img/set1/S1.jpg","83","1","structured_normal","83","true","structured_normal,structured_incentive,random","1,2,2,3","",""
"null","","html-keyboard-response","102","155565","0.0-31.0","3PXX5PX6LYK8ZRI3OXY0YFX5T7ZBA0","A30W987G9S6F0G","3R5LWXWHR0UE010DORDQUF3E2FPGXE","","<img src=""img/set1/S1.jpg"" width=""540"" height = ""360"" style=""border:16px solid orange"">","null","","","","","","","",""
"null","","html-keyboard-response","103","155566","0.0-32.0","3PXX5PX6LYK8ZRI3OXY0YFX5T7ZBA0","A30W987G9S6F0G","3R5LWXWHR0UE010DORDQUF3E2FPGXE","","","null","","","","","","","",""
"1361.0999999642372","","image-keyboard-response","104","156928","0.0-33.0","3PXX5PX6LYK8ZRI3OXY0YFX5T7ZBA0","A30W987G9S6F0G","3R5LWXWHR0UE010DORDQUF3E2FPGXE","","img/set1/S2.jpg","72","2","structured_normal","68","false","structured_normal,structured_incentive,random","1,2,2,3","",""
"null","","html-keyboard-response","105","157283","0.0-34.0","3PXX5PX6LYK8ZRI3OXY0YFX5T7ZBA0","A30W987G9S6F0G","3R5LWXWHR0UE010DORDQUF3E2FPGXE","","<img src=""img/set1/S2.jpg"" width=""540"" height = ""360"">","null","","","","","","","",""
"null","","html-keyboard-response","106","157285","0.0-35.0","3PXX5PX6LYK8ZRI3OXY0YFX5T7ZBA0","A30W987G9S6F0G","3R5LWXWHR0UE010DORDQUF3E2FPGXE","","","null","","","","","","","",""
"1258.300000011921","","image-keyboard-response","107","158544","0.0-36.0","3PXX5PX6LYK8ZRI3OXY0YFX5T7ZBA0","A30W987G9S6F0G","3R5LWXWHR0UE010DORDQUF3E2FPGXE","","img/set1/S1.jpg","72","1","structured_normal","83","false","structured_normal,structured_incentive,random","1,2,2,3","",""
"null","","html-keyboard-response","108","158899","0.0-37.0","3PXX5PX6LYK8ZRI3OXY0YFX5T7ZBA0","A30W987G9S6F0G","3R5LWXWHR0UE010DORDQUF3E2FPGXE","","<img src=""img/set1/S1.jpg"" width=""540"" height = ""360"">","null","","","","","","","",""
"null","","html-keyboard-response","109","158901","0.0-38.0","3PXX5PX6LYK8ZRI3OXY0YFX5T7ZBA0","A30W987G9S6F0G","3R5LWXWHR0UE010DORDQUF3E2FPGXE","","","null","","","","","","","",""
"994.8000000119209","","image-keyboard-response","110","159896","0.0-39.0","3PXX5PX6LYK8ZRI3OXY0YFX5T7ZBA0","A30W987G9S6F0G","3R5LWXWHR0UE010DORDQUF3E2FPGXE","","img/set1/S2.jpg","83","2","structured_normal","68","false","structured_normal,structured_incentive,random","1,2,2,3","",""
"null","","html-keyboard-response","111","160254","0.0-40.0","3PXX5PX6LYK8ZRI3OXY0YFX5T7ZBA0","A30W987G9S6F0G","3R5LWXWHR0UE010DORDQUF3E2FPGXE","","<img src=""img/set1/S2.jpg"" width=""540"" height = ""360"">","null","","","","","","","",""
"null","","html-keyboard-response","112","160257","0.0-41.0","3PXX5PX6LYK8ZRI3OXY0YFX5T7ZBA0","A30W987G9S6F0G","3R5LWXWHR0UE010DORDQUF3E2FPGXE","","","null","","","","","","","",""
"950.8000000119209","","image-keyboard-response","113","161208","0.0-42.0","3PXX5PX6LYK8ZRI3OXY0YFX5T7ZBA0","A30W987G9S6F0G","3R5LWXWHR0UE010DORDQUF3E2FPGXE","","img/set1/S3.jpg","68","3","structured_normal","72","false","structured_normal,structured_incentive,random","1,2,2,3","",""
"null","","html-keyboard-response","114","161562","0.0-43.0","3PXX5PX6LYK8ZRI3OXY0YFX5T7ZBA0","A30W987G9S6F0G","3R5LWXWHR0UE010DORDQUF3E2FPGXE","","<img src=""img/set1/S3.jpg"" width=""540"" height = ""360"">","null","","","","","","","",""
"null","","html-keyboard-response","115","161564","0.0-44.0","3PXX5PX6LYK8ZRI3OXY0YFX5T7ZBA0","A30W987G9S6F0G","3R5LWXWHR0UE010DORDQUF3E2FPGXE","","","null","","","","","","","",""
"524.9000000357628","","image-keyboard-response","116","162090","0.0-45.0","3PXX5PX6LYK8ZRI3OXY0YFX5T7ZBA0","A30W987G9S6F0G","3R5LWXWHR0UE010DORDQUF3E2FPGXE","","img/set1/S4.jpg","74","4","structured_normal","74","true","structured_normal,structured_incentive,random","1,2,2,3","",""
"null","","html-keyboard-response","117","162449","0.0-46.0","3PXX5PX6LYK8ZRI3OXY0YFX5T7ZBA0","A30W987G9S6F0G","3R5LWXWHR0UE010DORDQUF3E2FPGXE","","<img src=""img/set1/S4.jpg"" width=""540"" height = ""360"" style=""border:16px solid orange"">","null","","","","","","","",""
"null","","html-keyboard-response","118","162452","0.0-47.0","3PXX5PX6LYK8ZRI3OXY0YFX5T7ZBA0","A30W987G9S6F0G","3R5LWXWHR0UE010DORDQUF3E2FPGXE","","","null","","","","","","","",""
"1372","","image-keyboard-response","119","163824","0.0-48.0","3PXX5PX6LYK8ZRI3OXY0YFX5T7ZBA0","A30W987G9S6F0G","3R5LWXWHR0UE010DORDQUF3E2FPGXE","","img/set1/S3.jpg","74","3","structured_normal","72","false","structured_normal,structured_incentive,random","1,2,2,3","",""
"null","","html-keyboard-response","120","164184","0.0-49.0","3PXX5PX6LYK8ZRI3OXY0YFX5T7ZBA0","A30W987G9S6F0G","3R5LWXWHR0UE010DORDQUF3E2FPGXE","","<img src=""img/set1/S3.jpg"" width=""540"" height = ""360"">","null","","","","","","","",""
"null","","html-keyboard-response","121","164186","0.0-50.0","3PXX5PX6LYK8ZRI3OXY0YFX5T7ZBA0","A30W987G9S6F0G","3R5LWXWHR0UE010DORDQUF3E2FPGXE","","","null","","","","","","","",""
"925.6999999880791","","image-keyboard-response","122","165112","0.0-51.0","3PXX5PX6LYK8ZRI3OXY0YFX5T7ZBA0","A30W987G9S6F0G","3R5LWXWHR0UE010DORDQUF3E2FPGXE","","img/set1/S1.jpg","72","1","structured_normal","83","false","structured_normal,structured_incentive,random","1,2,2,3","",""
"null","","html-keyboard-response","123","165477","0.0-52.0","3PXX5PX6LYK8ZRI3OXY0YFX5T7ZBA0","A30W987G9S6F0G","3R5LWXWHR0UE010DORDQUF3E2FPGXE","","<img src=""img/set1/S1.jpg"" width=""540"" height = ""360"">","null","","","","","","","",""
"null","","html-keyboard-response","124","165478","0.0-53.0","3PXX5PX6LYK8ZRI3OXY0YFX5T7ZBA0","A30W987G9S6F0G","3R5LWXWHR0UE010DORDQUF3E2FPGXE","","","null","","","","","","","",""
"705.3000000119209","","image-keyboard-response","125","166184","0.0-54.0","3PXX5PX6LYK8ZRI3OXY0YFX5T7ZBA0","A30W987G9S6F0G","3R5LWXWHR0UE010DORDQUF3E2FPGXE","","img/set1/S2.jpg","74","2","structured_normal","68","false","structured_normal,structured_incentive,random","1,2,2,3","",""
"null","","html-keyboard-response","126","166536","0.0-55.0","3PXX5PX6LYK8ZRI3OXY0YFX5T7ZBA0","A30W987G9S6F0G","3R5LWXWHR0UE010DORDQUF3E2FPGXE","","<img src=""img/set1/S2.jpg"" width=""540"" height = ""360"">","null","","","","","","","",""
"null","","html-keyboard-response","127","166537","0.0-56.0","3PXX5PX6LYK8ZRI3OXY0YFX5T7ZBA0","A30W987G9S6F0G","3R5LWXWHR0UE010DORDQUF3E2FPGXE","","","null","","","","","","","",""
"846.2999999523163","","image-keyboard-response","128","167384","0.0-57.0","3PXX5PX6LYK8ZRI3OXY0YFX5T7ZBA0","A30W987G9S6F0G","3R5LWXWHR0UE010DORDQUF3E2FPGXE","","img/set1/S3.jpg","68","3","structured_normal","72","false","structured_normal,structured_incentive,random","1,2,2,3","",""
"null","","html-keyboard-response","129","167744","0.0-58.0","3PXX5PX6LYK8ZRI3OXY0YFX5T7ZBA0","A30W987G9S6F0G","3R5LWXWHR0UE010DORDQUF3E2FPGXE","","<img src=""img/set1/S3.jpg"" width=""540"" height = ""360"">","null","","","","","","","",""
"null","","html-keyboard-response","130","167745","0.0-59.0","3PXX5PX6LYK8ZRI3OXY0YFX5T7ZBA0","A30W987G9S6F0G","3R5LWXWHR0UE010DORDQUF3E2FPGXE","","","null","","","","","","","",""
"1182","","image-keyboard-response","131","168928","0.0-60.0","3PXX5PX6LYK8ZRI3OXY0YFX5T7ZBA0","A30W987G9S6F0G","3R5LWXWHR0UE010DORDQUF3E2FPGXE","","img/set1/S3.jpg","72","3","structured_normal","72","true","structured_normal,structured_incentive,random","1,2,2,3","",""
"null","","html-keyboard-response","132","169291","0.0-61.0","3PXX5PX6LYK8ZRI3OXY0YFX5T7ZBA0","A30W987G9S6F0G","3R5LWXWHR0UE010DORDQUF3E2FPGXE","","<img src=""img/set1/S3.jpg"" width=""540"" height = ""360"" style=""border:16px solid orange"">","null","","","","","","","",""
"null","","html-keyboard-response","133","169292","0.0-62.0","3PXX5PX6LYK8ZRI3OXY0YFX5T7ZBA0","A30W987G9S6F0G","3R5LWXWHR0UE010DORDQUF3E2FPGXE","","","null","","","","","","","",""
"1259.1000000238419","","image-keyboard-response","134","170552","0.0-63.0","3PXX5PX6LYK8ZRI3OXY0YFX5T7ZBA0","A30W987G9S6F0G","3R5LWXWHR0UE010DORDQUF3E2FPGXE","","img/set1/S1.jpg","74","1","structured_normal","83","false","structured_normal,structured_incentive,random","1,2,2,3","",""
"null","","html-keyboard-response","135","170907","0.0-64.0","3PXX5PX6LYK8ZRI3OXY0YFX5T7ZBA0","A30W987G9S6F0G","3R5LWXWHR0UE010DORDQUF3E2FPGXE","","<img src=""img/set1/S1.jpg"" width=""540"" height = ""360"">","null","","","","","","","",""
"null","","html-keyboard-response","136","170909","0.0-65.0","3PXX5PX6LYK8ZRI3OXY0YFX5T7ZBA0","A30W987G9S6F0G","3R5LWXWHR0UE010DORDQUF3E2FPGXE","","","null","","","","","","","",""
"1003.1999999880791","","image-keyboard-response","137","171912","0.0-66.0","3PXX5PX6LYK8ZRI3OXY0YFX5T7ZBA0","A30W987G9S6F0G","3R5LWXWHR0UE010DORDQUF3E2FPGXE","","img/set1/S2.jpg","74","2","structured_normal","68","false","structured_normal,structured_incentive,random","1,2,2,3","",""
"null","","html-keyboard-response","138","172273","0.0-67.0","3PXX5PX6LYK8ZRI3OXY0YFX5T7ZBA0","A30W987G9S6F0G","3R5LWXWHR0UE010DORDQUF3E2FPGXE","","<img src=""img/set1/S2.jpg"" width=""540"" height = ""360"">","null","","","","","","","",""
"null","","html-keyboard-response","139","172275","0.0-68.0","3PXX5PX6LYK8ZRI3OXY0YFX5T7ZBA0","A30W987G9S6F0G","3R5LWXWHR0UE010DORDQUF3E2FPGXE","","","null","","","","","","","",""
"750.5","","image-keyboard-response","140","173026","0.0-69.0","3PXX5PX6LYK8ZRI3OXY0YFX5T7ZBA0","A30W987G9S6F0G","3R5LWXWHR0UE010DORDQUF3E2FPGXE","","img/set1/S2.jpg","83","2","structured_normal","68","false","structured_normal,structured_incentive,random","1,2,2,3","",""
"null","","html-keyboard-response","141","173390","0.0-70.0","3PXX5PX6LYK8ZRI3OXY0YFX5T7ZBA0","A30W987G9S6F0G","3R5LWXWHR0UE010DORDQUF3E2FPGXE","","<img src=""img/set1/S2.jpg"" width=""540"" height = ""360"">","null","","","","","","","",""
"null","","html-keyboard-response","142","173392","0.0-71.0","3PXX5PX6LYK8ZRI3OXY0YFX5T7ZBA0","A30W987G9S6F0G","3R5LWXWHR0UE010DORDQUF3E2FPGXE","","","null","","","","","","","",""
"1431.800000011921","","image-keyboard-response","143","174824","0.0-72.0","3PXX5PX6LYK8ZRI3OXY0YFX5T7ZBA0","A30W987G9S6F0G","3R5LWXWHR0UE010DORDQUF3E2FPGXE","","img/set1/S1.jpg","68","1","structured_normal","83","false","structured_normal,structured_incentive,random","1,2,2,3","",""
"null","","html-keyboard-response","144","175184","0.0-73.0","3PXX5PX6LYK8ZRI3OXY0YFX5T7ZBA0","A30W987G9S6F0G","3R5LWXWHR0UE010DORDQUF3E2FPGXE","","<img src=""img/set1/S1.jpg"" width=""540"" height = ""360"">","null","","","","","","","",""
"null","","html-keyboard-response","145","175186","0.0-74.0","3PXX5PX6LYK8ZRI3OXY0YFX5T7ZBA0","A30W987G9S6F0G","3R5LWXWHR0UE010DORDQUF3E2FPGXE","","","null","","","","","","","",""
"901.8000000119209","","image-keyboard-response","146","176088","0.0-75.0","3PXX5PX6LYK8ZRI3OXY0YFX5T7ZBA0","A30W987G9S6F0G","3R5LWXWHR0UE010DORDQUF3E2FPGXE","","img/set1/S2.jpg","83","2","structured_normal","68","false","structured_normal,structured_incentive,random","1,2,2,3","",""
"null","","html-keyboard-response","147","176441","0.0-76.0","3PXX5PX6LYK8ZRI3OXY0YFX5T7ZBA0","A30W987G9S6F0G","3R5LWXWHR0UE010DORDQUF3E2FPGXE","","<img src=""img/set1/S2.jpg"" width=""540"" height = ""360"">","null","","","","","","","",""
"null","","html-keyboard-response","148","176443","0.0-77.0","3PXX5PX6LYK8ZRI3OXY0YFX5T7ZBA0","A30W987G9S6F0G","3R5LWXWHR0UE010DORDQUF3E2FPGXE","","","null","","","","","","","",""
"924.5","","image-keyboard-response","149","177368","0.0-78.0","3PXX5PX6LYK8ZRI3OXY0YFX5T7ZBA0","A30W987G9S6F0G","3R5LWXWHR0UE010DORDQUF3E2FPGXE","","img/set1/S4.jpg","83","4","structured_normal","74","false","structured_normal,structured_incentive,random","1,2,2,3","",""
"null","","html-keyboard-response","150","177735","0.0-79.0","3PXX5PX6LYK8ZRI3OXY0YFX5T7ZBA0","A30W987G9S6F0G","3R5LWXWHR0UE010DORDQUF3E2FPGXE","","<img src=""img/set1/S4.jpg"" width=""540"" height = ""360"">","null","","","","","","","",""
"null","","html-keyboard-response","151","177737","0.0-80.0","3PXX5PX6LYK8ZRI3OXY0YFX5T7ZBA0","A30W987G9S6F0G","3R5LWXWHR0UE010DORDQUF3E2FPGXE","","","null","","","","","","","",""
"670.5","","image-keyboard-response","152","178408","0.0-81.0","3PXX5PX6LYK8ZRI3OXY0YFX5T7ZBA0","A30W987G9S6F0G","3R5LWXWHR0UE010DORDQUF3E2FPGXE","","img/set1/S4.jpg","72","4","structured_normal","74","false","structured_normal,structured_incentive,random","1,2,2,3","",""
"null","","html-keyboard-response","153","178766","0.0-82.0","3PXX5PX6LYK8ZRI3OXY0YFX5T7ZBA0","A30W987G9S6F0G","3R5LWXWHR0UE010DORDQUF3E2FPGXE","","<img src=""img/set1/S4.jpg"" width=""540"" height = ""360"">","null","","","","","","","",""
"null","","html-keyboard-response","154","178768","0.0-83.0","3PXX5PX6LYK8ZRI3OXY0YFX5T7ZBA0","A30W987G9S6F0G","3R5LWXWHR0UE010DORDQUF3E2FPGXE","","","null","","","","","","","",""
"863.5999999642372","","image-keyboard-response","155","179632","0.0-84.0","3PXX5PX6LYK8ZRI3OXY0YFX5T7ZBA0","A30W987G9S6F0G","3R5LWXWHR0UE010DORDQUF3E2FPGXE","","img/set1/S3.jpg","68","3","structured_normal","72","false","structured_normal,structured_incentive,random","1,2,2,3","",""
"null","","html-keyboard-response","156","179998","0.0-85.0","3PXX5PX6LYK8ZRI3OXY0YFX5T7ZBA0","A30W987G9S6F0G","3R5LWXWHR0UE010DORDQUF3E2FPGXE","","<img src=""img/set1/S3.jpg"" width=""540"" height = ""360"">","null","","","","","","","",""
"null","","html-keyboard-response","157","180000","0.0-86.0","3PXX5PX6LYK8ZRI3OXY0YFX5T7ZBA0","A30W987G9S6F0G","3R5LWXWHR0UE010DORDQUF3E2FPGXE","","","null","","","","","","","",""
"839.5","","image-keyboard-response","158","180840","0.0-87.0","3PXX5PX6LYK8ZRI3OXY0YFX5T7ZBA0","A30W987G9S6F0G","3R5LWXWHR0UE010DORDQUF3E2FPGXE","","img/set1/S3.jpg","74","3","structured_normal","72","false","structured_normal,structured_incentive,random","1,2,2,3","",""
"null","","html-keyboard-response","159","181199","0.0-88.0","3PXX5PX6LYK8ZRI3OXY0YFX5T7ZBA0","A30W987G9S6F0G","3R5LWXWHR0UE010DORDQUF3E2FPGXE","","<img src=""img/set1/S3.jpg"" width=""540"" height = ""360"">","null","","","","","","","",""
"null","","html-keyboard-response","160","181201","0.0-89.0","3PXX5PX6LYK8ZRI3OXY0YFX5T7ZBA0","A30W987G9S6F0G","3R5LWXWHR0UE010DORDQUF3E2FPGXE","","","null","","","","","","","",""
"502.89999997615814","","image-keyboard-response","161","181704","0.0-90.0","3PXX5PX6LYK8ZRI3OXY0YFX5T7ZBA0","A30W987G9S6F0G","3R5LWXWHR0UE010DORDQUF3E2FPGXE","","img/set1/S3.jpg","72","3","structured_normal","72","true","structured_normal,structured_incentive,random","1,2,2,3","",""
"null","","html-keyboard-response","162","182070","0.0-91.0","3PXX5PX6LYK8ZRI3OXY0YFX5T7ZBA0","A30W987G9S6F0G","3R5LWXWHR0UE010DORDQUF3E2FPGXE","","<img src=""img/set1/S3.jpg"" width=""540"" height = ""360"" style=""border:16px solid orange"">","null","","","","","","","",""
"null","","html-keyboard-response","163","182072","0.0-92.0","3PXX5PX6LYK8ZRI3OXY0YFX5T7ZBA0","A30W987G9S6F0G","3R5LWXWHR0UE010DORDQUF3E2FPGXE","","","null","","","","","","","",""
"1849.699999988079","","image-keyboard-response","164","183922","0.0-93.0","3PXX5PX6LYK8ZRI3OXY0YFX5T7ZBA0","A30W987G9S6F0G","3R5LWXWHR0UE010DORDQUF3E2FPGXE","","img/set1/S1.jpg","74","1","structured_normal","83","false","structured_normal,structured_incentive,random","1,2,2,3","",""
"null","","html-keyboard-response","165","184280","0.0-94.0","3PXX5PX6LYK8ZRI3OXY0YFX5T7ZBA0","A30W987G9S6F0G","3R5LWXWHR0UE010DORDQUF3E2FPGXE","","<img src=""img/set1/S1.jpg"" width=""540"" height = ""360"">","null","","","","","","","",""
"null","","html-keyboard-response","166","184281","0.0-95.0","3PXX5PX6LYK8ZRI3OXY0YFX5T7ZBA0","A30W987G9S6F0G","3R5LWXWHR0UE010DORDQUF3E2FPGXE","","","null","","","","","","","",""
"998.2999999523163","","image-keyboard-response","167","185280","0.0-96.0","3PXX5PX6LYK8ZRI3OXY0YFX5T7ZBA0","A30W987G9S6F0G","3R5LWXWHR0UE010DORDQUF3E2FPGXE","","img/set1/S2.jpg","74","2","structured_normal","68","false","structured_normal,structured_incentive,random","1,2,2,3","",""
"null","","html-keyboard-response","168","185637","0.0-97.0","3PXX5PX6LYK8ZRI3OXY0YFX5T7ZBA0","A30W987G9S6F0G","3R5LWXWHR0UE010DORDQUF3E2FPGXE","","<img src=""img/set1/S2.jpg"" width=""540"" height = ""360"">","null","","","","","","","",""
"null","","html-keyboard-response","169","185639","0.0-98.0","3PXX5PX6LYK8ZRI3OXY0YFX5T7ZBA0","A30W987G9S6F0G","3R5LWXWHR0UE010DORDQUF3E2FPGXE","","","null","","","","","","","",""
"1016.6999999880791","","image-keyboard-response","170","186656","0.0-99.0","3PXX5PX6LYK8ZRI3OXY0YFX5T7ZBA0","A30W987G9S6F0G","3R5LWXWHR0UE010DORDQUF3E2FPGXE","","img/set1/S3.jpg","72","3","structured_normal","72","true","structured_normal,structured_incentive,random","1,2,2,3","",""
"null","","html-keyboard-response","171","187012","0.0-100.0","3PXX5PX6LYK8ZRI3OXY0YFX5T7ZBA0","A30W987G9S6F0G","3R5LWXWHR0UE010DORDQUF3E2FPGXE","","<img src=""img/set1/S3.jpg"" width=""540"" height = ""360"" style=""border:16px solid orange"">","null","","","","","","","",""
"null","","html-keyboard-response","172","187013","0.0-101.0","3PXX5PX6LYK8ZRI3OXY0YFX5T7ZBA0","A30W987G9S6F0G","3R5LWXWHR0UE010DORDQUF3E2FPGXE","","","null","","","","","","","",""
"578","","image-keyboard-response","173","187592","0.0-102.0","3PXX5PX6LYK8ZRI3OXY0YFX5T7ZBA0","A30W987G9S6F0G","3R5LWXWHR0UE010DORDQUF3E2FPGXE","","img/set1/S3.jpg","72","3","structured_normal","72","true","structured_normal,structured_incentive,random","1,2,2,3","",""
"null","","html-keyboard-response","174","187948","0.0-103.0","3PXX5PX6LYK8ZRI3OXY0YFX5T7ZBA0","A30W987G9S6F0G","3R5LWXWHR0UE010DORDQUF3E2FPGXE","","<img src=""img/set1/S3.jpg"" width=""540"" height = ""360"" style=""border:16px solid orange"">","null","","","","","","","",""
"null","","html-keyboard-response","175","187950","0.0-104.0","3PXX5PX6LYK8ZRI3OXY0YFX5T7ZBA0","A30W987G9S6F0G","3R5LWXWHR0UE010DORDQUF3E2FPGXE","","","null","","","","","","","",""
"1074.5","","image-keyboard-response","176","189025","0.0-105.0","3PXX5PX6LYK8ZRI3OXY0YFX5T7ZBA0","A30W987G9S6F0G","3R5LWXWHR0UE010DORDQUF3E2FPGXE","","img/set1/S4.jpg","68","4","structured_normal","74","false","structured_normal,structured_incentive,random","1,2,2,3","",""
"null","","html-keyboard-response","177","189384","0.0-106.0","3PXX5PX6LYK8ZRI3OXY0YFX5T7ZBA0","A30W987G9S6F0G","3R5LWXWHR0UE010DORDQUF3E2FPGXE","","<img src=""img/set1/S4.jpg"" width=""540"" height = ""360"">","null","","","","","","","",""
"null","","html-keyboard-response","178","189386","0.0-107.0","3PXX5PX6LYK8ZRI3OXY0YFX5T7ZBA0","A30W987G9S6F0G","3R5LWXWHR0UE010DORDQUF3E2FPGXE","","","null","","","","","","","",""
"989.3999999761581","","image-keyboard-response","179","190376","0.0-108.0","3PXX5PX6LYK8ZRI3OXY0YFX5T7ZBA0","A30W987G9S6F0G","3R5LWXWHR0UE010DORDQUF3E2FPGXE","","img/set1/S1.jpg","68","1","structured_normal","83","false","structured_normal,structured_incentive,random","1,2,2,3","",""
"null","","html-keyboard-response","180","190728","0.0-109.0","3PXX5PX6LYK8ZRI3OXY0YFX5T7ZBA0","A30W987G9S6F0G","3R5LWXWHR0UE010DORDQUF3E2FPGXE","","<img src=""img/set1/S1.jpg"" width=""540"" height = ""360"">","null","","","","","","","",""
"null","","html-keyboard-response","181","190730","0.0-110.0","3PXX5PX6LYK8ZRI3OXY0YFX5T7ZBA0","A30W987G9S6F0G","3R5LWXWHR0UE010DORDQUF3E2FPGXE","","","null","","","","","","","",""
"1021.5999999642372","","image-keyboard-response","182","191752","0.0-111.0","3PXX5PX6LYK8ZRI3OXY0YFX5T7ZBA0","A30W987G9S6F0G","3R5LWXWHR0UE010DORDQUF3E2FPGXE","","img/set1/S2.jpg","83","2","structured_normal","68","false","structured_normal,structured_incentive,random","1,2,2,3","",""
"null","","html-keyboard-response","183","192115","0.0-112.0","3PXX5PX6LYK8ZRI3OXY0YFX5T7ZBA0","A30W987G9S6F0G","3R5LWXWHR0UE010DORDQUF3E2FPGXE","","<img src=""img/set1/S2.jpg"" width=""540"" height = ""360"">","null","","","","","","","",""
"null","","html-keyboard-response","184","192118","0.0-113.0","3PXX5PX6LYK8ZRI3OXY0YFX5T7ZBA0","A30W987G9S6F0G","3R5LWXWHR0UE010DORDQUF3E2FPGXE","","","null","","","","","","","",""
"1322.1000000238419","","image-keyboard-response","185","193440","0.0-114.0","3PXX5PX6LYK8ZRI3OXY0YFX5T7ZBA0","A30W987G9S6F0G","3R5LWXWHR0UE010DORDQUF3E2FPGXE","","img/set1/S3.jpg","83","3","structured_normal","72","false","structured_normal,structured_incentive,random","1,2,2,3","",""
"null","","html-keyboard-response","186","193793","0.0-115.0","3PXX5PX6LYK8ZRI3OXY0YFX5T7ZBA0","A30W987G9S6F0G","3R5LWXWHR0UE010DORDQUF3E2FPGXE","","<img src=""img/set1/S3.jpg"" width=""540"" height = ""360"">","null","","","","","","","",""
"null","","html-keyboard-response","187","193796","0.0-116.0","3PXX5PX6LYK8ZRI3OXY0YFX5T7ZBA0","A30W987G9S6F0G","3R5LWXWHR0UE010DORDQUF3E2FPGXE","","","null","","","","","","","",""
"925.5","","image-keyboard-response","188","194722","0.0-117.0","3PXX5PX6LYK8ZRI3OXY0YFX5T7ZBA0","A30W987G9S6F0G","3R5LWXWHR0UE010DORDQUF3E2FPGXE","","img/set1/S3.jpg","74","3","structured_normal","72","false","structured_normal,structured_incentive,random","1,2,2,3","",""
"null","","html-keyboard-response","189","195074","0.0-118.0","3PXX5PX6LYK8ZRI3OXY0YFX5T7ZBA0","A30W987G9S6F0G","3R5LWXWHR0UE010DORDQUF3E2FPGXE","","<img src=""img/set1/S3.jpg"" width=""540"" height = ""360"">","null","","","","","","","",""
"null","","html-keyboard-response","190","195076","0.0-119.0","3PXX5PX6LYK8ZRI3OXY0YFX5T7ZBA0","A30W987G9S6F0G","3R5LWXWHR0UE010DORDQUF3E2FPGXE","","","null","","","","","","","",""
"2107.900000035763","","image-keyboard-response","191","197184","0.0-120.0","3PXX5PX6LYK8ZRI3OXY0YFX5T7ZBA0","A30W987G9S6F0G","3R5LWXWHR0UE010DORDQUF3E2FPGXE","","img/set1/S4.jpg","68","4","structured_normal","74","false","structured_normal,structured_incentive,random","1,2,2,3","",""
"null","","html-keyboard-response","192","197544","0.0-121.0","3PXX5PX6LYK8ZRI3OXY0YFX5T7ZBA0","A30W987G9S6F0G","3R5LWXWHR0UE010DORDQUF3E2FPGXE","","<img src=""img/set1/S4.jpg"" width=""540"" height = ""360"">","null","","","","","","","",""
"null","","html-keyboard-response","193","197546","0.0-122.0","3PXX5PX6LYK8ZRI3OXY0YFX5T7ZBA0","A30W987G9S6F0G","3R5LWXWHR0UE010DORDQUF3E2FPGXE","","","null","","","","","","","",""
"973.6999999880791","","image-keyboard-response","194","198520","0.0-123.0","3PXX5PX6LYK8ZRI3OXY0YFX5T7ZBA0","A30W987G9S6F0G","3R5LWXWHR0UE010DORDQUF3E2FPGXE","","img/set1/S4.jpg","72","4","structured_normal","74","false","structured_normal,structured_incentive,random","1,2,2,3","",""
"null","","html-keyboard-response","195","198881","0.0-124.0","3PXX5PX6LYK8ZRI3OXY0YFX5T7ZBA0","A30W987G9S6F0G","3R5LWXWHR0UE010DORDQUF3E2FPGXE","","<img src=""img/set1/S4.jpg"" width=""540"" height = ""360"">","null","","","","","","","",""
"null","","html-keyboard-response","196","198882","0.0-125.0","3PXX5PX6LYK8ZRI3OXY0YFX5T7ZBA0","A30W987G9S6F0G","3R5LWXWHR0UE010DORDQUF3E2FPGXE","","","null","","","","","","","",""
"1453.699999988079","","image-keyboard-response","197","200336","0.0-126.0","3PXX5PX6LYK8ZRI3OXY0YFX5T7ZBA0","A30W987G9S6F0G","3R5LWXWHR0UE010DORDQUF3E2FPGXE","","img/set1/S1.jpg","74","1","structured_normal","83","false","structured_normal,structured_incentive,random","1,2,2,3","",""
"null","","html-keyboard-response","198","200702","0.0-127.0","3PXX5PX6LYK8ZRI3OXY0YFX5T7ZBA0","A30W987G9S6F0G","3R5LWXWHR0UE010DORDQUF3E2FPGXE","","<img src=""img/set1/S1.jpg"" width=""540"" height = ""360"">","null","","","","","","","",""
"null","","html-keyboard-response","199","200704","0.0-128.0","3PXX5PX6LYK8ZRI3OXY0YFX5T7ZBA0","A30W987G9S6F0G","3R5LWXWHR0UE010DORDQUF3E2FPGXE","","","null","","","","","","","",""
"1535.5","","image-keyboard-response","200","202240","0.0-129.0","3PXX5PX6LYK8ZRI3OXY0YFX5T7ZBA0","A30W987G9S6F0G","3R5LWXWHR0UE010DORDQUF3E2FPGXE","","img/set1/S2.jpg","72","2","structured_normal","68","false","structured_normal,structured_incentive,random","1,2,2,3","",""
"null","","html-keyboard-response","201","202603","0.0-130.0","3PXX5PX6LYK8ZRI3OXY0YFX5T7ZBA0","A30W987G9S6F0G","3R5LWXWHR0UE010DORDQUF3E2FPGXE","","<img src=""img/set1/S2.jpg"" width=""540"" height = ""360"">","null","","","","","","","",""
"null","","html-keyboard-response","202","202604","0.0-131.0","3PXX5PX6LYK8ZRI3OXY0YFX5T7ZBA0","A30W987G9S6F0G","3R5LWXWHR0UE010DORDQUF3E2FPGXE","","","null","","","","","","","",""
"1443.5","","image-keyboard-response","203","204048","0.0-132.0","3PXX5PX6LYK8ZRI3OXY0YFX5T7ZBA0","A30W987G9S6F0G","3R5LWXWHR0UE010DORDQUF3E2FPGXE","","img/set1/S1.jpg","68","1","structured_normal","83","false","structured_normal,structured_incentive,random","1,2,2,3","",""
"null","","html-keyboard-response","204","204410","0.0-133.0","3PXX5PX6LYK8ZRI3OXY0YFX5T7ZBA0","A30W987G9S6F0G","3R5LWXWHR0UE010DORDQUF3E2FPGXE","","<img src=""img/set1/S1.jpg"" width=""540"" height = ""360"">","null","","","","","","","",""
"null","","html-keyboard-response","205","204413","0.0-134.0","3PXX5PX6LYK8ZRI3OXY0YFX5T7ZBA0","A30W987G9S6F0G","3R5LWXWHR0UE010DORDQUF3E2FPGXE","","","null","","","","","","","",""
"1780.1000000238419","","image-keyboard-response","206","206194","0.0-135.0","3PXX5PX6LYK8ZRI3OXY0YFX5T7ZBA0","A30W987G9S6F0G","3R5LWXWHR0UE010DORDQUF3E2FPGXE","","img/set1/S2.jpg","83","2","structured_normal","68","false","structured_normal,structured_incentive,random","1,2,2,3","",""
"null","","html-keyboard-response","207","206560","0.0-136.0","3PXX5PX6LYK8ZRI3OXY0YFX5T7ZBA0","A30W987G9S6F0G","3R5LWXWHR0UE010DORDQUF3E2FPGXE","","<img src=""img/set1/S2.jpg"" width=""540"" height = ""360"">","null","","","","","","","",""
"null","","html-keyboard-response","208","206561","0.0-137.0","3PXX5PX6LYK8ZRI3OXY0YFX5T7ZBA0","A30W987G9S6F0G","3R5LWXWHR0UE010DORDQUF3E2FPGXE","","","null","","","","","","","",""
"870.5","","image-keyboard-response","209","207432","0.0-138.0","3PXX5PX6LYK8ZRI3OXY0YFX5T7ZBA0","A30W987G9S6F0G","3R5LWXWHR0UE010DORDQUF3E2FPGXE","","img/set1/S1.jpg","83","1","structured_normal","83","true","structured_normal,structured_incentive,random","1,2,2,3","",""
"null","","html-keyboard-response","210","207789","0.0-139.0","3PXX5PX6LYK8ZRI3OXY0YFX5T7ZBA0","A30W987G9S6F0G","3R5LWXWHR0UE010DORDQUF3E2FPGXE","","<img src=""img/set1/S1.jpg"" width=""540"" height = ""360"" style=""border:16px solid orange"">","null","","","","","","","",""
"null","","html-keyboard-response","211","207790","0.0-140.0","3PXX5PX6LYK8ZRI3OXY0YFX5T7ZBA0","A30W987G9S6F0G","3R5LWXWHR0UE010DORDQUF3E2FPGXE","","","null","","","","","","","",""
"1881.4000000357628","","image-keyboard-response","212","209672","0.0-141.0","3PXX5PX6LYK8ZRI3OXY0YFX5T7ZBA0","A30W987G9S6F0G","3R5LWXWHR0UE010DORDQUF3E2FPGXE","","img/set1/S2.jpg","72","2","structured_normal","68","false","structured_normal,structured_incentive,random","1,2,2,3","",""
"null","","html-keyboard-response","213","210030","0.0-142.0","3PXX5PX6LYK8ZRI3OXY0YFX5T7ZBA0","A30W987G9S6F0G","3R5LWXWHR0UE010DORDQUF3E2FPGXE","","<img src=""img/set1/S2.jpg"" width=""540"" height = ""360"">","null","","","","","","","",""
"null","","html-keyboard-response","214","210033","0.0-143.0","3PXX5PX6LYK8ZRI3OXY0YFX5T7ZBA0","A30W987G9S6F0G","3R5LWXWHR0UE010DORDQUF3E2FPGXE","","","null","","","","","","","",""
"711","","image-keyboard-response","215","210744","0.0-144.0","3PXX5PX6LYK8ZRI3OXY0YFX5T7ZBA0","A30W987G9S6F0G","3R5LWXWHR0UE010DORDQUF3E2FPGXE","","img/set1/S1.jpg","83","1","structured_normal","83","true","structured_normal,structured_incentive,random","1,2,2,3","",""
"null","","html-keyboard-response","216","211105","0.0-145.0","3PXX5PX6LYK8ZRI3OXY0YFX5T7ZBA0","A30W987G9S6F0G","3R5LWXWHR0UE010DORDQUF3E2FPGXE","","<img src=""img/set1/S1.jpg"" width=""540"" height = ""360"" style=""border:16px solid orange"">","null","","","","","","","",""
"null","","html-keyboard-response","217","211107","0.0-146.0","3PXX5PX6LYK8ZRI3OXY0YFX5T7ZBA0","A30W987G9S6F0G","3R5LWXWHR0UE010DORDQUF3E2FPGXE","","","null","","","","","","","",""
"965","","image-keyboard-response","218","212073","0.0-147.0","3PXX5PX6LYK8ZRI3OXY0YFX5T7ZBA0","A30W987G9S6F0G","3R5LWXWHR0UE010DORDQUF3E2FPGXE","","img/set1/S2.jpg","74","2","structured_normal","68","false","structured_normal,structured_incentive,random","1,2,2,3","",""
"null","","html-keyboard-response","219","212432","0.0-148.0","3PXX5PX6LYK8ZRI3OXY0YFX5T7ZBA0","A30W987G9S6F0G","3R5LWXWHR0UE010DORDQUF3E2FPGXE","","<img src=""img/set1/S2.jpg"" width=""540"" height = ""360"">","null","","","","","","","",""
"null","","html-keyboard-response","220","212434","0.0-149.0","3PXX5PX6LYK8ZRI3OXY0YFX5T7ZBA0","A30W987G9S6F0G","3R5LWXWHR0UE010DORDQUF3E2FPGXE","","","null","","","","","","","",""
"1062","","image-keyboard-response","221","213496","0.0-150.0","3PXX5PX6LYK8ZRI3OXY0YFX5T7ZBA0","A30W987G9S6F0G","3R5LWXWHR0UE010DORDQUF3E2FPGXE","","img/set1/S3.jpg","72","3","structured_normal","72","true","structured_normal,structured_incentive,random","1,2,2,3","",""
"null","","html-keyboard-response","222","213853","0.0-151.0","3PXX5PX6LYK8ZRI3OXY0YFX5T7ZBA0","A30W987G9S6F0G","3R5LWXWHR0UE010DORDQUF3E2FPGXE","","<img src=""img/set1/S3.jpg"" width=""540"" height = ""360"" style=""border:16px solid orange"">","null","","","","","","","",""
"null","","html-keyboard-response","223","213855","0.0-152.0","3PXX5PX6LYK8ZRI3OXY0YFX5T7ZBA0","A30W987G9S6F0G","3R5LWXWHR0UE010DORDQUF3E2FPGXE","","","null","","","","","","","",""
"1265","","image-keyboard-response","224","215120","0.0-153.0","3PXX5PX6LYK8ZRI3OXY0YFX5T7ZBA0","A30W987G9S6F0G","3R5LWXWHR0UE010DORDQUF3E2FPGXE","","img/set1/S1.jpg","68","1","structured_normal","83","false","structured_normal,structured_incentive,random","1,2,2,3","",""
"null","","html-keyboard-response","225","215472","0.0-154.0","3PXX5PX6LYK8ZRI3OXY0YFX5T7ZBA0","A30W987G9S6F0G","3R5LWXWHR0UE010DORDQUF3E2FPGXE","","<img src=""img/set1/S1.jpg"" width=""540"" height = ""360"">","null","","","","","","","",""
"null","","html-keyboard-response","226","215474","0.0-155.0","3PXX5PX6LYK8ZRI3OXY0YFX5T7ZBA0","A30W987G9S6F0G","3R5LWXWHR0UE010DORDQUF3E2FPGXE","","","null","","","","","","","",""
"1567.5999999642372","","image-keyboard-response","227","217042","0.0-156.0","3PXX5PX6LYK8ZRI3OXY0YFX5T7ZBA0","A30W987G9S6F0G","3R5LWXWHR0UE010DORDQUF3E2FPGXE","","img/set1/S2.jpg","83","2","structured_normal","68","false","structured_normal,structured_incentive,random","1,2,2,3","",""
"null","","html-keyboard-response","228","217398","0.0-157.0","3PXX5PX6LYK8ZRI3OXY0YFX5T7ZBA0","A30W987G9S6F0G","3R5LWXWHR0UE010DORDQUF3E2FPGXE","","<img src=""img/set1/S2.jpg"" width=""540"" height = ""360"">","null","","","","","","","",""
"null","","html-keyboard-response","229","217401","0.0-158.0","3PXX5PX6LYK8ZRI3OXY0YFX5T7ZBA0","A30W987G9S6F0G","3R5LWXWHR0UE010DORDQUF3E2FPGXE","","","null","","","","","","","",""
"1047","","image-keyboard-response","230","218448","0.0-159.0","3PXX5PX6LYK8ZRI3OXY0YFX5T7ZBA0","A30W987G9S6F0G","3R5LWXWHR0UE010DORDQUF3E2FPGXE","","img/set1/S1.jpg","68","1","structured_normal","83","false","structured_normal,structured_incentive,random","1,2,2,3","",""
"null","","html-keyboard-response","231","218813","0.0-160.0","3PXX5PX6LYK8ZRI3OXY0YFX5T7ZBA0","A30W987G9S6F0G","3R5LWXWHR0UE010DORDQUF3E2FPGXE","","<img src=""img/set1/S1.jpg"" width=""540"" height = ""360"">","null","","","","","","","",""
"null","","html-keyboard-response","232","218816","0.0-161.0","3PXX5PX6LYK8ZRI3OXY0YFX5T7ZBA0","A30W987G9S6F0G","3R5LWXWHR0UE010DORDQUF3E2FPGXE","","","null","","","","","","","",""
"1616.0999999642372","","image-keyboard-response","233","220432","0.0-162.0","3PXX5PX6LYK8ZRI3OXY0YFX5T7ZBA0","A30W987G9S6F0G","3R5LWXWHR0UE010DORDQUF3E2FPGXE","","img/set1/S2.jpg","72","2","structured_normal","68","false","structured_normal,structured_incentive,random","1,2,2,3","",""
"null","","html-keyboard-response","234","220784","0.0-163.0","3PXX5PX6LYK8ZRI3OXY0YFX5T7ZBA0","A30W987G9S6F0G","3R5LWXWHR0UE010DORDQUF3E2FPGXE","","<img src=""img/set1/S2.jpg"" width=""540"" height = ""360"">","null","","","","","","","",""
"null","","html-keyboard-response","235","220786","0.0-164.0","3PXX5PX6LYK8ZRI3OXY0YFX5T7ZBA0","A30W987G9S6F0G","3R5LWXWHR0UE010DORDQUF3E2FPGXE","","","null","","","","","","","",""
"1405.699999988079","","image-keyboard-response","236","222192","0.0-165.0","3PXX5PX6LYK8ZRI3OXY0YFX5T7ZBA0","A30W987G9S6F0G","3R5LWXWHR0UE010DORDQUF3E2FPGXE","","img/set1/S4.jpg","74","4","structured_normal","74","true","structured_normal,structured_incentive,random","1,2,2,3","",""
"null","","html-keyboard-response","237","222550","0.0-166.0","3PXX5PX6LYK8ZRI3OXY0YFX5T7ZBA0","A30W987G9S6F0G","3R5LWXWHR0UE010DORDQUF3E2FPGXE","","<img src=""img/set1/S4.jpg"" width=""540"" height = ""360"" style=""border:16px solid orange"">","null","","","","","","","",""
"null","","html-keyboard-response","238","222552","0.0-167.0","3PXX5PX6LYK8ZRI3OXY0YFX5T7ZBA0","A30W987G9S6F0G","3R5LWXWHR0UE010DORDQUF3E2FPGXE","","","null","","","","","","","",""
"1679.5","","image-keyboard-response","239","224232","0.0-168.0","3PXX5PX6LYK8ZRI3OXY0YFX5T7ZBA0","A30W987G9S6F0G","3R5LWXWHR0UE010DORDQUF3E2FPGXE","","img/set1/S2.jpg","72","2","structured_normal","68","false","structured_normal,structured_incentive,random","1,2,2,3","",""
"null","","html-keyboard-response","240","224586","0.0-169.0","3PXX5PX6LYK8ZRI3OXY0YFX5T7ZBA0","A30W987G9S6F0G","3R5LWXWHR0UE010DORDQUF3E2FPGXE","","<img src=""img/set1/S2.jpg"" width=""540"" height = ""360"">","null","","","","","","","",""
"null","","html-keyboard-response","241","224588","0.0-170.0","3PXX5PX6LYK8ZRI3OXY0YFX5T7ZBA0","A30W987G9S6F0G","3R5LWXWHR0UE010DORDQUF3E2FPGXE","","","null","","","","","","","",""
"844.0999999642372","","image-keyboard-response","242","225432","0.0-171.0","3PXX5PX6LYK8ZRI3OXY0YFX5T7ZBA0","A30W987G9S6F0G","3R5LWXWHR0UE010DORDQUF3E2FPGXE","","img/set1/S4.jpg","74","4","structured_normal","74","true","structured_normal,structured_incentive,random","1,2,2,3","",""
"null","","html-keyboard-response","243","225787","0.0-172.0","3PXX5PX6LYK8ZRI3OXY0YFX5T7ZBA0","A30W987G9S6F0G","3R5LWXWHR0UE010DORDQUF3E2FPGXE","","<img src=""img/set1/S4.jpg"" width=""540"" height = ""360"" style=""border:16px solid orange"">","null","","","","","","","",""
"null","","html-keyboard-response","244","225789","0.0-173.0","3PXX5PX6LYK8ZRI3OXY0YFX5T7ZBA0","A30W987G9S6F0G","3R5LWXWHR0UE010DORDQUF3E2FPGXE","","","null","","","","","","","",""
"1058.6000000238419","","image-keyboard-response","245","226848","0.0-174.0","3PXX5PX6LYK8ZRI3OXY0YFX5T7ZBA0","A30W987G9S6F0G","3R5LWXWHR0UE010DORDQUF3E2FPGXE","","img/set1/S3.jpg","72","3","structured_normal","72","true","structured_normal,structured_incentive,random","1,2,2,3","",""
"null","","html-keyboard-response","246","227206","0.0-175.0","3PXX5PX6LYK8ZRI3OXY0YFX5T7ZBA0","A30W987G9S6F0G","3R5LWXWHR0UE010DORDQUF3E2FPGXE","","<img src=""img/set1/S3.jpg"" width=""540"" height = ""360"" style=""border:16px solid orange"">","null","","","","","","","",""
"null","","html-keyboard-response","247","227208","0.0-176.0","3PXX5PX6LYK8ZRI3OXY0YFX5T7ZBA0","A30W987G9S6F0G","3R5LWXWHR0UE010DORDQUF3E2FPGXE","","","null","","","","","","","",""
"481.69999998807907","","image-keyboard-response","248","227690","0.0-177.0","3PXX5PX6LYK8ZRI3OXY0YFX5T7ZBA0","A30W987G9S6F0G","3R5LWXWHR0UE010DORDQUF3E2FPGXE","","img/set1/S3.jpg","72","3","structured_normal","72","true","structured_normal,structured_incentive,random","1,2,2,3","",""
"null","","html-keyboard-response","249","228047","0.0-178.0","3PXX5PX6LYK8ZRI3OXY0YFX5T7ZBA0","A30W987G9S6F0G","3R5LWXWHR0UE010DORDQUF3E2FPGXE","","<img src=""img/set1/S3.jpg"" width=""540"" height = ""360"" style=""border:16px solid orange"">","null","","","","","","","",""
"null","","html-keyboard-response","250","228049","0.0-179.0","3PXX5PX6LYK8ZRI3OXY0YFX5T7ZBA0","A30W987G9S6F0G","3R5LWXWHR0UE010DORDQUF3E2FPGXE","","","null","","","","","","","",""
"1070.6000000238419","","image-keyboard-response","251","229120","0.0-180.0","3PXX5PX6LYK8ZRI3OXY0YFX5T7ZBA0","A30W987G9S6F0G","3R5LWXWHR0UE010DORDQUF3E2FPGXE","","img/set1/S4.jpg","74","4","structured_normal","74","true","structured_normal,structured_incentive,random","1,2,2,3","",""
"null","","html-keyboard-response","252","229481","0.0-181.0","3PXX5PX6LYK8ZRI3OXY0YFX5T7ZBA0","A30W987G9S6F0G","3R5LWXWHR0UE010DORDQUF3E2FPGXE","","<img src=""img/set1/S4.jpg"" width=""540"" height = ""360"" style=""border:16px solid orange"">","null","","","","","","","",""
"null","","html-keyboard-response","253","229482","0.0-182.0","3PXX5PX6LYK8ZRI3OXY0YFX5T7ZBA0","A30W987G9S6F0G","3R5LWXWHR0UE010DORDQUF3E2FPGXE","","","null","","","","","","","",""
"1101.300000011921","","image-keyboard-response","254","230584","0.0-183.0","3PXX5PX6LYK8ZRI3OXY0YFX5T7ZBA0","A30W987G9S6F0G","3R5LWXWHR0UE010DORDQUF3E2FPGXE","","img/set1/S1.jpg","68","1","structured_normal","83","false","structured_normal,structured_incentive,random","1,2,2,3","",""
"null","","html-keyboard-response","255","230948","0.0-184.0","3PXX5PX6LYK8ZRI3OXY0YFX5T7ZBA0","A30W987G9S6F0G","3R5LWXWHR0UE010DORDQUF3E2FPGXE","","<img src=""img/set1/S1.jpg"" width=""540"" height = ""360"">","null","","","","","","","",""
"null","","html-keyboard-response","256","230949","0.0-185.0","3PXX5PX6LYK8ZRI3OXY0YFX5T7ZBA0","A30W987G9S6F0G","3R5LWXWHR0UE010DORDQUF3E2FPGXE","","","null","","","","","","","",""
"1170.300000011921","","image-keyboard-response","257","232120","0.0-186.0","3PXX5PX6LYK8ZRI3OXY0YFX5T7ZBA0","A30W987G9S6F0G","3R5LWXWHR0UE010DORDQUF3E2FPGXE","","img/set1/S2.jpg","68","2","structured_normal","68","true","structured_normal,structured_incentive,random","1,2,2,3","",""
"null","","html-keyboard-response","258","232479","0.0-187.0","3PXX5PX6LYK8ZRI3OXY0YFX5T7ZBA0","A30W987G9S6F0G","3R5LWXWHR0UE010DORDQUF3E2FPGXE","","<img src=""img/set1/S2.jpg"" width=""540"" height = ""360"" style=""border:16px solid orange"">","null","","","","","","","",""
"null","","html-keyboard-response","259","232480","0.0-188.0","3PXX5PX6LYK8ZRI3OXY0YFX5T7ZBA0","A30W987G9S6F0G","3R5LWXWHR0UE010DORDQUF3E2FPGXE","","","null","","","","","","","",""
"591.5","","image-keyboard-response","260","233072","0.0-189.0","3PXX5PX6LYK8ZRI3OXY0YFX5T7ZBA0","A30W987G9S6F0G","3R5LWXWHR0UE010DORDQUF3E2FPGXE","","img/set1/S2.jpg","68","2","structured_normal","68","true","structured_normal,structured_incentive,random","1,2,2,3","",""
"null","","html-keyboard-response","261","233430","0.0-190.0","3PXX5PX6LYK8ZRI3OXY0YFX5T7ZBA0","A30W987G9S6F0G","3R5LWXWHR0UE010DORDQUF3E2FPGXE","","<img src=""img/set1/S2.jpg"" width=""540"" height = ""360"" style=""border:16px solid orange"">","null","","","","","","","",""
"null","","html-keyboard-response","262","233433","0.0-191.0","3PXX5PX6LYK8ZRI3OXY0YFX5T7ZBA0","A30W987G9S6F0G","3R5LWXWHR0UE010DORDQUF3E2FPGXE","","","null","","","","","","","",""
"1702.800000011921","","image-keyboard-response","263","235136","0.0-192.0","3PXX5PX6LYK8ZRI3OXY0YFX5T7ZBA0","A30W987G9S6F0G","3R5LWXWHR0UE010DORDQUF3E2FPGXE","","img/set1/S4.jpg","74","4","structured_normal","74","true","structured_normal,structured_incentive,random","1,2,2,3","",""
"null","","html-keyboard-response","264","235488","0.0-193.0","3PXX5PX6LYK8ZRI3OXY0YFX5T7ZBA0","A30W987G9S6F0G","3R5LWXWHR0UE010DORDQUF3E2FPGXE","","<img src=""img/set1/S4.jpg"" width=""540"" height = ""360"" style=""border:16px solid orange"">","null","","","","","","","",""
"null","","html-keyboard-response","265","235490","0.0-194.0","3PXX5PX6LYK8ZRI3OXY0YFX5T7ZBA0","A30W987G9S6F0G","3R5LWXWHR0UE010DORDQUF3E2FPGXE","","","null","","","","","","","",""
"1549.5999999642372","","image-keyboard-response","266","237040","0.0-195.0","3PXX5PX6LYK8ZRI3OXY0YFX5T7ZBA0","A30W987G9S6F0G","3R5LWXWHR0UE010DORDQUF3E2FPGXE","","img/set1/S1.jpg","72","1","structured_normal","83","false","structured_normal,structured_incentive,random","1,2,2,3","",""
"null","","html-keyboard-response","267","237405","0.0-196.0","3PXX5PX6LYK8ZRI3OXY0YFX5T7ZBA0","A30W987G9S6F0G","3R5LWXWHR0UE010DORDQUF3E2FPGXE","","<img src=""img/set1/S1.jpg"" width=""540"" height = ""360"">","null","","","","","","","",""
"null","","html-keyboard-response","268","237408","0.0-197.0","3PXX5PX6LYK8ZRI3OXY0YFX5T7ZBA0","A30W987G9S6F0G","3R5LWXWHR0UE010DORDQUF3E2FPGXE","","","null","","","","","","","",""
"1210.5","","image-keyboard-response","269","238619","0.0-198.0","3PXX5PX6LYK8ZRI3OXY0YFX5T7ZBA0","A30W987G9S6F0G","3R5LWXWHR0UE010DORDQUF3E2FPGXE","","img/set1/S3.jpg","72","3","structured_normal","72","true","structured_normal,structured_incentive,random","1,2,2,3","",""
"null","","html-keyboard-response","270","238985","0.0-199.0","3PXX5PX6LYK8ZRI3OXY0YFX5T7ZBA0","A30W987G9S6F0G","3R5LWXWHR0UE010DORDQUF3E2FPGXE","","<img src=""img/set1/S3.jpg"" width=""540"" height = ""360"" style=""border:16px solid orange"">","null","","","","","","","",""
"null","","html-keyboard-response","271","238987","0.0-200.0","3PXX5PX6LYK8ZRI3OXY0YFX5T7ZBA0","A30W987G9S6F0G","3R5LWXWHR0UE010DORDQUF3E2FPGXE","","","null","","","","","","","",""
"381","","image-keyboard-response","272","239368","0.0-201.0","3PXX5PX6LYK8ZRI3OXY0YFX5T7ZBA0","A30W987G9S6F0G","3R5LWXWHR0UE010DORDQUF3E2FPGXE","","img/set1/S3.jpg","72","3","structured_normal","72","true","structured_normal,structured_incentive,random","1,2,2,3","",""
"null","","html-keyboard-response","273","239734","0.0-202.0","3PXX5PX6LYK8ZRI3OXY0YFX5T7ZBA0","A30W987G9S6F0G","3R5LWXWHR0UE010DORDQUF3E2FPGXE","","<img src=""img/set1/S3.jpg"" width=""540"" height = ""360"" style=""border:16px solid orange"">","null","","","","","","","",""
"null","","html-keyboard-response","274","239736","0.0-203.0","3PXX5PX6LYK8ZRI3OXY0YFX5T7ZBA0","A30W987G9S6F0G","3R5LWXWHR0UE010DORDQUF3E2FPGXE","","","null","","","","","","","",""
"551.8999999761581","","image-keyboard-response","275","240288","0.0-204.0","3PXX5PX6LYK8ZRI3OXY0YFX5T7ZBA0","A30W987G9S6F0G","3R5LWXWHR0UE010DORDQUF3E2FPGXE","","img/set1/S1.jpg","74","1","structured_normal","83","false","structured_normal,structured_incentive,random","1,2,2,3","",""
"null","","html-keyboard-response","276","240645","0.0-205.0","3PXX5PX6LYK8ZRI3OXY0YFX5T7ZBA0","A30W987G9S6F0G","3R5LWXWHR0UE010DORDQUF3E2FPGXE","","<img src=""img/set1/S1.jpg"" width=""540"" height = ""360"">","null","","","","","","","",""
"null","","html-keyboard-response","277","240647","0.0-206.0","3PXX5PX6LYK8ZRI3OXY0YFX5T7ZBA0","A30W987G9S6F0G","3R5LWXWHR0UE010DORDQUF3E2FPGXE","","","null","","","","","","","",""
"1488","","image-keyboard-response","278","242136","0.0-207.0","3PXX5PX6LYK8ZRI3OXY0YFX5T7ZBA0","A30W987G9S6F0G","3R5LWXWHR0UE010DORDQUF3E2FPGXE","","img/set1/S2.jpg","68","2","structured_normal","68","true","structured_normal,structured_incentive,random","1,2,2,3","",""
"null","","html-keyboard-response","279","242494","0.0-208.0","3PXX5PX6LYK8ZRI3OXY0YFX5T7ZBA0","A30W987G9S6F0G","3R5LWXWHR0UE010DORDQUF3E2FPGXE","","<img src=""img/set1/S2.jpg"" width=""540"" height = ""360"" style=""border:16px solid orange"">","null","","","","","","","",""
"null","","html-keyboard-response","280","242496","0.0-209.0","3PXX5PX6LYK8ZRI3OXY0YFX5T7ZBA0","A30W987G9S6F0G","3R5LWXWHR0UE010DORDQUF3E2FPGXE","","","null","","","","","","","",""
"1047.699999988079","","image-keyboard-response","281","243544","0.0-210.0","3PXX5PX6LYK8ZRI3OXY0YFX5T7ZBA0","A30W987G9S6F0G","3R5LWXWHR0UE010DORDQUF3E2FPGXE","","img/set1/S3.jpg","72","3","structured_normal","72","true","structured_normal,structured_incentive,random","1,2,2,3","",""
"null","","html-keyboard-response","282","243897","0.0-211.0","3PXX5PX6LYK8ZRI3OXY0YFX5T7ZBA0","A30W987G9S6F0G","3R5LWXWHR0UE010DORDQUF3E2FPGXE","","<img src=""img/set1/S3.jpg"" width=""540"" height = ""360"" style=""border:16px solid orange"">","null","","","","","","","",""
"null","","html-keyboard-response","283","243899","0.0-212.0","3PXX5PX6LYK8ZRI3OXY0YFX5T7ZBA0","A30W987G9S6F0G","3R5LWXWHR0UE010DORDQUF3E2FPGXE","","","null","","","","","","","",""
"820.6000000238419","","image-keyboard-response","284","244720","0.0-213.0","3PXX5PX6LYK8ZRI3OXY0YFX5T7ZBA0","A30W987G9S6F0G","3R5LWXWHR0UE010DORDQUF3E2FPGXE","","img/set1/S2.jpg","68","2","structured_normal","68","true","structured_normal,structured_incentive,random","1,2,2,3","",""
"null","","html-keyboard-response","285","245086","0.0-214.0","3PXX5PX6LYK8ZRI3OXY0YFX5T7ZBA0","A30W987G9S6F0G","3R5LWXWHR0UE010DORDQUF3E2FPGXE","","<img src=""img/set1/S2.jpg"" width=""540"" height = ""360"" style=""border:16px solid orange"">","null","","","","","","","",""
"null","","html-keyboard-response","286","245087","0.0-215.0","3PXX5PX6LYK8ZRI3OXY0YFX5T7ZBA0","A30W987G9S6F0G","3R5LWXWHR0UE010DORDQUF3E2FPGXE","","","null","","","","","","","",""
"840.0999999642372","","image-keyboard-response","287","245928","0.0-216.0","3PXX5PX6LYK8ZRI3OXY0YFX5T7ZBA0","A30W987G9S6F0G","3R5LWXWHR0UE010DORDQUF3E2FPGXE","","img/set1/S4.jpg","83","4","structured_normal","74","false","structured_normal,structured_incentive,random","1,2,2,3","",""
"null","","html-keyboard-response","288","246283","0.0-217.0","3PXX5PX6LYK8ZRI3OXY0YFX5T7ZBA0","A30W987G9S6F0G","3R5LWXWHR0UE010DORDQUF3E2FPGXE","","<img src=""img/set1/S4.jpg"" width=""540"" height = ""360"">","null","","","","","","","",""
"null","","html-keyboard-response","289","246284","0.0-218.0","3PXX5PX6LYK8ZRI3OXY0YFX5T7ZBA0","A30W987G9S6F0G","3R5LWXWHR0UE010DORDQUF3E2FPGXE","","","null","","","","","","","",""
"1307.0999999642372","","image-keyboard-response","290","247592","0.0-219.0","3PXX5PX6LYK8ZRI3OXY0YFX5T7ZBA0","A30W987G9S6F0G","3R5LWXWHR0UE010DORDQUF3E2FPGXE","","img/set1/S3.jpg","72","3","structured_normal","72","true","structured_normal,structured_incentive,random","1,2,2,3","",""
"null","","html-keyboard-response","291","247948","0.0-220.0","3PXX5PX6LYK8ZRI3OXY0YFX5T7ZBA0","A30W987G9S6F0G","3R5LWXWHR0UE010DORDQUF3E2FPGXE","","<img src=""img/set1/S3.jpg"" width=""540"" height = ""360"" style=""border:16px solid orange"">","null","","","","","","","",""
"null","","html-keyboard-response","292","247950","0.0-221.0","3PXX5PX6LYK8ZRI3OXY0YFX5T7ZBA0","A30W987G9S6F0G","3R5LWXWHR0UE010DORDQUF3E2FPGXE","","","null","","","","","","","",""
"1963.3999999761581","","image-keyboard-response","293","249914","0.0-222.0","3PXX5PX6LYK8ZRI3OXY0YFX5T7ZBA0","A30W987G9S6F0G","3R5LWXWHR0UE010DORDQUF3E2FPGXE","","img/set1/S4.jpg","74","4","structured_normal","74","true","structured_normal,structured_incentive,random","1,2,2,3","",""
"null","","html-keyboard-response","294","250268","0.0-223.0","3PXX5PX6LYK8ZRI3OXY0YFX5T7ZBA0","A30W987G9S6F0G","3R5LWXWHR0UE010DORDQUF3E2FPGXE","","<img src=""img/set1/S4.jpg"" width=""540"" height = ""360"" style=""border:16px solid orange"">","null","","","","","","","",""
"null","","html-keyboard-response","295","250270","0.0-224.0","3PXX5PX6LYK8ZRI3OXY0YFX5T7ZBA0","A30W987G9S6F0G","3R5LWXWHR0UE010DORDQUF3E2FPGXE","","","null","","","","","","","",""
"2073.300000011921","","image-keyboard-response","296","252344","0.0-225.0","3PXX5PX6LYK8ZRI3OXY0YFX5T7ZBA0","A30W987G9S6F0G","3R5LWXWHR0UE010DORDQUF3E2FPGXE","","img/set1/S1.jpg","68","1","structured_normal","83","false","structured_normal,structured_incentive,random","1,2,2,3","",""
"null","","html-keyboard-response","297","252711","0.0-226.0","3PXX5PX6LYK8ZRI3OXY0YFX5T7ZBA0","A30W987G9S6F0G","3R5LWXWHR0UE010DORDQUF3E2FPGXE","","<img src=""img/set1/S1.jpg"" width=""540"" height = ""360"">","null","","","","","","","",""
"null","","html-keyboard-response","298","252713","0.0-227.0","3PXX5PX6LYK8ZRI3OXY0YFX5T7ZBA0","A30W987G9S6F0G","3R5LWXWHR0UE010DORDQUF3E2FPGXE","","","null","","","","","","","",""
"1222.300000011921","","image-keyboard-response","299","253936","0.0-228.0","3PXX5PX6LYK8ZRI3OXY0YFX5T7ZBA0","A30W987G9S6F0G","3R5LWXWHR0UE010DORDQUF3E2FPGXE","","img/set1/S2.jpg","74","2","structured_normal","68","false","structured_normal,structured_incentive,random","1,2,2,3","",""
"null","","html-keyboard-response","300","254287","0.0-229.0","3PXX5PX6LYK8ZRI3OXY0YFX5T7ZBA0","A30W987G9S6F0G","3R5LWXWHR0UE010DORDQUF3E2FPGXE","","<img src=""img/set1/S2.jpg"" width=""540"" height = ""360"">","null","","","","","","","",""
"null","","html-keyboard-response","301","254289","0.0-230.0","3PXX5PX6LYK8ZRI3OXY0YFX5T7ZBA0","A30W987G9S6F0G","3R5LWXWHR0UE010DORDQUF3E2FPGXE","","","null","","","","","","","",""
"1358.300000011921","","image-keyboard-response","302","255648","0.0-231.0","3PXX5PX6LYK8ZRI3OXY0YFX5T7ZBA0","A30W987G9S6F0G","3R5LWXWHR0UE010DORDQUF3E2FPGXE","","img/set1/S1.jpg","74","1","structured_normal","83","false","structured_normal,structured_incentive,random","1,2,2,3","",""
"null","","html-keyboard-response","303","256004","0.0-232.0","3PXX5PX6LYK8ZRI3OXY0YFX5T7ZBA0","A30W987G9S6F0G","3R5LWXWHR0UE010DORDQUF3E2FPGXE","","<img src=""img/set1/S1.jpg"" width=""540"" height = ""360"">","null","","","","","","","",""
"null","","html-keyboard-response","304","256007","0.0-233.0","3PXX5PX6LYK8ZRI3OXY0YFX5T7ZBA0","A30W987G9S6F0G","3R5LWXWHR0UE010DORDQUF3E2FPGXE","","","null","","","","","","","",""
"984.3999999761581","","image-keyboard-response","305","256992","0.0-234.0","3PXX5PX6LYK8ZRI3OXY0YFX5T7ZBA0","A30W987G9S6F0G","3R5LWXWHR0UE010DORDQUF3E2FPGXE","","img/set1/S2.jpg","72","2","structured_normal","68","false","structured_normal,structured_incentive,random","1,2,2,3","",""
"null","","html-keyboard-response","306","257354","0.0-235.0","3PXX5PX6LYK8ZRI3OXY0YFX5T7ZBA0","A30W987G9S6F0G","3R5LWXWHR0UE010DORDQUF3E2FPGXE","","<img src=""img/set1/S2.jpg"" width=""540"" height = ""360"">","null","","","","","","","",""
"null","","html-keyboard-response","307","257357","0.0-236.0","3PXX5PX6LYK8ZRI3OXY0YFX5T7ZBA0","A30W987G9S6F0G","3R5LWXWHR0UE010DORDQUF3E2FPGXE","","","null","","","","","","","",""
"1314.5999999642372","","image-keyboard-response","308","258672","0.0-237.0","3PXX5PX6LYK8ZRI3OXY0YFX5T7ZBA0","A30W987G9S6F0G","3R5LWXWHR0UE010DORDQUF3E2FPGXE","","img/set1/S1.jpg","68","1","structured_normal","83","false","structured_normal,structured_incentive,random","1,2,2,3","",""
"null","","html-keyboard-response","309","259023","0.0-238.0","3PXX5PX6LYK8ZRI3OXY0YFX5T7ZBA0","A30W987G9S6F0G","3R5LWXWHR0UE010DORDQUF3E2FPGXE","","<img src=""img/set1/S1.jpg"" width=""540"" height = ""360"">","null","","","","","","","",""
"null","","html-keyboard-response","310","259026","0.0-239.0","3PXX5PX6LYK8ZRI3OXY0YFX5T7ZBA0","A30W987G9S6F0G","3R5LWXWHR0UE010DORDQUF3E2FPGXE","","","null","","","","","","","",""
"1191.2000000476837","","image-keyboard-response","311","260218","0.0-240.0","3PXX5PX6LYK8ZRI3OXY0YFX5T7ZBA0","A30W987G9S6F0G","3R5LWXWHR0UE010DORDQUF3E2FPGXE","","img/set1/S2.jpg","83","2","structured_normal","68","false","structured_normal,structured_incentive,random","1,2,2,3","",""
"null","","html-keyboard-response","312","260579","0.0-241.0","3PXX5PX6LYK8ZRI3OXY0YFX5T7ZBA0","A30W987G9S6F0G","3R5LWXWHR0UE010DORDQUF3E2FPGXE","","<img src=""img/set1/S2.jpg"" width=""540"" height = ""360"">","null","","","","","","","",""
"null","","html-keyboard-response","313","260580","0.0-242.0","3PXX5PX6LYK8ZRI3OXY0YFX5T7ZBA0","A30W987G9S6F0G","3R5LWXWHR0UE010DORDQUF3E2FPGXE","","","null","","","","","","","",""
"547","","image-keyboard-response","314","261128","0.0-243.0","3PXX5PX6LYK8ZRI3OXY0YFX5T7ZBA0","A30W987G9S6F0G","3R5LWXWHR0UE010DORDQUF3E2FPGXE","","img/set1/S1.jpg","83","1","structured_normal","83","true","structured_normal,structured_incentive,random","1,2,2,3","",""
"null","","html-keyboard-response","315","261494","0.0-244.0","3PXX5PX6LYK8ZRI3OXY0YFX5T7ZBA0","A30W987G9S6F0G","3R5LWXWHR0UE010DORDQUF3E2FPGXE","","<img src=""img/set1/S1.jpg"" width=""540"" height = ""360"" style=""border:16px solid orange"">","null","","","","","","","",""
"null","","html-keyboard-response","316","261496","0.0-245.0","3PXX5PX6LYK8ZRI3OXY0YFX5T7ZBA0","A30W987G9S6F0G","3R5LWXWHR0UE010DORDQUF3E2FPGXE","","","null","","","","","","","",""
"871.5","","image-keyboard-response","317","262368","0.0-246.0","3PXX5PX6LYK8ZRI3OXY0YFX5T7ZBA0","A30W987G9S6F0G","3R5LWXWHR0UE010DORDQUF3E2FPGXE","","img/set1/S2.jpg","68","2","structured_normal","68","true","structured_normal,structured_incentive,random","1,2,2,3","",""
"null","","html-keyboard-response","318","262733","0.0-247.0","3PXX5PX6LYK8ZRI3OXY0YFX5T7ZBA0","A30W987G9S6F0G","3R5LWXWHR0UE010DORDQUF3E2FPGXE","","<img src=""img/set1/S2.jpg"" width=""540"" height = ""360"" style=""border:16px solid orange"">","null","","","","","","","",""
"null","","html-keyboard-response","319","262734","0.0-248.0","3PXX5PX6LYK8ZRI3OXY0YFX5T7ZBA0","A30W987G9S6F0G","3R5LWXWHR0UE010DORDQUF3E2FPGXE","","","null","","","","","","","",""
"680.9000000357628","","image-keyboard-response","320","263416","0.0-249.0","3PXX5PX6LYK8ZRI3OXY0YFX5T7ZBA0","A30W987G9S6F0G","3R5LWXWHR0UE010DORDQUF3E2FPGXE","","img/set1/S1.jpg","83","1","structured_normal","83","true","structured_normal,structured_incentive,random","1,2,2,3","",""
"null","","html-keyboard-response","321","263777","0.0-250.0","3PXX5PX6LYK8ZRI3OXY0YFX5T7ZBA0","A30W987G9S6F0G","3R5LWXWHR0UE010DORDQUF3E2FPGXE","","<img src=""img/set1/S1.jpg"" width=""540"" height = ""360"" style=""border:16px solid orange"">","null","","","","","","","",""
"null","","html-keyboard-response","322","263778","0.0-251.0","3PXX5PX6LYK8ZRI3OXY0YFX5T7ZBA0","A30W987G9S6F0G","3R5LWXWHR0UE010DORDQUF3E2FPGXE","","","null","","","","","","","",""
"508.80000001192093","","image-keyboard-response","323","264288","0.0-252.0","3PXX5PX6LYK8ZRI3OXY0YFX5T7ZBA0","A30W987G9S6F0G","3R5LWXWHR0UE010DORDQUF3E2FPGXE","","img/set1/S2.jpg","68","2","structured_normal","68","true","structured_normal,structured_incentive,random","1,2,2,3","",""
"null","","html-keyboard-response","324","264652","0.0-253.0","3PXX5PX6LYK8ZRI3OXY0YFX5T7ZBA0","A30W987G9S6F0G","3R5LWXWHR0UE010DORDQUF3E2FPGXE","","<img src=""img/set1/S2.jpg"" width=""540"" height = ""360"" style=""border:16px solid orange"">","null","","","","","","","",""
"null","","html-keyboard-response","325","264654","0.0-254.0","3PXX5PX6LYK8ZRI3OXY0YFX5T7ZBA0","A30W987G9S6F0G","3R5LWXWHR0UE010DORDQUF3E2FPGXE","","","null","","","","","","","",""
"1129.800000011921","","image-keyboard-response","326","265784","0.0-255.0","3PXX5PX6LYK8ZRI3OXY0YFX5T7ZBA0","A30W987G9S6F0G","3R5LWXWHR0UE010DORDQUF3E2FPGXE","","img/set1/S4.jpg","72","4","structured_normal","74","false","structured_normal,structured_incentive,random","1,2,2,3","",""
"null","","html-keyboard-response","327","266139","0.0-256.0","3PXX5PX6LYK8ZRI3OXY0YFX5T7ZBA0","A30W987G9S6F0G","3R5LWXWHR0UE010DORDQUF3E2FPGXE","","<img src=""img/set1/S4.jpg"" width=""540"" height = ""360"">","null","","","","","","","",""
"null","","html-keyboard-response","328","266141","0.0-257.0","3PXX5PX6LYK8ZRI3OXY0YFX5T7ZBA0","A30W987G9S6F0G","3R5LWXWHR0UE010DORDQUF3E2FPGXE","","","null","","","","","","","",""
"1130.800000011921","","image-keyboard-response","329","267272","0.0-258.0","3PXX5PX6LYK8ZRI3OXY0YFX5T7ZBA0","A30W987G9S6F0G","3R5LWXWHR0UE010DORDQUF3E2FPGXE","","img/set1/S3.jpg","72","3","structured_normal","72","true","structured_normal,structured_incentive,random","1,2,2,3","",""
"null","","html-keyboard-response","330","267630","0.0-259.0","3PXX5PX6LYK8ZRI3OXY0YFX5T7ZBA0","A30W987G9S6F0G","3R5LWXWHR0UE010DORDQUF3E2FPGXE","","<img src=""img/set1/S3.jpg"" width=""540"" height = ""360"" style=""border:16px solid orange"">","null","","","","","","","",""
"null","","html-keyboard-response","331","267633","0.0-260.0","3PXX5PX6LYK8ZRI3OXY0YFX5T7ZBA0","A30W987G9S6F0G","3R5LWXWHR0UE010DORDQUF3E2FPGXE","","","null","","","","","","","",""
"1038.800000011921","","image-keyboard-response","332","268672","0.0-261.0","3PXX5PX6LYK8ZRI3OXY0YFX5T7ZBA0","A30W987G9S6F0G","3R5LWXWHR0UE010DORDQUF3E2FPGXE","","img/set1/S4.jpg","74","4","structured_normal","74","true","structured_normal,structured_incentive,random","1,2,2,3","",""
"null","","html-keyboard-response","333","269026","0.0-262.0","3PXX5PX6LYK8ZRI3OXY0YFX5T7ZBA0","A30W987G9S6F0G","3R5LWXWHR0UE010DORDQUF3E2FPGXE","","<img src=""img/set1/S4.jpg"" width=""540"" height = ""360"" style=""border:16px solid orange"">","null","","","","","","","",""
"null","","html-keyboard-response","334","269028","0.0-263.0","3PXX5PX6LYK8ZRI3OXY0YFX5T7ZBA0","A30W987G9S6F0G","3R5LWXWHR0UE010DORDQUF3E2FPGXE","","","null","","","","","","","",""
"2029.6000000238419","","image-keyboard-response","335","271058","0.0-264.0","3PXX5PX6LYK8ZRI3OXY0YFX5T7ZBA0","A30W987G9S6F0G","3R5LWXWHR0UE010DORDQUF3E2FPGXE","","img/set1/S1.jpg","83","1","structured_normal","83","true","structured_normal,structured_incentive,random","1,2,2,3","",""
"null","","html-keyboard-response","336","271420","0.0-265.0","3PXX5PX6LYK8ZRI3OXY0YFX5T7ZBA0","A30W987G9S6F0G","3R5LWXWHR0UE010DORDQUF3E2FPGXE","","<img src=""img/set1/S1.jpg"" width=""540"" height = ""360"" style=""border:16px solid orange"">","null","","","","","","","",""
"null","","html-keyboard-response","337","271422","0.0-266.0","3PXX5PX6LYK8ZRI3OXY0YFX5T7ZBA0","A30W987G9S6F0G","3R5LWXWHR0UE010DORDQUF3E2FPGXE","","","null","","","","","","","",""
"929.5","","image-keyboard-response","338","272352","0.0-267.0","3PXX5PX6LYK8ZRI3OXY0YFX5T7ZBA0","A30W987G9S6F0G","3R5LWXWHR0UE010DORDQUF3E2FPGXE","","img/set1/S2.jpg","68","2","structured_normal","68","true","structured_normal,structured_incentive,random","1,2,2,3","",""
"null","","html-keyboard-response","339","272710","0.0-268.0","3PXX5PX6LYK8ZRI3OXY0YFX5T7ZBA0","A30W987G9S6F0G","3R5LWXWHR0UE010DORDQUF3E2FPGXE","","<img src=""img/set1/S2.jpg"" width=""540"" height = ""360"" style=""border:16px solid orange"">","null","","","","","","","",""
"null","","html-keyboard-response","340","272712","0.0-269.0","3PXX5PX6LYK8ZRI3OXY0YFX5T7ZBA0","A30W987G9S6F0G","3R5LWXWHR0UE010DORDQUF3E2FPGXE","","","null","","","","","","","",""
"687.3999999761581","","image-keyboard-response","341","273400","0.0-270.0","3PXX5PX6LYK8ZRI3OXY0YFX5T7ZBA0","A30W987G9S6F0G","3R5LWXWHR0UE010DORDQUF3E2FPGXE","","img/set1/S1.jpg","83","1","structured_normal","83","true","structured_normal,structured_incentive,random","1,2,2,3","",""
"null","","html-keyboard-response","342","273767","0.0-271.0","3PXX5PX6LYK8ZRI3OXY0YFX5T7ZBA0","A30W987G9S6F0G","3R5LWXWHR0UE010DORDQUF3E2FPGXE","","<img src=""img/set1/S1.jpg"" width=""540"" height = ""360"" style=""border:16px solid orange"">","null","","","","","","","",""
"null","","html-keyboard-response","343","273769","0.0-272.0","3PXX5PX6LYK8ZRI3OXY0YFX5T7ZBA0","A30W987G9S6F0G","3R5LWXWHR0UE010DORDQUF3E2FPGXE","","","null","","","","","","","",""
"646.5999999642372","","image-keyboard-response","344","274416","0.0-273.0","3PXX5PX6LYK8ZRI3OXY0YFX5T7ZBA0","A30W987G9S6F0G","3R5LWXWHR0UE010DORDQUF3E2FPGXE","","img/set1/S2.jpg","68","2","structured_normal","68","true","structured_normal,structured_incentive,random","1,2,2,3","",""
"null","","html-keyboard-response","345","274781","0.0-274.0","3PXX5PX6LYK8ZRI3OXY0YFX5T7ZBA0","A30W987G9S6F0G","3R5LWXWHR0UE010DORDQUF3E2FPGXE","","<img src=""img/set1/S2.jpg"" width=""540"" height = ""360"" style=""border:16px solid orange"">","null","","","","","","","",""
"null","","html-keyboard-response","346","274783","0.0-275.0","3PXX5PX6LYK8ZRI3OXY0YFX5T7ZBA0","A30W987G9S6F0G","3R5LWXWHR0UE010DORDQUF3E2FPGXE","","","null","","","","","","","",""
"1544.300000011921","","image-keyboard-response","347","276328","0.0-276.0","3PXX5PX6LYK8ZRI3OXY0YFX5T7ZBA0","A30W987G9S6F0G","3R5LWXWHR0UE010DORDQUF3E2FPGXE","","img/set1/S4.jpg","74","4","structured_normal","74","true","structured_normal,structured_incentive,random","1,2,2,3","",""
"null","","html-keyboard-response","348","276679","0.0-277.0","3PXX5PX6LYK8ZRI3OXY0YFX5T7ZBA0","A30W987G9S6F0G","3R5LWXWHR0UE010DORDQUF3E2FPGXE","","<img src=""img/set1/S4.jpg"" width=""540"" height = ""360"" style=""border:16px solid orange"">","null","","","","","","","",""
"null","","html-keyboard-response","349","276681","0.0-278.0","3PXX5PX6LYK8ZRI3OXY0YFX5T7ZBA0","A30W987G9S6F0G","3R5LWXWHR0UE010DORDQUF3E2FPGXE","","","null","","","","","","","",""
"1678.5","","image-keyboard-response","350","278360","0.0-279.0","3PXX5PX6LYK8ZRI3OXY0YFX5T7ZBA0","A30W987G9S6F0G","3R5LWXWHR0UE010DORDQUF3E2FPGXE","","img/set1/S1.jpg","68","1","structured_normal","83","false","structured_normal,structured_incentive,random","1,2,2,3","",""
"null","","html-keyboard-response","351","278721","0.0-280.0","3PXX5PX6LYK8ZRI3OXY0YFX5T7ZBA0","A30W987G9S6F0G","3R5LWXWHR0UE010DORDQUF3E2FPGXE","","<img src=""img/set1/S1.jpg"" width=""540"" height = ""360"">","null","","","","","","","",""
"null","","html-keyboard-response","352","278724","0.0-281.0","3PXX5PX6LYK8ZRI3OXY0YFX5T7ZBA0","A30W987G9S6F0G","3R5LWXWHR0UE010DORDQUF3E2FPGXE","","","null","","","","","","","",""
"707.3000000119209","","image-keyboard-response","353","279432","0.0-282.0","3PXX5PX6LYK8ZRI3OXY0YFX5T7ZBA0","A30W987G9S6F0G","3R5LWXWHR0UE010DORDQUF3E2FPGXE","","img/set1/S3.jpg","72","3","structured_normal","72","true","structured_normal,structured_incentive,random","1,2,2,3","",""
"null","","html-keyboard-response","354","279797","0.0-283.0","3PXX5PX6LYK8ZRI3OXY0YFX5T7ZBA0","A30W987G9S6F0G","3R5LWXWHR0UE010DORDQUF3E2FPGXE","","<img src=""img/set1/S3.jpg"" width=""540"" height = ""360"" style=""border:16px solid orange"">","null","","","","","","","",""
"null","","html-keyboard-response","355","279799","0.0-284.0","3PXX5PX6LYK8ZRI3OXY0YFX5T7ZBA0","A30W987G9S6F0G","3R5LWXWHR0UE010DORDQUF3E2FPGXE","","","null","","","","","","","",""
"584.1000000238419","","image-keyboard-response","356","280384","0.0-285.0","3PXX5PX6LYK8ZRI3OXY0YFX5T7ZBA0","A30W987G9S6F0G","3R5LWXWHR0UE010DORDQUF3E2FPGXE","","img/set1/S1.jpg","83","1","structured_normal","83","true","structured_normal,structured_incentive,random","1,2,2,3","",""
"null","","html-keyboard-response","357","280746","0.0-286.0","3PXX5PX6LYK8ZRI3OXY0YFX5T7ZBA0","A30W987G9S6F0G","3R5LWXWHR0UE010DORDQUF3E2FPGXE","","<img src=""img/set1/S1.jpg"" width=""540"" height = ""360"" style=""border:16px solid orange"">","null","","","","","","","",""
"null","","html-keyboard-response","358","280748","0.0-287.0","3PXX5PX6LYK8ZRI3OXY0YFX5T7ZBA0","A30W987G9S6F0G","3R5LWXWHR0UE010DORDQUF3E2FPGXE","","","null","","","","","","","",""
"724.8000000119209","","image-keyboard-response","359","281474","0.0-288.0","3PXX5PX6LYK8ZRI3OXY0YFX5T7ZBA0","A30W987G9S6F0G","3R5LWXWHR0UE010DORDQUF3E2FPGXE","","img/set1/S3.jpg","72","3","structured_normal","72","true","structured_normal,structured_incentive,random","1,2,2,3","",""
"null","","html-keyboard-response","360","281836","0.0-289.0","3PXX5PX6LYK8ZRI3OXY0YFX5T7ZBA0","A30W987G9S6F0G","3R5LWXWHR0UE010DORDQUF3E2FPGXE","","<img src=""img/set1/S3.jpg"" width=""540"" height = ""360"" style=""border:16px solid orange"">","null","","","","","","","",""
"null","","html-keyboard-response","361","281838","0.0-290.0","3PXX5PX6LYK8ZRI3OXY0YFX5T7ZBA0","A30W987G9S6F0G","3R5LWXWHR0UE010DORDQUF3E2FPGXE","","","null","","","","","","","",""
"393","","image-keyboard-response","362","282232","0.0-291.0","3PXX5PX6LYK8ZRI3OXY0YFX5T7ZBA0","A30W987G9S6F0G","3R5LWXWHR0UE010DORDQUF3E2FPGXE","","img/set1/S3.jpg","72","3","structured_normal","72","true","structured_normal,structured_incentive,random","1,2,2,3","",""
"null","","html-keyboard-response","363","282587","0.0-292.0","3PXX5PX6LYK8ZRI3OXY0YFX5T7ZBA0","A30W987G9S6F0G","3R5LWXWHR0UE010DORDQUF3E2FPGXE","","<img src=""img/set1/S3.jpg"" width=""540"" height = ""360"" style=""border:16px solid orange"">","null","","","","","","","",""
"null","","html-keyboard-response","364","282589","0.0-293.0","3PXX5PX6LYK8ZRI3OXY0YFX5T7ZBA0","A30W987G9S6F0G","3R5LWXWHR0UE010DORDQUF3E2FPGXE","","","null","","","","","","","",""
"1394","","image-keyboard-response","365","283984","0.0-294.0","3PXX5PX6LYK8ZRI3OXY0YFX5T7ZBA0","A30W987G9S6F0G","3R5LWXWHR0UE010DORDQUF3E2FPGXE","","img/set1/S4.jpg","68","4","structured_normal","74","false","structured_normal,structured_incentive,random","1,2,2,3","",""
"null","","html-keyboard-response","366","284351","0.0-295.0","3PXX5PX6LYK8ZRI3OXY0YFX5T7ZBA0","A30W987G9S6F0G","3R5LWXWHR0UE010DORDQUF3E2FPGXE","","<img src=""img/set1/S4.jpg"" width=""540"" height = ""360"">","null","","","","","","","",""
"null","","html-keyboard-response","367","284352","0.0-296.0","3PXX5PX6LYK8ZRI3OXY0YFX5T7ZBA0","A30W987G9S6F0G","3R5LWXWHR0UE010DORDQUF3E2FPGXE","","","null","","","","","","","",""
"855.0999999642372","","image-keyboard-response","368","285208","0.0-297.0","3PXX5PX6LYK8ZRI3OXY0YFX5T7ZBA0","A30W987G9S6F0G","3R5LWXWHR0UE010DORDQUF3E2FPGXE","","img/set1/S1.jpg","83","1","structured_normal","83","true","structured_normal,structured_incentive,random","1,2,2,3","",""
"null","","html-keyboard-response","369","285570","0.0-298.0","3PXX5PX6LYK8ZRI3OXY0YFX5T7ZBA0","A30W987G9S6F0G","3R5LWXWHR0UE010DORDQUF3E2FPGXE","","<img src=""img/set1/S1.jpg"" width=""540"" height = ""360"" style=""border:16px solid orange"">","null","","","","","","","",""
"null","","html-keyboard-response","370","285571","0.0-299.0","3PXX5PX6LYK8ZRI3OXY0YFX5T7ZBA0","A30W987G9S6F0G","3R5LWXWHR0UE010DORDQUF3E2FPGXE","","","null","","","","","","","",""
"891.7000000476837","","image-keyboard-response","371","286464","0.0-300.0","3PXX5PX6LYK8ZRI3OXY0YFX5T7ZBA0","A30W987G9S6F0G","3R5LWXWHR0UE010DORDQUF3E2FPGXE","","img/set1/S2.jpg","74","2","structured_normal","68","false","structured_normal,structured_incentive,random","1,2,2,3","",""
"null","","html-keyboard-response","372","286826","0.0-301.0","3PXX5PX6LYK8ZRI3OXY0YFX5T7ZBA0","A30W987G9S6F0G","3R5LWXWHR0UE010DORDQUF3E2FPGXE","","<img src=""img/set1/S2.jpg"" width=""540"" height = ""360"">","null","","","","","","","",""
"null","","html-keyboard-response","373","286828","0.0-302.0","3PXX5PX6LYK8ZRI3OXY0YFX5T7ZBA0","A30W987G9S6F0G","3R5LWXWHR0UE010DORDQUF3E2FPGXE","","","null","","","","","","","",""
"1314.8999999761581","","image-keyboard-response","374","288144","0.0-303.0","3PXX5PX6LYK8ZRI3OXY0YFX5T7ZBA0","A30W987G9S6F0G","3R5LWXWHR0UE010DORDQUF3E2FPGXE","","img/set1/S1.jpg","83","1","structured_normal","83","true","structured_normal,structured_incentive,random","1,2,2,3","",""
"null","","html-keyboard-response","375","288497","0.0-304.0","3PXX5PX6LYK8ZRI3OXY0YFX5T7ZBA0","A30W987G9S6F0G","3R5LWXWHR0UE010DORDQUF3E2FPGXE","","<img src=""img/set1/S1.jpg"" width=""540"" height = ""360"" style=""border:16px solid orange"">","null","","","","","","","",""
"null","","html-keyboard-response","376","288499","0.0-305.0","3PXX5PX6LYK8ZRI3OXY0YFX5T7ZBA0","A30W987G9S6F0G","3R5LWXWHR0UE010DORDQUF3E2FPGXE","","","null","","","","","","","",""
"1052.800000011921","","image-keyboard-response","377","289552","0.0-306.0","3PXX5PX6LYK8ZRI3OXY0YFX5T7ZBA0","A30W987G9S6F0G","3R5LWXWHR0UE010DORDQUF3E2FPGXE","","img/set1/S2.jpg","68","2","structured_normal","68","true","structured_normal,structured_incentive,random","1,2,2,3","",""
"null","","html-keyboard-response","378","289916","0.0-307.0","3PXX5PX6LYK8ZRI3OXY0YFX5T7ZBA0","A30W987G9S6F0G","3R5LWXWHR0UE010DORDQUF3E2FPGXE","","<img src=""img/set1/S2.jpg"" width=""540"" height = ""360"" style=""border:16px solid orange"">","null","","","","","","","",""
"null","","html-keyboard-response","379","289919","0.0-308.0","3PXX5PX6LYK8ZRI3OXY0YFX5T7ZBA0","A30W987G9S6F0G","3R5LWXWHR0UE010DORDQUF3E2FPGXE","","","null","","","","","","","",""
"824.5999999642372","","image-keyboard-response","380","290744","0.0-309.0","3PXX5PX6LYK8ZRI3OXY0YFX5T7ZBA0","A30W987G9S6F0G","3R5LWXWHR0UE010DORDQUF3E2FPGXE","","img/set1/S1.jpg","83","1","structured_normal","83","true","structured_normal,structured_incentive,random","1,2,2,3","",""
"null","","html-keyboard-response","381","291108","0.0-310.0","3PXX5PX6LYK8ZRI3OXY0YFX5T7ZBA0","A30W987G9S6F0G","3R5LWXWHR0UE010DORDQUF3E2FPGXE","","<img src=""img/set1/S1.jpg"" width=""540"" height = ""360"" style=""border:16px solid orange"">","null","","","","","","","",""
"null","","html-keyboard-response","382","291110","0.0-311.0","3PXX5PX6LYK8ZRI3OXY0YFX5T7ZBA0","A30W987G9S6F0G","3R5LWXWHR0UE010DORDQUF3E2FPGXE","","","null","","","","","","","",""
"819.0999999642372","","image-keyboard-response","383","291929","0.0-312.0","3PXX5PX6LYK8ZRI3OXY0YFX5T7ZBA0","A30W987G9S6F0G","3R5LWXWHR0UE010DORDQUF3E2FPGXE","","img/set1/S3.jpg","72","3","structured_normal","72","true","structured_normal,structured_incentive,random","1,2,2,3","",""
"null","","html-keyboard-response","384","292292","0.0-313.0","3PXX5PX6LYK8ZRI3OXY0YFX5T7ZBA0","A30W987G9S6F0G","3R5LWXWHR0UE010DORDQUF3E2FPGXE","","<img src=""img/set1/S3.jpg"" width=""540"" height = ""360"" style=""border:16px solid orange"">","null","","","","","","","",""
"null","","html-keyboard-response","385","292294","0.0-314.0","3PXX5PX6LYK8ZRI3OXY0YFX5T7ZBA0","A30W987G9S6F0G","3R5LWXWHR0UE010DORDQUF3E2FPGXE","","","null","","","","","","","",""
"721.8000000119209","","image-keyboard-response","386","293016","0.0-315.0","3PXX5PX6LYK8ZRI3OXY0YFX5T7ZBA0","A30W987G9S6F0G","3R5LWXWHR0UE010DORDQUF3E2FPGXE","","img/set1/S1.jpg","83","1","structured_normal","83","true","structured_normal,structured_incentive,random","1,2,2,3","",""
"null","","html-keyboard-response","387","293367","0.0-316.0","3PXX5PX6LYK8ZRI3OXY0YFX5T7ZBA0","A30W987G9S6F0G","3R5LWXWHR0UE010DORDQUF3E2FPGXE","","<img src=""img/set1/S1.jpg"" width=""540"" height = ""360"" style=""border:16px solid orange"">","null","","","","","","","",""
"null","","html-keyboard-response","388","293369","0.0-317.0","3PXX5PX6LYK8ZRI3OXY0YFX5T7ZBA0","A30W987G9S6F0G","3R5LWXWHR0UE010DORDQUF3E2FPGXE","","","null","","","","","","","",""
"693.5999999642372","","image-keyboard-response","389","294064","0.0-318.0","3PXX5PX6LYK8ZRI3OXY0YFX5T7ZBA0","A30W987G9S6F0G","3R5LWXWHR0UE010DORDQUF3E2FPGXE","","img/set1/S2.jpg","68","2","structured_normal","68","true","structured_normal,structured_incentive,random","1,2,2,3","",""
"null","","html-keyboard-response","390","294421","0.0-319.0","3PXX5PX6LYK8ZRI3OXY0YFX5T7ZBA0","A30W987G9S6F0G","3R5LWXWHR0UE010DORDQUF3E2FPGXE","","<img src=""img/set1/S2.jpg"" width=""540"" height = ""360"" style=""border:16px solid orange"">","null","","","","","","","",""
"null","","html-keyboard-response","391","294424","0.0-320.0","3PXX5PX6LYK8ZRI3OXY0YFX5T7ZBA0","A30W987G9S6F0G","3R5LWXWHR0UE010DORDQUF3E2FPGXE","","","null","","","","","","","",""
"1215.6000000238419","","image-keyboard-response","392","295640","0.0-321.0","3PXX5PX6LYK8ZRI3OXY0YFX5T7ZBA0","A30W987G9S6F0G","3R5LWXWHR0UE010DORDQUF3E2FPGXE","","img/set1/S4.jpg","72","4","structured_normal","74","false","structured_normal,structured_incentive,random","1,2,2,3","",""
"null","","html-keyboard-response","393","295992","0.0-322.0","3PXX5PX6LYK8ZRI3OXY0YFX5T7ZBA0","A30W987G9S6F0G","3R5LWXWHR0UE010DORDQUF3E2FPGXE","","<img src=""img/set1/S4.jpg"" width=""540"" height = ""360"">","null","","","","","","","",""
"null","","html-keyboard-response","394","295995","0.0-323.0","3PXX5PX6LYK8ZRI3OXY0YFX5T7ZBA0","A30W987G9S6F0G","3R5LWXWHR0UE010DORDQUF3E2FPGXE","","","null","","","","","","","",""
"788.6000000238419","","image-keyboard-response","395","296784","0.0-324.0","3PXX5PX6LYK8ZRI3OXY0YFX5T7ZBA0","A30W987G9S6F0G","3R5LWXWHR0UE010DORDQUF3E2FPGXE","","img/set1/S1.jpg","83","1","structured_normal","83","true","structured_normal,structured_incentive,random","1,2,2,3","",""
"null","","html-keyboard-response","396","297146","0.0-325.0","3PXX5PX6LYK8ZRI3OXY0YFX5T7ZBA0","A30W987G9S6F0G","3R5LWXWHR0UE010DORDQUF3E2FPGXE","","<img src=""img/set1/S1.jpg"" width=""540"" height = ""360"" style=""border:16px solid orange"">","null","","","","","","","",""
"null","","html-keyboard-response","397","297147","0.0-326.0","3PXX5PX6LYK8ZRI3OXY0YFX5T7ZBA0","A30W987G9S6F0G","3R5LWXWHR0UE010DORDQUF3E2FPGXE","","","null","","","","","","","",""
"819.7000000476837","","image-keyboard-response","398","297968","0.0-327.0","3PXX5PX6LYK8ZRI3OXY0YFX5T7ZBA0","A30W987G9S6F0G","3R5LWXWHR0UE010DORDQUF3E2FPGXE","","img/set1/S2.jpg","68","2","structured_normal","68","true","structured_normal,structured_incentive,random","1,2,2,3","",""
"null","","html-keyboard-response","399","298329","0.0-328.0","3PXX5PX6LYK8ZRI3OXY0YFX5T7ZBA0","A30W987G9S6F0G","3R5LWXWHR0UE010DORDQUF3E2FPGXE","","<img src=""img/set1/S2.jpg"" width=""540"" height = ""360"" style=""border:16px solid orange"">","null","","","","","","","",""
"null","","html-keyboard-response","400","298330","0.0-329.0","3PXX5PX6LYK8ZRI3OXY0YFX5T7ZBA0","A30W987G9S6F0G","3R5LWXWHR0UE010DORDQUF3E2FPGXE","","","null","","","","","","","",""
"444.89999997615814","","image-keyboard-response","401","298776","0.0-330.0","3PXX5PX6LYK8ZRI3OXY0YFX5T7ZBA0","A30W987G9S6F0G","3R5LWXWHR0UE010DORDQUF3E2FPGXE","","img/set1/S2.jpg","68","2","structured_normal","68","true","structured_normal,structured_incentive,random","1,2,2,3","",""
"null","","html-keyboard-response","402","299137","0.0-331.0","3PXX5PX6LYK8ZRI3OXY0YFX5T7ZBA0","A30W987G9S6F0G","3R5LWXWHR0UE010DORDQUF3E2FPGXE","","<img src=""img/set1/S2.jpg"" width=""540"" height = ""360"" style=""border:16px solid orange"">","null","","","","","","","",""
"null","","html-keyboard-response","403","299139","0.0-332.0","3PXX5PX6LYK8ZRI3OXY0YFX5T7ZBA0","A30W987G9S6F0G","3R5LWXWHR0UE010DORDQUF3E2FPGXE","","","null","","","","","","","",""
"1732.7000000476837","","image-keyboard-response","404","300872","0.0-333.0","3PXX5PX6LYK8ZRI3OXY0YFX5T7ZBA0","A30W987G9S6F0G","3R5LWXWHR0UE010DORDQUF3E2FPGXE","","img/set1/S4.jpg","68","4","structured_normal","74","false","structured_normal,structured_incentive,random","1,2,2,3","",""
"null","","html-keyboard-response","405","301225","0.0-334.0","3PXX5PX6LYK8ZRI3OXY0YFX5T7ZBA0","A30W987G9S6F0G","3R5LWXWHR0UE010DORDQUF3E2FPGXE","","<img src=""img/set1/S4.jpg"" width=""540"" height = ""360"">","null","","","","","","","",""
"null","","html-keyboard-response","406","301227","0.0-335.0","3PXX5PX6LYK8ZRI3OXY0YFX5T7ZBA0","A30W987G9S6F0G","3R5LWXWHR0UE010DORDQUF3E2FPGXE","","","null","","","","","","","",""
"596.2000000476837","","image-keyboard-response","407","301824","0.0-336.0","3PXX5PX6LYK8ZRI3OXY0YFX5T7ZBA0","A30W987G9S6F0G","3R5LWXWHR0UE010DORDQUF3E2FPGXE","","img/set1/S4.jpg","72","4","structured_normal","74","false","structured_normal,structured_incentive,random","1,2,2,3","",""
"null","","html-keyboard-response","408","302189","0.0-337.0","3PXX5PX6LYK8ZRI3OXY0YFX5T7ZBA0","A30W987G9S6F0G","3R5LWXWHR0UE010DORDQUF3E2FPGXE","","<img src=""img/set1/S4.jpg"" width=""540"" height = ""360"">","null","","","","","","","",""
"null","","html-keyboard-response","409","302191","0.0-338.0","3PXX5PX6LYK8ZRI3OXY0YFX5T7ZBA0","A30W987G9S6F0G","3R5LWXWHR0UE010DORDQUF3E2FPGXE","","","null","","","","","","","",""
"378.30000001192093","","image-keyboard-response","410","302570","0.0-339.0","3PXX5PX6LYK8ZRI3OXY0YFX5T7ZBA0","A30W987G9S6F0G","3R5LWXWHR0UE010DORDQUF3E2FPGXE","","img/set1/S4.jpg","74","4","structured_normal","74","true","structured_normal,structured_incentive,random","1,2,2,3","",""
"null","","html-keyboard-response","411","302934","0.0-340.0","3PXX5PX6LYK8ZRI3OXY0YFX5T7ZBA0","A30W987G9S6F0G","3R5LWXWHR0UE010DORDQUF3E2FPGXE","","<img src=""img/set1/S4.jpg"" width=""540"" height = ""360"" style=""border:16px solid orange"">","null","","","","","","","",""
"null","","html-keyboard-response","412","302936","0.0-341.0","3PXX5PX6LYK8ZRI3OXY0YFX5T7ZBA0","A30W987G9S6F0G","3R5LWXWHR0UE010DORDQUF3E2FPGXE","","","null","","","","","","","",""
"1487.6000000238419","","image-keyboard-response","413","304424","0.0-342.0","3PXX5PX6LYK8ZRI3OXY0YFX5T7ZBA0","A30W987G9S6F0G","3R5LWXWHR0UE010DORDQUF3E2FPGXE","","img/set1/S2.jpg","68","2","structured_normal","68","true","structured_normal,structured_incentive,random","1,2,2,3","",""
"null","","html-keyboard-response","414","304788","0.0-343.0","3PXX5PX6LYK8ZRI3OXY0YFX5T7ZBA0","A30W987G9S6F0G","3R5LWXWHR0UE010DORDQUF3E2FPGXE","","<img src=""img/set1/S2.jpg"" width=""540"" height = ""360"" style=""border:16px solid orange"">","null","","","","","","","",""
"null","","html-keyboard-response","415","304790","0.0-344.0","3PXX5PX6LYK8ZRI3OXY0YFX5T7ZBA0","A30W987G9S6F0G","3R5LWXWHR0UE010DORDQUF3E2FPGXE","","","null","","","","","","","",""
