"rt","url","trial_type","trial_index","time_elapsed","internal_node_id","assignmentID","mturkID","hitID","view_history","stimulus","key_press","state","test_part","correct_response","correct","order_block","order_chunk","bonus","responses"
"9356.800000011921","consent.html","external-html","0","9586","0.0-0.0","3DR23U6WE60BLQTW4OR7USTIKTWTE2","A337Y4X67PY4QI","33Q5P9PUSP8QOKKNNN5S19YACNVCZX","","","","","","","","","","",""
"77986.5","","instructions","1","87584","0.0-1.0","3DR23U6WE60BLQTW4OR7USTIKTWTE2","A337Y4X67PY4QI","33Q5P9PUSP8QOKKNNN5S19YACNVCZX","[{""page_index"":0,""viewing_time"":6148.899999976158},{""page_index"":1,""viewing_time"":16758.400000035763},{""page_index"":2,""viewing_time"":7973.5},{""page_index"":3,""viewing_time"":13597.899999976158},{""page_index"":4,""viewing_time"":5372.199999988079},{""page_index"":5,""viewing_time"":14520.200000047684},{""page_index"":6,""viewing_time"":5315.099999964237},{""page_index"":7,""viewing_time"":8296.800000011921}]","","","","","","","","","",""
"2152.800000011921","","image-keyboard-response","2","89746","0.0-2.0-0.0","3DR23U6WE60BLQTW4OR7USTIKTWTE2","A337Y4X67PY4QI","33Q5P9PUSP8QOKKNNN5S19YACNVCZX","","img/practice/S1.jpg","83","1","practice","83","true","","","",""
"null","","html-keyboard-response","3","90054","0.0-2.0-1.0","3DR23U6WE60BLQTW4OR7USTIKTWTE2","A337Y4X67PY4QI","33Q5P9PUSP8QOKKNNN5S19YACNVCZX","","<img src=""img/practice/S1.jpg"" width=""540"" height = ""360"" style=""border:16px solid orange"">","null","","","","","","","",""
"null","","html-keyboard-response","4","90066","0.0-2.0-2.0","3DR23U6WE60BLQTW4OR7USTIKTWTE2","A337Y4X67PY4QI","33Q5P9PUSP8QOKKNNN5S19YACNVCZX","","","null","","","","","","","",""
"737.5999999642372","","image-keyboard-response","5","90811","0.0-2.0-0.1","3DR23U6WE60BLQTW4OR7USTIKTWTE2","A337Y4X67PY4QI","33Q5P9PUSP8QOKKNNN5S19YACNVCZX","","img/practice/S3.jpg","83","3","practice","72","false","","","",""
"null","","html-keyboard-response","6","91116","0.0-2.0-1.1","3DR23U6WE60BLQTW4OR7USTIKTWTE2","A337Y4X67PY4QI","33Q5P9PUSP8QOKKNNN5S19YACNVCZX","","<img src=""img/practice/S3.jpg"" width=""540"" height = ""360"">","null","","","","","","","",""
"null","","html-keyboard-response","7","91126","0.0-2.0-2.1","3DR23U6WE60BLQTW4OR7USTIKTWTE2","A337Y4X67PY4QI","33Q5P9PUSP8QOKKNNN5S19YACNVCZX","","","null","","","","","","","",""
"702.8000000119209","","image-keyboard-response","8","91834","0.0-2.0-0.2","3DR23U6WE60BLQTW4OR7USTIKTWTE2","A337Y4X67PY4QI","33Q5P9PUSP8QOKKNNN5S19YACNVCZX","","img/practice/S2.jpg","68","2","practice","68","true","","","",""
"null","","html-keyboard-response","9","92138","0.0-2.0-1.2","3DR23U6WE60BLQTW4OR7USTIKTWTE2","A337Y4X67PY4QI","33Q5P9PUSP8QOKKNNN5S19YACNVCZX","","<img src=""img/practice/S2.jpg"" width=""540"" height = ""360"" style=""border:16px solid orange"">","null","","","","","","","",""
"null","","html-keyboard-response","10","92145","0.0-2.0-2.2","3DR23U6WE60BLQTW4OR7USTIKTWTE2","A337Y4X67PY4QI","33Q5P9PUSP8QOKKNNN5S19YACNVCZX","","","null","","","","","","","",""
"620.1000000238419","","image-keyboard-response","11","92771","0.0-2.0-0.3","3DR23U6WE60BLQTW4OR7USTIKTWTE2","A337Y4X67PY4QI","33Q5P9PUSP8QOKKNNN5S19YACNVCZX","","img/practice/S4.jpg","74","4","practice","74","true","","","",""
"null","","html-keyboard-response","12","93077","0.0-2.0-1.3","3DR23U6WE60BLQTW4OR7USTIKTWTE2","A337Y4X67PY4QI","33Q5P9PUSP8QOKKNNN5S19YACNVCZX","","<img src=""img/practice/S4.jpg"" width=""540"" height = ""360"" style=""border:16px solid orange"">","null","","","","","","","",""
"null","","html-keyboard-response","13","93084","0.0-2.0-2.3","3DR23U6WE60BLQTW4OR7USTIKTWTE2","A337Y4X67PY4QI","33Q5P9PUSP8QOKKNNN5S19YACNVCZX","","","null","","","","","","","",""
"1686.1000000238419","","image-keyboard-response","14","94776","0.0-2.0-0.4","3DR23U6WE60BLQTW4OR7USTIKTWTE2","A337Y4X67PY4QI","33Q5P9PUSP8QOKKNNN5S19YACNVCZX","","img/practice/S1.jpg","74","1","practice","83","false","","","",""
"null","","html-keyboard-response","15","95082","0.0-2.0-1.4","3DR23U6WE60BLQTW4OR7USTIKTWTE2","A337Y4X67PY4QI","33Q5P9PUSP8QOKKNNN5S19YACNVCZX","","<img src=""img/practice/S1.jpg"" width=""540"" height = ""360"">","null","","","","","","","",""
"null","","html-keyboard-response","16","95092","0.0-2.0-2.4","3DR23U6WE60BLQTW4OR7USTIKTWTE2","A337Y4X67PY4QI","33Q5P9PUSP8QOKKNNN5S19YACNVCZX","","","null","","","","","","","",""
"1204.199999988079","","image-keyboard-response","17","96301","0.0-2.0-0.5","3DR23U6WE60BLQTW4OR7USTIKTWTE2","A337Y4X67PY4QI","33Q5P9PUSP8QOKKNNN5S19YACNVCZX","","img/practice/S4.jpg","68","4","practice","74","false","","","",""
"null","","html-keyboard-response","18","96605","0.0-2.0-1.5","3DR23U6WE60BLQTW4OR7USTIKTWTE2","A337Y4X67PY4QI","33Q5P9PUSP8QOKKNNN5S19YACNVCZX","","<img src=""img/practice/S4.jpg"" width=""540"" height = ""360"">","null","","","","","","","",""
"null","","html-keyboard-response","19","96610","0.0-2.0-2.5","3DR23U6WE60BLQTW4OR7USTIKTWTE2","A337Y4X67PY4QI","33Q5P9PUSP8QOKKNNN5S19YACNVCZX","","","null","","","","","","","",""
"685.6999999880791","","image-keyboard-response","20","97302","0.0-2.0-0.6","3DR23U6WE60BLQTW4OR7USTIKTWTE2","A337Y4X67PY4QI","33Q5P9PUSP8QOKKNNN5S19YACNVCZX","","img/practice/S2.jpg","83","2","practice","68","false","","","",""
"null","","html-keyboard-response","21","97607","0.0-2.0-1.6","3DR23U6WE60BLQTW4OR7USTIKTWTE2","A337Y4X67PY4QI","33Q5P9PUSP8QOKKNNN5S19YACNVCZX","","<img src=""img/practice/S2.jpg"" width=""540"" height = ""360"">","null","","","","","","","",""
"null","","html-keyboard-response","22","97612","0.0-2.0-2.6","3DR23U6WE60BLQTW4OR7USTIKTWTE2","A337Y4X67PY4QI","33Q5P9PUSP8QOKKNNN5S19YACNVCZX","","","null","","","","","","","",""
"492.5999999642372","","image-keyboard-response","23","98110","0.0-2.0-0.7","3DR23U6WE60BLQTW4OR7USTIKTWTE2","A337Y4X67PY4QI","33Q5P9PUSP8QOKKNNN5S19YACNVCZX","","img/practice/S3.jpg","74","3","practice","72","false","","","",""
"null","","html-keyboard-response","24","98414","0.0-2.0-1.7","3DR23U6WE60BLQTW4OR7USTIKTWTE2","A337Y4X67PY4QI","33Q5P9PUSP8QOKKNNN5S19YACNVCZX","","<img src=""img/practice/S3.jpg"" width=""540"" height = ""360"">","null","","","","","","","",""
"null","","html-keyboard-response","25","98419","0.0-2.0-2.7","3DR23U6WE60BLQTW4OR7USTIKTWTE2","A337Y4X67PY4QI","33Q5P9PUSP8QOKKNNN5S19YACNVCZX","","","null","","","","","","","",""
"409.80000001192093","","image-keyboard-response","26","98833","0.0-2.0-0.8","3DR23U6WE60BLQTW4OR7USTIKTWTE2","A337Y4X67PY4QI","33Q5P9PUSP8QOKKNNN5S19YACNVCZX","","img/practice/S2.jpg","68","2","practice","68","true","","","",""
"null","","html-keyboard-response","27","99137","0.0-2.0-1.8","3DR23U6WE60BLQTW4OR7USTIKTWTE2","A337Y4X67PY4QI","33Q5P9PUSP8QOKKNNN5S19YACNVCZX","","<img src=""img/practice/S2.jpg"" width=""540"" height = ""360"" style=""border:16px solid orange"">","null","","","","","","","",""
"null","","html-keyboard-response","28","99142","0.0-2.0-2.8","3DR23U6WE60BLQTW4OR7USTIKTWTE2","A337Y4X67PY4QI","33Q5P9PUSP8QOKKNNN5S19YACNVCZX","","","null","","","","","","","",""
"515.7999999523163","","image-keyboard-response","29","99662","0.0-2.0-0.9","3DR23U6WE60BLQTW4OR7USTIKTWTE2","A337Y4X67PY4QI","33Q5P9PUSP8QOKKNNN5S19YACNVCZX","","img/practice/S4.jpg","68","4","practice","74","false","","","",""
"null","","html-keyboard-response","30","99967","0.0-2.0-1.9","3DR23U6WE60BLQTW4OR7USTIKTWTE2","A337Y4X67PY4QI","33Q5P9PUSP8QOKKNNN5S19YACNVCZX","","<img src=""img/practice/S4.jpg"" width=""540"" height = ""360"">","null","","","","","","","",""
"null","","html-keyboard-response","31","99980","0.0-2.0-2.9","3DR23U6WE60BLQTW4OR7USTIKTWTE2","A337Y4X67PY4QI","33Q5P9PUSP8QOKKNNN5S19YACNVCZX","","","null","","","","","","","",""
"null","","image-keyboard-response","32","102485","0.0-2.0-0.10","3DR23U6WE60BLQTW4OR7USTIKTWTE2","A337Y4X67PY4QI","33Q5P9PUSP8QOKKNNN5S19YACNVCZX","","img/practice/S3.jpg","null","3","practice","72","false","","","",""
"null","","html-keyboard-response","33","102789","0.0-2.0-1.10","3DR23U6WE60BLQTW4OR7USTIKTWTE2","A337Y4X67PY4QI","33Q5P9PUSP8QOKKNNN5S19YACNVCZX","","<img src=""img/practice/S3.jpg"" width=""540"" height = ""360"">","null","","","","","","","",""
"null","","html-keyboard-response","34","102797","0.0-2.0-2.10","3DR23U6WE60BLQTW4OR7USTIKTWTE2","A337Y4X67PY4QI","33Q5P9PUSP8QOKKNNN5S19YACNVCZX","","","null","","","","","","","",""
"547.4000000357628","","image-keyboard-response","35","103348","0.0-2.0-0.11","3DR23U6WE60BLQTW4OR7USTIKTWTE2","A337Y4X67PY4QI","33Q5P9PUSP8QOKKNNN5S19YACNVCZX","","img/practice/S1.jpg","74","1","practice","83","false","","","",""
"null","","html-keyboard-response","36","103653","0.0-2.0-1.11","3DR23U6WE60BLQTW4OR7USTIKTWTE2","A337Y4X67PY4QI","33Q5P9PUSP8QOKKNNN5S19YACNVCZX","","<img src=""img/practice/S1.jpg"" width=""540"" height = ""360"">","null","","","","","","","",""
"null","","html-keyboard-response","37","103659","0.0-2.0-2.11","3DR23U6WE60BLQTW4OR7USTIKTWTE2","A337Y4X67PY4QI","33Q5P9PUSP8QOKKNNN5S19YACNVCZX","","","null","","","","","","","",""
"619","","image-keyboard-response","38","104285","0.0-2.0-0.12","3DR23U6WE60BLQTW4OR7USTIKTWTE2","A337Y4X67PY4QI","33Q5P9PUSP8QOKKNNN5S19YACNVCZX","","img/practice/S3.jpg","83","3","practice","72","false","","","",""
"null","","html-keyboard-response","39","104589","0.0-2.0-1.12","3DR23U6WE60BLQTW4OR7USTIKTWTE2","A337Y4X67PY4QI","33Q5P9PUSP8QOKKNNN5S19YACNVCZX","","<img src=""img/practice/S3.jpg"" width=""540"" height = ""360"">","null","","","","","","","",""
"null","","html-keyboard-response","40","104595","0.0-2.0-2.12","3DR23U6WE60BLQTW4OR7USTIKTWTE2","A337Y4X67PY4QI","33Q5P9PUSP8QOKKNNN5S19YACNVCZX","","","null","","","","","","","",""
"495.5","","image-keyboard-response","41","105096","0.0-2.0-0.13","3DR23U6WE60BLQTW4OR7USTIKTWTE2","A337Y4X67PY4QI","33Q5P9PUSP8QOKKNNN5S19YACNVCZX","","img/practice/S1.jpg","68","1","practice","83","false","","","",""
"null","","html-keyboard-response","42","105399","0.0-2.0-1.13","3DR23U6WE60BLQTW4OR7USTIKTWTE2","A337Y4X67PY4QI","33Q5P9PUSP8QOKKNNN5S19YACNVCZX","","<img src=""img/practice/S1.jpg"" width=""540"" height = ""360"">","null","","","","","","","",""
"null","","html-keyboard-response","43","105404","0.0-2.0-2.13","3DR23U6WE60BLQTW4OR7USTIKTWTE2","A337Y4X67PY4QI","33Q5P9PUSP8QOKKNNN5S19YACNVCZX","","","null","","","","","","","",""
"452.60000002384186","","image-keyboard-response","44","105862","0.0-2.0-0.14","3DR23U6WE60BLQTW4OR7USTIKTWTE2","A337Y4X67PY4QI","33Q5P9PUSP8QOKKNNN5S19YACNVCZX","","img/practice/S4.jpg","68","4","practice","74","false","","","",""
"null","","html-keyboard-response","45","106166","0.0-2.0-1.14","3DR23U6WE60BLQTW4OR7USTIKTWTE2","A337Y4X67PY4QI","33Q5P9PUSP8QOKKNNN5S19YACNVCZX","","<img src=""img/practice/S4.jpg"" width=""540"" height = ""360"">","null","","","","","","","",""
"null","","html-keyboard-response","46","106172","0.0-2.0-2.14","3DR23U6WE60BLQTW4OR7USTIKTWTE2","A337Y4X67PY4QI","33Q5P9PUSP8QOKKNNN5S19YACNVCZX","","","null","","","","","","","",""
"433.10000002384186","","image-keyboard-response","47","106610","0.0-2.0-0.15","3DR23U6WE60BLQTW4OR7USTIKTWTE2","A337Y4X67PY4QI","33Q5P9PUSP8QOKKNNN5S19YACNVCZX","","img/practice/S2.jpg","68","2","practice","68","true","","","",""
"null","","html-keyboard-response","48","106916","0.0-2.0-1.15","3DR23U6WE60BLQTW4OR7USTIKTWTE2","A337Y4X67PY4QI","33Q5P9PUSP8QOKKNNN5S19YACNVCZX","","<img src=""img/practice/S2.jpg"" width=""540"" height = ""360"" style=""border:16px solid orange"">","null","","","","","","","",""
"null","","html-keyboard-response","49","106925","0.0-2.0-2.15","3DR23U6WE60BLQTW4OR7USTIKTWTE2","A337Y4X67PY4QI","33Q5P9PUSP8QOKKNNN5S19YACNVCZX","","","null","","","","","","","",""
"574.1000000238419","","image-keyboard-response","50","107505","0.0-2.0-0.16","3DR23U6WE60BLQTW4OR7USTIKTWTE2","A337Y4X67PY4QI","33Q5P9PUSP8QOKKNNN5S19YACNVCZX","","img/practice/S1.jpg","74","1","practice","83","false","","","",""
"null","","html-keyboard-response","51","107811","0.0-2.0-1.16","3DR23U6WE60BLQTW4OR7USTIKTWTE2","A337Y4X67PY4QI","33Q5P9PUSP8QOKKNNN5S19YACNVCZX","","<img src=""img/practice/S1.jpg"" width=""540"" height = ""360"">","null","","","","","","","",""
"null","","html-keyboard-response","52","107816","0.0-2.0-2.16","3DR23U6WE60BLQTW4OR7USTIKTWTE2","A337Y4X67PY4QI","33Q5P9PUSP8QOKKNNN5S19YACNVCZX","","","null","","","","","","","",""
"421.19999998807907","","image-keyboard-response","53","108243","0.0-2.0-0.17","3DR23U6WE60BLQTW4OR7USTIKTWTE2","A337Y4X67PY4QI","33Q5P9PUSP8QOKKNNN5S19YACNVCZX","","img/practice/S3.jpg","74","3","practice","72","false","","","",""
"null","","html-keyboard-response","54","108548","0.0-2.0-1.17","3DR23U6WE60BLQTW4OR7USTIKTWTE2","A337Y4X67PY4QI","33Q5P9PUSP8QOKKNNN5S19YACNVCZX","","<img src=""img/practice/S3.jpg"" width=""540"" height = ""360"">","null","","","","","","","",""
"null","","html-keyboard-response","55","108554","0.0-2.0-2.17","3DR23U6WE60BLQTW4OR7USTIKTWTE2","A337Y4X67PY4QI","33Q5P9PUSP8QOKKNNN5S19YACNVCZX","","","null","","","","","","","",""
"504.5","","image-keyboard-response","56","109064","0.0-2.0-0.18","3DR23U6WE60BLQTW4OR7USTIKTWTE2","A337Y4X67PY4QI","33Q5P9PUSP8QOKKNNN5S19YACNVCZX","","img/practice/S4.jpg","74","4","practice","74","true","","","",""
"null","","html-keyboard-response","57","109368","0.0-2.0-1.18","3DR23U6WE60BLQTW4OR7USTIKTWTE2","A337Y4X67PY4QI","33Q5P9PUSP8QOKKNNN5S19YACNVCZX","","<img src=""img/practice/S4.jpg"" width=""540"" height = ""360"" style=""border:16px solid orange"">","null","","","","","","","",""
"null","","html-keyboard-response","58","109374","0.0-2.0-2.18","3DR23U6WE60BLQTW4OR7USTIKTWTE2","A337Y4X67PY4QI","33Q5P9PUSP8QOKKNNN5S19YACNVCZX","","","null","","","","","","","",""
"2269.199999988079","","image-keyboard-response","59","111648","0.0-2.0-0.19","3DR23U6WE60BLQTW4OR7USTIKTWTE2","A337Y4X67PY4QI","33Q5P9PUSP8QOKKNNN5S19YACNVCZX","","img/practice/S2.jpg","83","2","practice","68","false","","","",""
"null","","html-keyboard-response","60","111953","0.0-2.0-1.19","3DR23U6WE60BLQTW4OR7USTIKTWTE2","A337Y4X67PY4QI","33Q5P9PUSP8QOKKNNN5S19YACNVCZX","","<img src=""img/practice/S2.jpg"" width=""540"" height = ""360"">","null","","","","","","","",""
"null","","html-keyboard-response","61","111957","0.0-2.0-2.19","3DR23U6WE60BLQTW4OR7USTIKTWTE2","A337Y4X67PY4QI","33Q5P9PUSP8QOKKNNN5S19YACNVCZX","","","null","","","","","","","",""
"516.8000000119209","","image-keyboard-response","62","112478","0.0-2.0-0.20","3DR23U6WE60BLQTW4OR7USTIKTWTE2","A337Y4X67PY4QI","33Q5P9PUSP8QOKKNNN5S19YACNVCZX","","img/practice/S1.jpg","83","1","practice","83","true","","","",""
"null","","html-keyboard-response","63","112783","0.0-2.0-1.20","3DR23U6WE60BLQTW4OR7USTIKTWTE2","A337Y4X67PY4QI","33Q5P9PUSP8QOKKNNN5S19YACNVCZX","","<img src=""img/practice/S1.jpg"" width=""540"" height = ""360"" style=""border:16px solid orange"">","null","","","","","","","",""
"null","","html-keyboard-response","64","112794","0.0-2.0-2.20","3DR23U6WE60BLQTW4OR7USTIKTWTE2","A337Y4X67PY4QI","33Q5P9PUSP8QOKKNNN5S19YACNVCZX","","","null","","","","","","","",""
"621","","image-keyboard-response","65","113421","0.0-2.0-0.21","3DR23U6WE60BLQTW4OR7USTIKTWTE2","A337Y4X67PY4QI","33Q5P9PUSP8QOKKNNN5S19YACNVCZX","","img/practice/S3.jpg","68","3","practice","72","false","","","",""
"null","","html-keyboard-response","66","113725","0.0-2.0-1.21","3DR23U6WE60BLQTW4OR7USTIKTWTE2","A337Y4X67PY4QI","33Q5P9PUSP8QOKKNNN5S19YACNVCZX","","<img src=""img/practice/S3.jpg"" width=""540"" height = ""360"">","null","","","","","","","",""
"null","","html-keyboard-response","67","113730","0.0-2.0-2.21","3DR23U6WE60BLQTW4OR7USTIKTWTE2","A337Y4X67PY4QI","33Q5P9PUSP8QOKKNNN5S19YACNVCZX","","","null","","","","","","","",""
"486.9000000357628","","image-keyboard-response","68","114221","0.0-2.0-0.22","3DR23U6WE60BLQTW4OR7USTIKTWTE2","A337Y4X67PY4QI","33Q5P9PUSP8QOKKNNN5S19YACNVCZX","","img/practice/S2.jpg","74","2","practice","68","false","","","",""
"null","","html-keyboard-response","69","114525","0.0-2.0-1.22","3DR23U6WE60BLQTW4OR7USTIKTWTE2","A337Y4X67PY4QI","33Q5P9PUSP8QOKKNNN5S19YACNVCZX","","<img src=""img/practice/S2.jpg"" width=""540"" height = ""360"">","null","","","","","","","",""
"null","","html-keyboard-response","70","114534","0.0-2.0-2.22","3DR23U6WE60BLQTW4OR7USTIKTWTE2","A337Y4X67PY4QI","33Q5P9PUSP8QOKKNNN5S19YACNVCZX","","","null","","","","","","","",""
"2063.400000035763","","image-keyboard-response","71","116602","0.0-2.0-0.23","3DR23U6WE60BLQTW4OR7USTIKTWTE2","A337Y4X67PY4QI","33Q5P9PUSP8QOKKNNN5S19YACNVCZX","","img/practice/S4.jpg","83","4","practice","74","false","","","",""
"null","","html-keyboard-response","72","116906","0.0-2.0-1.23","3DR23U6WE60BLQTW4OR7USTIKTWTE2","A337Y4X67PY4QI","33Q5P9PUSP8QOKKNNN5S19YACNVCZX","","<img src=""img/practice/S4.jpg"" width=""540"" height = ""360"">","null","","","","","","","",""
"null","","html-keyboard-response","73","116911","0.0-2.0-2.23","3DR23U6WE60BLQTW4OR7USTIKTWTE2","A337Y4X67PY4QI","33Q5P9PUSP8QOKKNNN5S19YACNVCZX","","","null","","","","","","","",""
"2454.800000011921","","instructions","74","119370","0.0-3.0","3DR23U6WE60BLQTW4OR7USTIKTWTE2","A337Y4X67PY4QI","33Q5P9PUSP8QOKKNNN5S19YACNVCZX","[{""page_index"":0,""viewing_time"":2454.099999964237}]","","","","","","","","","",""
"3764.099999964237","","instructions","75","123137","0.0-4.0","3DR23U6WE60BLQTW4OR7USTIKTWTE2","A337Y4X67PY4QI","33Q5P9PUSP8QOKKNNN5S19YACNVCZX","[{""page_index"":0,""viewing_time"":3762.599999964237}]","","","","","","","","","",""
"15885.400000035763","","instructions","76","139028","0.0-5.0","3DR23U6WE60BLQTW4OR7USTIKTWTE2","A337Y4X67PY4QI","33Q5P9PUSP8QOKKNNN5S19YACNVCZX","[{""page_index"":0,""viewing_time"":8739.100000023842},{""page_index"":1,""viewing_time"":7145.5}]","","","","","","","","","",""
"1497.5","","image-keyboard-response","77","140533","0.0-6.0","3DR23U6WE60BLQTW4OR7USTIKTWTE2","A337Y4X67PY4QI","33Q5P9PUSP8QOKKNNN5S19YACNVCZX","","img/set1/S4.jpg","83","4","structured_incentive","74","false","structured_incentive,structured_normal,random","1,2,2,3","",""
"null","","html-keyboard-response","78","140892","0.0-7.0","3DR23U6WE60BLQTW4OR7USTIKTWTE2","A337Y4X67PY4QI","33Q5P9PUSP8QOKKNNN5S19YACNVCZX","","<img src=""img/set1/S4.jpg"" width=""540"" height = ""360"">","null","","","","","","","",""
"null","","html-keyboard-response","79","140897","0.0-8.0","3DR23U6WE60BLQTW4OR7USTIKTWTE2","A337Y4X67PY4QI","33Q5P9PUSP8QOKKNNN5S19YACNVCZX","","","null","","","","","","","",""
"496.30000001192093","","image-keyboard-response","80","141398","0.0-9.0","3DR23U6WE60BLQTW4OR7USTIKTWTE2","A337Y4X67PY4QI","33Q5P9PUSP8QOKKNNN5S19YACNVCZX","","img/set1/S3.jpg","74","3","structured_incentive","72","false","structured_incentive,structured_normal,random","1,2,2,3","",""
"null","","html-keyboard-response","81","141753","0.0-10.0","3DR23U6WE60BLQTW4OR7USTIKTWTE2","A337Y4X67PY4QI","33Q5P9PUSP8QOKKNNN5S19YACNVCZX","","<img src=""img/set1/S3.jpg"" width=""540"" height = ""360"">","null","","","","","","","",""
"null","","html-keyboard-response","82","141759","0.0-11.0","3DR23U6WE60BLQTW4OR7USTIKTWTE2","A337Y4X67PY4QI","33Q5P9PUSP8QOKKNNN5S19YACNVCZX","","","null","","","","","","","",""
"521.1000000238419","","image-keyboard-response","83","142285","0.0-12.0","3DR23U6WE60BLQTW4OR7USTIKTWTE2","A337Y4X67PY4QI","33Q5P9PUSP8QOKKNNN5S19YACNVCZX","","img/set1/S4.jpg","68","4","structured_incentive","74","false","structured_incentive,structured_normal,random","1,2,2,3","",""
"null","","html-keyboard-response","84","142640","0.0-13.0","3DR23U6WE60BLQTW4OR7USTIKTWTE2","A337Y4X67PY4QI","33Q5P9PUSP8QOKKNNN5S19YACNVCZX","","<img src=""img/set1/S4.jpg"" width=""540"" height = ""360"">","null","","","","","","","",""
"null","","html-keyboard-response","85","142650","0.0-14.0","3DR23U6WE60BLQTW4OR7USTIKTWTE2","A337Y4X67PY4QI","33Q5P9PUSP8QOKKNNN5S19YACNVCZX","","","null","","","","","","","",""
"1775.699999988079","","image-keyboard-response","86","144431","0.0-15.0","3DR23U6WE60BLQTW4OR7USTIKTWTE2","A337Y4X67PY4QI","33Q5P9PUSP8QOKKNNN5S19YACNVCZX","","img/set1/S3.jpg","74","3","structured_incentive","72","false","structured_incentive,structured_normal,random","1,2,2,3","",""
"null","","html-keyboard-response","87","144786","0.0-16.0","3DR23U6WE60BLQTW4OR7USTIKTWTE2","A337Y4X67PY4QI","33Q5P9PUSP8QOKKNNN5S19YACNVCZX","","<img src=""img/set1/S3.jpg"" width=""540"" height = ""360"">","null","","","","","","","",""
"null","","html-keyboard-response","88","144792","0.0-17.0","3DR23U6WE60BLQTW4OR7USTIKTWTE2","A337Y4X67PY4QI","33Q5P9PUSP8QOKKNNN5S19YACNVCZX","","","null","","","","","","","",""
"406.39999997615814","","image-keyboard-response","89","145202","0.0-18.0","3DR23U6WE60BLQTW4OR7USTIKTWTE2","A337Y4X67PY4QI","33Q5P9PUSP8QOKKNNN5S19YACNVCZX","","img/set1/S1.jpg","83","1","structured_incentive","83","true","structured_incentive,structured_normal,random","1,2,2,3","",""
"null","","html-keyboard-response","90","145557","0.0-19.0","3DR23U6WE60BLQTW4OR7USTIKTWTE2","A337Y4X67PY4QI","33Q5P9PUSP8QOKKNNN5S19YACNVCZX","","<img src=""img/set1/S1.jpg"" width=""540"" height = ""360"" style=""border:16px solid orange"">","null","","","","","","","",""
"null","","html-keyboard-response","91","145562","0.0-20.0","3DR23U6WE60BLQTW4OR7USTIKTWTE2","A337Y4X67PY4QI","33Q5P9PUSP8QOKKNNN5S19YACNVCZX","","","null","","","","","","","",""
"531.3000000119209","","image-keyboard-response","92","146099","0.0-21.0","3DR23U6WE60BLQTW4OR7USTIKTWTE2","A337Y4X67PY4QI","33Q5P9PUSP8QOKKNNN5S19YACNVCZX","","img/set1/S2.jpg","83","2","structured_incentive","68","false","structured_incentive,structured_normal,random","1,2,2,3","",""
"null","","html-keyboard-response","93","146455","0.0-22.0","3DR23U6WE60BLQTW4OR7USTIKTWTE2","A337Y4X67PY4QI","33Q5P9PUSP8QOKKNNN5S19YACNVCZX","","<img src=""img/set1/S2.jpg"" width=""540"" height = ""360"">","null","","","","","","","",""
"null","","html-keyboard-response","94","146461","0.0-23.0","3DR23U6WE60BLQTW4OR7USTIKTWTE2","A337Y4X67PY4QI","33Q5P9PUSP8QOKKNNN5S19YACNVCZX","","","null","","","","","","","",""
"476.80000001192093","","image-keyboard-response","95","146942","0.0-24.0","3DR23U6WE60BLQTW4OR7USTIKTWTE2","A337Y4X67PY4QI","33Q5P9PUSP8QOKKNNN5S19YACNVCZX","","img/set1/S4.jpg","83","4","structured_incentive","74","false","structured_incentive,structured_normal,random","1,2,2,3","",""
"null","","html-keyboard-response","96","147297","0.0-25.0","3DR23U6WE60BLQTW4OR7USTIKTWTE2","A337Y4X67PY4QI","33Q5P9PUSP8QOKKNNN5S19YACNVCZX","","<img src=""img/set1/S4.jpg"" width=""540"" height = ""360"">","null","","","","","","","",""
"null","","html-keyboard-response","97","147301","0.0-26.0","3DR23U6WE60BLQTW4OR7USTIKTWTE2","A337Y4X67PY4QI","33Q5P9PUSP8QOKKNNN5S19YACNVCZX","","","null","","","","","","","",""
"378.60000002384186","","image-keyboard-response","98","147685","0.0-27.0","3DR23U6WE60BLQTW4OR7USTIKTWTE2","A337Y4X67PY4QI","33Q5P9PUSP8QOKKNNN5S19YACNVCZX","","img/set1/S4.jpg","68","4","structured_incentive","74","false","structured_incentive,structured_normal,random","1,2,2,3","",""
"null","","html-keyboard-response","99","148043","0.0-28.0","3DR23U6WE60BLQTW4OR7USTIKTWTE2","A337Y4X67PY4QI","33Q5P9PUSP8QOKKNNN5S19YACNVCZX","","<img src=""img/set1/S4.jpg"" width=""540"" height = ""360"">","null","","","","","","","",""
"null","","html-keyboard-response","100","148050","0.0-29.0","3DR23U6WE60BLQTW4OR7USTIKTWTE2","A337Y4X67PY4QI","33Q5P9PUSP8QOKKNNN5S19YACNVCZX","","","null","","","","","","","",""
"294","","image-keyboard-response","101","148350","0.0-30.0","3DR23U6WE60BLQTW4OR7USTIKTWTE2","A337Y4X67PY4QI","33Q5P9PUSP8QOKKNNN5S19YACNVCZX","","img/set1/S1.jpg","68","1","structured_incentive","83","false","structured_incentive,structured_normal,random","1,2,2,3","",""
"null","","html-keyboard-response","102","148707","0.0-31.0","3DR23U6WE60BLQTW4OR7USTIKTWTE2","A337Y4X67PY4QI","33Q5P9PUSP8QOKKNNN5S19YACNVCZX","","<img src=""img/set1/S1.jpg"" width=""540"" height = ""360"">","null","","","","","","","",""
"null","","html-keyboard-response","103","148712","0.0-32.0","3DR23U6WE60BLQTW4OR7USTIKTWTE2","A337Y4X67PY4QI","33Q5P9PUSP8QOKKNNN5S19YACNVCZX","","","null","","","","","","","",""
"190.39999997615814","","image-keyboard-response","104","148906","0.0-33.0","3DR23U6WE60BLQTW4OR7USTIKTWTE2","A337Y4X67PY4QI","33Q5P9PUSP8QOKKNNN5S19YACNVCZX","","img/set1/S2.jpg","68","2","structured_incentive","68","true","structured_incentive,structured_normal,random","1,2,2,3","",""
"null","","html-keyboard-response","105","149262","0.0-34.0","3DR23U6WE60BLQTW4OR7USTIKTWTE2","A337Y4X67PY4QI","33Q5P9PUSP8QOKKNNN5S19YACNVCZX","","<img src=""img/set1/S2.jpg"" width=""540"" height = ""360"" style=""border:16px solid orange"">","null","","","","","","","",""
"null","","html-keyboard-response","106","149267","0.0-35.0","3DR23U6WE60BLQTW4OR7USTIKTWTE2","A337Y4X67PY4QI","33Q5P9PUSP8QOKKNNN5S19YACNVCZX","","","null","","","","","","","",""
"371.80000001192093","","image-keyboard-response","107","149643","0.0-36.0","3DR23U6WE60BLQTW4OR7USTIKTWTE2","A337Y4X67PY4QI","33Q5P9PUSP8QOKKNNN5S19YACNVCZX","","img/set1/S3.jpg","74","3","structured_incentive","72","false","structured_incentive,structured_normal,random","1,2,2,3","",""
"null","","html-keyboard-response","108","149999","0.0-37.0","3DR23U6WE60BLQTW4OR7USTIKTWTE2","A337Y4X67PY4QI","33Q5P9PUSP8QOKKNNN5S19YACNVCZX","","<img src=""img/set1/S3.jpg"" width=""540"" height = ""360"">","null","","","","","","","",""
"null","","html-keyboard-response","109","150009","0.0-38.0","3DR23U6WE60BLQTW4OR7USTIKTWTE2","A337Y4X67PY4QI","33Q5P9PUSP8QOKKNNN5S19YACNVCZX","","","null","","","","","","","",""
"null","","image-keyboard-response","110","152516","0.0-39.0","3DR23U6WE60BLQTW4OR7USTIKTWTE2","A337Y4X67PY4QI","33Q5P9PUSP8QOKKNNN5S19YACNVCZX","","img/set1/S3.jpg","null","3","structured_incentive","72","false","structured_incentive,structured_normal,random","1,2,2,3","",""
"null","","html-keyboard-response","111","152873","0.0-40.0","3DR23U6WE60BLQTW4OR7USTIKTWTE2","A337Y4X67PY4QI","33Q5P9PUSP8QOKKNNN5S19YACNVCZX","","<img src=""img/set1/S3.jpg"" width=""540"" height = ""360"">","null","","","","","","","",""
"null","","html-keyboard-response","112","152881","0.0-41.0","3DR23U6WE60BLQTW4OR7USTIKTWTE2","A337Y4X67PY4QI","33Q5P9PUSP8QOKKNNN5S19YACNVCZX","","","null","","","","","","","",""
"421.5999999642372","","image-keyboard-response","113","153309","0.0-42.0","3DR23U6WE60BLQTW4OR7USTIKTWTE2","A337Y4X67PY4QI","33Q5P9PUSP8QOKKNNN5S19YACNVCZX","","img/set1/S3.jpg","74","3","structured_incentive","72","false","structured_incentive,structured_normal,random","1,2,2,3","",""
"null","","html-keyboard-response","114","153666","0.0-43.0","3DR23U6WE60BLQTW4OR7USTIKTWTE2","A337Y4X67PY4QI","33Q5P9PUSP8QOKKNNN5S19YACNVCZX","","<img src=""img/set1/S3.jpg"" width=""540"" height = ""360"">","null","","","","","","","",""
"null","","html-keyboard-response","115","153671","0.0-44.0","3DR23U6WE60BLQTW4OR7USTIKTWTE2","A337Y4X67PY4QI","33Q5P9PUSP8QOKKNNN5S19YACNVCZX","","","null","","","","","","","",""
"369.5","","image-keyboard-response","116","154045","0.0-45.0","3DR23U6WE60BLQTW4OR7USTIKTWTE2","A337Y4X67PY4QI","33Q5P9PUSP8QOKKNNN5S19YACNVCZX","","img/set1/S3.jpg","83","3","structured_incentive","72","false","structured_incentive,structured_normal,random","1,2,2,3","",""
"null","","html-keyboard-response","117","154401","0.0-46.0","3DR23U6WE60BLQTW4OR7USTIKTWTE2","A337Y4X67PY4QI","33Q5P9PUSP8QOKKNNN5S19YACNVCZX","","<img src=""img/set1/S3.jpg"" width=""540"" height = ""360"">","null","","","","","","","",""
"null","","html-keyboard-response","118","154410","0.0-47.0","3DR23U6WE60BLQTW4OR7USTIKTWTE2","A337Y4X67PY4QI","33Q5P9PUSP8QOKKNNN5S19YACNVCZX","","","null","","","","","","","",""
"292.5","","image-keyboard-response","119","154708","0.0-48.0","3DR23U6WE60BLQTW4OR7USTIKTWTE2","A337Y4X67PY4QI","33Q5P9PUSP8QOKKNNN5S19YACNVCZX","","img/set1/S3.jpg","68","3","structured_incentive","72","false","structured_incentive,structured_normal,random","1,2,2,3","",""
"null","","html-keyboard-response","120","155064","0.0-49.0","3DR23U6WE60BLQTW4OR7USTIKTWTE2","A337Y4X67PY4QI","33Q5P9PUSP8QOKKNNN5S19YACNVCZX","","<img src=""img/set1/S3.jpg"" width=""540"" height = ""360"">","null","","","","","","","",""
"null","","html-keyboard-response","121","155072","0.0-50.0","3DR23U6WE60BLQTW4OR7USTIKTWTE2","A337Y4X67PY4QI","33Q5P9PUSP8QOKKNNN5S19YACNVCZX","","","null","","","","","","","",""
"285.19999998807907","","image-keyboard-response","122","155361","0.0-51.0","3DR23U6WE60BLQTW4OR7USTIKTWTE2","A337Y4X67PY4QI","33Q5P9PUSP8QOKKNNN5S19YACNVCZX","","img/set1/S4.jpg","74","4","structured_incentive","74","true","structured_incentive,structured_normal,random","1,2,2,3","",""
"null","","html-keyboard-response","123","155803","0.0-52.0","3DR23U6WE60BLQTW4OR7USTIKTWTE2","A337Y4X67PY4QI","33Q5P9PUSP8QOKKNNN5S19YACNVCZX","","<img src=""img/set1/S4.jpg"" width=""540"" height = ""360"" style=""border:16px solid orange"">","null","","","","","","","",""
"null","","html-keyboard-response","124","155809","0.0-53.0","3DR23U6WE60BLQTW4OR7USTIKTWTE2","A337Y4X67PY4QI","33Q5P9PUSP8QOKKNNN5S19YACNVCZX","","","null","","","","","","","",""
"1028.5999999642372","","image-keyboard-response","125","156842","0.0-54.0","3DR23U6WE60BLQTW4OR7USTIKTWTE2","A337Y4X67PY4QI","33Q5P9PUSP8QOKKNNN5S19YACNVCZX","","img/set1/S4.jpg","68","4","structured_incentive","74","false","structured_incentive,structured_normal,random","1,2,2,3","",""
"null","","html-keyboard-response","126","157196","0.0-55.0","3DR23U6WE60BLQTW4OR7USTIKTWTE2","A337Y4X67PY4QI","33Q5P9PUSP8QOKKNNN5S19YACNVCZX","","<img src=""img/set1/S4.jpg"" width=""540"" height = ""360"">","null","","","","","","","",""
"null","","html-keyboard-response","127","157200","0.0-56.0","3DR23U6WE60BLQTW4OR7USTIKTWTE2","A337Y4X67PY4QI","33Q5P9PUSP8QOKKNNN5S19YACNVCZX","","","null","","","","","","","",""
"336.60000002384186","","image-keyboard-response","128","157541","0.0-57.0","3DR23U6WE60BLQTW4OR7USTIKTWTE2","A337Y4X67PY4QI","33Q5P9PUSP8QOKKNNN5S19YACNVCZX","","img/set1/S4.jpg","74","4","structured_incentive","74","true","structured_incentive,structured_normal,random","1,2,2,3","",""
"null","","html-keyboard-response","129","157896","0.0-58.0","3DR23U6WE60BLQTW4OR7USTIKTWTE2","A337Y4X67PY4QI","33Q5P9PUSP8QOKKNNN5S19YACNVCZX","","<img src=""img/set1/S4.jpg"" width=""540"" height = ""360"" style=""border:16px solid orange"">","null","","","","","","","",""
"null","","html-keyboard-response","130","157901","0.0-59.0","3DR23U6WE60BLQTW4OR7USTIKTWTE2","A337Y4X67PY4QI","33Q5P9PUSP8QOKKNNN5S19YACNVCZX","","","null","","","","","","","",""
"721.1999999880791","","image-keyboard-response","131","158626","0.0-60.0","3DR23U6WE60BLQTW4OR7USTIKTWTE2","A337Y4X67PY4QI","33Q5P9PUSP8QOKKNNN5S19YACNVCZX","","img/set1/S3.jpg","83","3","structured_incentive","72","false","structured_incentive,structured_normal,random","1,2,2,3","",""
"null","","html-keyboard-response","132","158982","0.0-61.0","3DR23U6WE60BLQTW4OR7USTIKTWTE2","A337Y4X67PY4QI","33Q5P9PUSP8QOKKNNN5S19YACNVCZX","","<img src=""img/set1/S3.jpg"" width=""540"" height = ""360"">","null","","","","","","","",""
"null","","html-keyboard-response","133","158995","0.0-62.0","3DR23U6WE60BLQTW4OR7USTIKTWTE2","A337Y4X67PY4QI","33Q5P9PUSP8QOKKNNN5S19YACNVCZX","","","null","","","","","","","",""
"334.30000001192093","","image-keyboard-response","134","159333","0.0-63.0","3DR23U6WE60BLQTW4OR7USTIKTWTE2","A337Y4X67PY4QI","33Q5P9PUSP8QOKKNNN5S19YACNVCZX","","img/set1/S1.jpg","83","1","structured_incentive","83","true","structured_incentive,structured_normal,random","1,2,2,3","",""
"null","","html-keyboard-response","135","159690","0.0-64.0","3DR23U6WE60BLQTW4OR7USTIKTWTE2","A337Y4X67PY4QI","33Q5P9PUSP8QOKKNNN5S19YACNVCZX","","<img src=""img/set1/S1.jpg"" width=""540"" height = ""360"" style=""border:16px solid orange"">","null","","","","","","","",""
"null","","html-keyboard-response","136","159703","0.0-65.0","3DR23U6WE60BLQTW4OR7USTIKTWTE2","A337Y4X67PY4QI","33Q5P9PUSP8QOKKNNN5S19YACNVCZX","","","null","","","","","","","",""
"327.19999998807907","","image-keyboard-response","137","160034","0.0-66.0","3DR23U6WE60BLQTW4OR7USTIKTWTE2","A337Y4X67PY4QI","33Q5P9PUSP8QOKKNNN5S19YACNVCZX","","img/set1/S2.jpg","74","2","structured_incentive","68","false","structured_incentive,structured_normal,random","1,2,2,3","",""
"null","","html-keyboard-response","138","160390","0.0-67.0","3DR23U6WE60BLQTW4OR7USTIKTWTE2","A337Y4X67PY4QI","33Q5P9PUSP8QOKKNNN5S19YACNVCZX","","<img src=""img/set1/S2.jpg"" width=""540"" height = ""360"">","null","","","","","","","",""
"null","","html-keyboard-response","139","160395","0.0-68.0","3DR23U6WE60BLQTW4OR7USTIKTWTE2","A337Y4X67PY4QI","33Q5P9PUSP8QOKKNNN5S19YACNVCZX","","","null","","","","","","","",""
"1164","","image-keyboard-response","140","161562","0.0-69.0","3DR23U6WE60BLQTW4OR7USTIKTWTE2","A337Y4X67PY4QI","33Q5P9PUSP8QOKKNNN5S19YACNVCZX","","img/set1/S3.jpg","68","3","structured_incentive","72","false","structured_incentive,structured_normal,random","1,2,2,3","",""
"null","","html-keyboard-response","141","161917","0.0-70.0","3DR23U6WE60BLQTW4OR7USTIKTWTE2","A337Y4X67PY4QI","33Q5P9PUSP8QOKKNNN5S19YACNVCZX","","<img src=""img/set1/S3.jpg"" width=""540"" height = ""360"">","null","","","","","","","",""
"null","","html-keyboard-response","142","161923","0.0-71.0","3DR23U6WE60BLQTW4OR7USTIKTWTE2","A337Y4X67PY4QI","33Q5P9PUSP8QOKKNNN5S19YACNVCZX","","","null","","","","","","","",""
"451.19999998807907","","image-keyboard-response","143","162379","0.0-72.0","3DR23U6WE60BLQTW4OR7USTIKTWTE2","A337Y4X67PY4QI","33Q5P9PUSP8QOKKNNN5S19YACNVCZX","","img/set1/S1.jpg","83","1","structured_incentive","83","true","structured_incentive,structured_normal,random","1,2,2,3","",""
"null","","html-keyboard-response","144","162735","0.0-73.0","3DR23U6WE60BLQTW4OR7USTIKTWTE2","A337Y4X67PY4QI","33Q5P9PUSP8QOKKNNN5S19YACNVCZX","","<img src=""img/set1/S1.jpg"" width=""540"" height = ""360"" style=""border:16px solid orange"">","null","","","","","","","",""
"null","","html-keyboard-response","145","162741","0.0-74.0","3DR23U6WE60BLQTW4OR7USTIKTWTE2","A337Y4X67PY4QI","33Q5P9PUSP8QOKKNNN5S19YACNVCZX","","","null","","","","","","","",""
"382.9000000357628","","image-keyboard-response","146","163129","0.0-75.0","3DR23U6WE60BLQTW4OR7USTIKTWTE2","A337Y4X67PY4QI","33Q5P9PUSP8QOKKNNN5S19YACNVCZX","","img/set1/S2.jpg","83","2","structured_incentive","68","false","structured_incentive,structured_normal,random","1,2,2,3","",""
"null","","html-keyboard-response","147","163485","0.0-76.0","3DR23U6WE60BLQTW4OR7USTIKTWTE2","A337Y4X67PY4QI","33Q5P9PUSP8QOKKNNN5S19YACNVCZX","","<img src=""img/set1/S2.jpg"" width=""540"" height = ""360"">","null","","","","","","","",""
"null","","html-keyboard-response","148","163489","0.0-77.0","3DR23U6WE60BLQTW4OR7USTIKTWTE2","A337Y4X67PY4QI","33Q5P9PUSP8QOKKNNN5S19YACNVCZX","","","null","","","","","","","",""
"514.7999999523163","","image-keyboard-response","149","164008","0.0-78.0","3DR23U6WE60BLQTW4OR7USTIKTWTE2","A337Y4X67PY4QI","33Q5P9PUSP8QOKKNNN5S19YACNVCZX","","img/set1/S1.jpg","68","1","structured_incentive","83","false","structured_incentive,structured_normal,random","1,2,2,3","",""
"null","","html-keyboard-response","150","164366","0.0-79.0","3DR23U6WE60BLQTW4OR7USTIKTWTE2","A337Y4X67PY4QI","33Q5P9PUSP8QOKKNNN5S19YACNVCZX","","<img src=""img/set1/S1.jpg"" width=""540"" height = ""360"">","null","","","","","","","",""
"null","","html-keyboard-response","151","164372","0.0-80.0","3DR23U6WE60BLQTW4OR7USTIKTWTE2","A337Y4X67PY4QI","33Q5P9PUSP8QOKKNNN5S19YACNVCZX","","","null","","","","","","","",""
"368.39999997615814","","image-keyboard-response","152","164745","0.0-81.0","3DR23U6WE60BLQTW4OR7USTIKTWTE2","A337Y4X67PY4QI","33Q5P9PUSP8QOKKNNN5S19YACNVCZX","","img/set1/S2.jpg","74","2","structured_incentive","68","false","structured_incentive,structured_normal,random","1,2,2,3","",""
"null","","html-keyboard-response","153","165100","0.0-82.0","3DR23U6WE60BLQTW4OR7USTIKTWTE2","A337Y4X67PY4QI","33Q5P9PUSP8QOKKNNN5S19YACNVCZX","","<img src=""img/set1/S2.jpg"" width=""540"" height = ""360"">","null","","","","","","","",""
"null","","html-keyboard-response","154","165106","0.0-83.0","3DR23U6WE60BLQTW4OR7USTIKTWTE2","A337Y4X67PY4QI","33Q5P9PUSP8QOKKNNN5S19YACNVCZX","","","null","","","","","","","",""
"387.69999998807907","","image-keyboard-response","155","165498","0.0-84.0","3DR23U6WE60BLQTW4OR7USTIKTWTE2","A337Y4X67PY4QI","33Q5P9PUSP8QOKKNNN5S19YACNVCZX","","img/set1/S3.jpg","74","3","structured_incentive","72","false","structured_incentive,structured_normal,random","1,2,2,3","",""
"null","","html-keyboard-response","156","165858","0.0-85.0","3DR23U6WE60BLQTW4OR7USTIKTWTE2","A337Y4X67PY4QI","33Q5P9PUSP8QOKKNNN5S19YACNVCZX","","<img src=""img/set1/S3.jpg"" width=""540"" height = ""360"">","null","","","","","","","",""
"null","","html-keyboard-response","157","165863","0.0-86.0","3DR23U6WE60BLQTW4OR7USTIKTWTE2","A337Y4X67PY4QI","33Q5P9PUSP8QOKKNNN5S19YACNVCZX","","","null","","","","","","","",""
"379.10000002384186","","image-keyboard-response","158","166249","0.0-87.0","3DR23U6WE60BLQTW4OR7USTIKTWTE2","A337Y4X67PY4QI","33Q5P9PUSP8QOKKNNN5S19YACNVCZX","","img/set1/S3.jpg","74","3","structured_incentive","72","false","structured_incentive,structured_normal,random","1,2,2,3","",""
"null","","html-keyboard-response","159","166607","0.0-88.0","3DR23U6WE60BLQTW4OR7USTIKTWTE2","A337Y4X67PY4QI","33Q5P9PUSP8QOKKNNN5S19YACNVCZX","","<img src=""img/set1/S3.jpg"" width=""540"" height = ""360"">","null","","","","","","","",""
"null","","html-keyboard-response","160","166612","0.0-89.0","3DR23U6WE60BLQTW4OR7USTIKTWTE2","A337Y4X67PY4QI","33Q5P9PUSP8QOKKNNN5S19YACNVCZX","","","null","","","","","","","",""
"null","","image-keyboard-response","161","169117","0.0-90.0","3DR23U6WE60BLQTW4OR7USTIKTWTE2","A337Y4X67PY4QI","33Q5P9PUSP8QOKKNNN5S19YACNVCZX","","img/set1/S2.jpg","null","2","structured_incentive","68","false","structured_incentive,structured_normal,random","1,2,2,3","",""
"null","","html-keyboard-response","162","169472","0.0-91.0","3DR23U6WE60BLQTW4OR7USTIKTWTE2","A337Y4X67PY4QI","33Q5P9PUSP8QOKKNNN5S19YACNVCZX","","<img src=""img/set1/S2.jpg"" width=""540"" height = ""360"">","null","","","","","","","",""
"null","","html-keyboard-response","163","169480","0.0-92.0","3DR23U6WE60BLQTW4OR7USTIKTWTE2","A337Y4X67PY4QI","33Q5P9PUSP8QOKKNNN5S19YACNVCZX","","","null","","","","","","","",""
"558.3999999761581","","image-keyboard-response","164","170042","0.0-93.0","3DR23U6WE60BLQTW4OR7USTIKTWTE2","A337Y4X67PY4QI","33Q5P9PUSP8QOKKNNN5S19YACNVCZX","","img/set1/S3.jpg","68","3","structured_incentive","72","false","structured_incentive,structured_normal,random","1,2,2,3","",""
"null","","html-keyboard-response","165","170403","0.0-94.0","3DR23U6WE60BLQTW4OR7USTIKTWTE2","A337Y4X67PY4QI","33Q5P9PUSP8QOKKNNN5S19YACNVCZX","","<img src=""img/set1/S3.jpg"" width=""540"" height = ""360"">","null","","","","","","","",""
"null","","html-keyboard-response","166","170419","0.0-95.0","3DR23U6WE60BLQTW4OR7USTIKTWTE2","A337Y4X67PY4QI","33Q5P9PUSP8QOKKNNN5S19YACNVCZX","","","null","","","","","","","",""
"355.19999998807907","","image-keyboard-response","167","170778","0.0-96.0","3DR23U6WE60BLQTW4OR7USTIKTWTE2","A337Y4X67PY4QI","33Q5P9PUSP8QOKKNNN5S19YACNVCZX","","img/set1/S4.jpg","74","4","structured_incentive","74","true","structured_incentive,structured_normal,random","1,2,2,3","",""
"null","","html-keyboard-response","168","171136","0.0-97.0","3DR23U6WE60BLQTW4OR7USTIKTWTE2","A337Y4X67PY4QI","33Q5P9PUSP8QOKKNNN5S19YACNVCZX","","<img src=""img/set1/S4.jpg"" width=""540"" height = ""360"" style=""border:16px solid orange"">","null","","","","","","","",""
"null","","html-keyboard-response","169","171146","0.0-98.0","3DR23U6WE60BLQTW4OR7USTIKTWTE2","A337Y4X67PY4QI","33Q5P9PUSP8QOKKNNN5S19YACNVCZX","","","null","","","","","","","",""
"473.5999999642372","","image-keyboard-response","170","171624","0.0-99.0","3DR23U6WE60BLQTW4OR7USTIKTWTE2","A337Y4X67PY4QI","33Q5P9PUSP8QOKKNNN5S19YACNVCZX","","img/set1/S1.jpg","74","1","structured_incentive","83","false","structured_incentive,structured_normal,random","1,2,2,3","",""
"null","","html-keyboard-response","171","171979","0.0-100.0","3DR23U6WE60BLQTW4OR7USTIKTWTE2","A337Y4X67PY4QI","33Q5P9PUSP8QOKKNNN5S19YACNVCZX","","<img src=""img/set1/S1.jpg"" width=""540"" height = ""360"">","null","","","","","","","",""
"null","","html-keyboard-response","172","171986","0.0-101.0","3DR23U6WE60BLQTW4OR7USTIKTWTE2","A337Y4X67PY4QI","33Q5P9PUSP8QOKKNNN5S19YACNVCZX","","","null","","","","","","","",""
"1679.7000000476837","","image-keyboard-response","173","173671","0.0-102.0","3DR23U6WE60BLQTW4OR7USTIKTWTE2","A337Y4X67PY4QI","33Q5P9PUSP8QOKKNNN5S19YACNVCZX","","img/set1/S2.jpg","83","2","structured_incentive","68","false","structured_incentive,structured_normal,random","1,2,2,3","",""
"null","","html-keyboard-response","174","174026","0.0-103.0","3DR23U6WE60BLQTW4OR7USTIKTWTE2","A337Y4X67PY4QI","33Q5P9PUSP8QOKKNNN5S19YACNVCZX","","<img src=""img/set1/S2.jpg"" width=""540"" height = ""360"">","null","","","","","","","",""
"null","","html-keyboard-response","175","174030","0.0-104.0","3DR23U6WE60BLQTW4OR7USTIKTWTE2","A337Y4X67PY4QI","33Q5P9PUSP8QOKKNNN5S19YACNVCZX","","","null","","","","","","","",""
"633.8999999761581","","image-keyboard-response","176","174668","0.0-105.0","3DR23U6WE60BLQTW4OR7USTIKTWTE2","A337Y4X67PY4QI","33Q5P9PUSP8QOKKNNN5S19YACNVCZX","","img/set1/S4.jpg","68","4","structured_incentive","74","false","structured_incentive,structured_normal,random","1,2,2,3","",""
"null","","html-keyboard-response","177","175025","0.0-106.0","3DR23U6WE60BLQTW4OR7USTIKTWTE2","A337Y4X67PY4QI","33Q5P9PUSP8QOKKNNN5S19YACNVCZX","","<img src=""img/set1/S4.jpg"" width=""540"" height = ""360"">","null","","","","","","","",""
"null","","html-keyboard-response","178","175029","0.0-107.0","3DR23U6WE60BLQTW4OR7USTIKTWTE2","A337Y4X67PY4QI","33Q5P9PUSP8QOKKNNN5S19YACNVCZX","","","null","","","","","","","",""
"621.6999999880791","","image-keyboard-response","179","175656","0.0-108.0","3DR23U6WE60BLQTW4OR7USTIKTWTE2","A337Y4X67PY4QI","33Q5P9PUSP8QOKKNNN5S19YACNVCZX","","img/set1/S1.jpg","68","1","structured_incentive","83","false","structured_incentive,structured_normal,random","1,2,2,3","",""
"null","","html-keyboard-response","180","176012","0.0-109.0","3DR23U6WE60BLQTW4OR7USTIKTWTE2","A337Y4X67PY4QI","33Q5P9PUSP8QOKKNNN5S19YACNVCZX","","<img src=""img/set1/S1.jpg"" width=""540"" height = ""360"">","null","","","","","","","",""
"null","","html-keyboard-response","181","176020","0.0-110.0","3DR23U6WE60BLQTW4OR7USTIKTWTE2","A337Y4X67PY4QI","33Q5P9PUSP8QOKKNNN5S19YACNVCZX","","","null","","","","","","","",""
"305.5","","image-keyboard-response","182","176330","0.0-111.0","3DR23U6WE60BLQTW4OR7USTIKTWTE2","A337Y4X67PY4QI","33Q5P9PUSP8QOKKNNN5S19YACNVCZX","","img/set1/S2.jpg","68","2","structured_incentive","68","true","structured_incentive,structured_normal,random","1,2,2,3","",""
"null","","html-keyboard-response","183","176686","0.0-112.0","3DR23U6WE60BLQTW4OR7USTIKTWTE2","A337Y4X67PY4QI","33Q5P9PUSP8QOKKNNN5S19YACNVCZX","","<img src=""img/set1/S2.jpg"" width=""540"" height = ""360"" style=""border:16px solid orange"">","null","","","","","","","",""
"null","","html-keyboard-response","184","176691","0.0-113.0","3DR23U6WE60BLQTW4OR7USTIKTWTE2","A337Y4X67PY4QI","33Q5P9PUSP8QOKKNNN5S19YACNVCZX","","","null","","","","","","","",""
"328.5999999642372","","image-keyboard-response","185","177025","0.0-114.0","3DR23U6WE60BLQTW4OR7USTIKTWTE2","A337Y4X67PY4QI","33Q5P9PUSP8QOKKNNN5S19YACNVCZX","","img/set1/S3.jpg","74","3","structured_incentive","72","false","structured_incentive,structured_normal,random","1,2,2,3","",""
"null","","html-keyboard-response","186","177382","0.0-115.0","3DR23U6WE60BLQTW4OR7USTIKTWTE2","A337Y4X67PY4QI","33Q5P9PUSP8QOKKNNN5S19YACNVCZX","","<img src=""img/set1/S3.jpg"" width=""540"" height = ""360"">","null","","","","","","","",""
"null","","html-keyboard-response","187","177389","0.0-116.0","3DR23U6WE60BLQTW4OR7USTIKTWTE2","A337Y4X67PY4QI","33Q5P9PUSP8QOKKNNN5S19YACNVCZX","","","null","","","","","","","",""
"null","","image-keyboard-response","188","179893","0.0-117.0","3DR23U6WE60BLQTW4OR7USTIKTWTE2","A337Y4X67PY4QI","33Q5P9PUSP8QOKKNNN5S19YACNVCZX","","img/set1/S4.jpg","null","4","structured_incentive","74","false","structured_incentive,structured_normal,random","1,2,2,3","",""
"null","","html-keyboard-response","189","180249","0.0-118.0","3DR23U6WE60BLQTW4OR7USTIKTWTE2","A337Y4X67PY4QI","33Q5P9PUSP8QOKKNNN5S19YACNVCZX","","<img src=""img/set1/S4.jpg"" width=""540"" height = ""360"">","null","","","","","","","",""
"null","","html-keyboard-response","190","180257","0.0-119.0","3DR23U6WE60BLQTW4OR7USTIKTWTE2","A337Y4X67PY4QI","33Q5P9PUSP8QOKKNNN5S19YACNVCZX","","","null","","","","","","","",""
"null","","image-keyboard-response","191","182805","0.0-120.0","3DR23U6WE60BLQTW4OR7USTIKTWTE2","A337Y4X67PY4QI","33Q5P9PUSP8QOKKNNN5S19YACNVCZX","","img/set1/S4.jpg","null","4","structured_incentive","74","false","structured_incentive,structured_normal,random","1,2,2,3","",""
"null","","html-keyboard-response","192","183167","0.0-121.0","3DR23U6WE60BLQTW4OR7USTIKTWTE2","A337Y4X67PY4QI","33Q5P9PUSP8QOKKNNN5S19YACNVCZX","","<img src=""img/set1/S4.jpg"" width=""540"" height = ""360"">","null","","","","","","","",""
"null","","html-keyboard-response","193","183175","0.0-122.0","3DR23U6WE60BLQTW4OR7USTIKTWTE2","A337Y4X67PY4QI","33Q5P9PUSP8QOKKNNN5S19YACNVCZX","","","null","","","","","","","",""
"23.600000023841858","","image-keyboard-response","194","183203","0.0-123.0","3DR23U6WE60BLQTW4OR7USTIKTWTE2","A337Y4X67PY4QI","33Q5P9PUSP8QOKKNNN5S19YACNVCZX","","img/set1/S1.jpg","74","1","structured_incentive","83","false","structured_incentive,structured_normal,random","1,2,2,3","",""
"null","","html-keyboard-response","195","183557","0.0-124.0","3DR23U6WE60BLQTW4OR7USTIKTWTE2","A337Y4X67PY4QI","33Q5P9PUSP8QOKKNNN5S19YACNVCZX","","<img src=""img/set1/S1.jpg"" width=""540"" height = ""360"">","null","","","","","","","",""
"null","","html-keyboard-response","196","183564","0.0-125.0","3DR23U6WE60BLQTW4OR7USTIKTWTE2","A337Y4X67PY4QI","33Q5P9PUSP8QOKKNNN5S19YACNVCZX","","","null","","","","","","","",""
"115.30000001192093","","image-keyboard-response","197","183684","0.0-126.0","3DR23U6WE60BLQTW4OR7USTIKTWTE2","A337Y4X67PY4QI","33Q5P9PUSP8QOKKNNN5S19YACNVCZX","","img/set1/S2.jpg","74","2","structured_incentive","68","false","structured_incentive,structured_normal,random","1,2,2,3","",""
"null","","html-keyboard-response","198","184038","0.0-127.0","3DR23U6WE60BLQTW4OR7USTIKTWTE2","A337Y4X67PY4QI","33Q5P9PUSP8QOKKNNN5S19YACNVCZX","","<img src=""img/set1/S2.jpg"" width=""540"" height = ""360"">","null","","","","","","","",""
"null","","html-keyboard-response","199","184043","0.0-128.0","3DR23U6WE60BLQTW4OR7USTIKTWTE2","A337Y4X67PY4QI","33Q5P9PUSP8QOKKNNN5S19YACNVCZX","","","null","","","","","","","",""
"83.10000002384186","","image-keyboard-response","200","184130","0.0-129.0","3DR23U6WE60BLQTW4OR7USTIKTWTE2","A337Y4X67PY4QI","33Q5P9PUSP8QOKKNNN5S19YACNVCZX","","img/set1/S4.jpg","74","4","structured_incentive","74","true","structured_incentive,structured_normal,random","1,2,2,3","",""
"null","","html-keyboard-response","201","184486","0.0-130.0","3DR23U6WE60BLQTW4OR7USTIKTWTE2","A337Y4X67PY4QI","33Q5P9PUSP8QOKKNNN5S19YACNVCZX","","<img src=""img/set1/S4.jpg"" width=""540"" height = ""360"" style=""border:16px solid orange"">","null","","","","","","","",""
"null","","html-keyboard-response","202","184492","0.0-131.0","3DR23U6WE60BLQTW4OR7USTIKTWTE2","A337Y4X67PY4QI","33Q5P9PUSP8QOKKNNN5S19YACNVCZX","","","null","","","","","","","",""
"159.5","","image-keyboard-response","203","184656","0.0-132.0","3DR23U6WE60BLQTW4OR7USTIKTWTE2","A337Y4X67PY4QI","33Q5P9PUSP8QOKKNNN5S19YACNVCZX","","img/set1/S4.jpg","74","4","structured_incentive","74","true","structured_incentive,structured_normal,random","1,2,2,3","",""
"null","","html-keyboard-response","204","185012","0.0-133.0","3DR23U6WE60BLQTW4OR7USTIKTWTE2","A337Y4X67PY4QI","33Q5P9PUSP8QOKKNNN5S19YACNVCZX","","<img src=""img/set1/S4.jpg"" width=""540"" height = ""360"" style=""border:16px solid orange"">","null","","","","","","","",""
"null","","html-keyboard-response","205","185017","0.0-134.0","3DR23U6WE60BLQTW4OR7USTIKTWTE2","A337Y4X67PY4QI","33Q5P9PUSP8QOKKNNN5S19YACNVCZX","","","null","","","","","","","",""
"172.29999995231628","","image-keyboard-response","206","185195","0.0-135.0","3DR23U6WE60BLQTW4OR7USTIKTWTE2","A337Y4X67PY4QI","33Q5P9PUSP8QOKKNNN5S19YACNVCZX","","img/set1/S1.jpg","74","1","structured_incentive","83","false","structured_incentive,structured_normal,random","1,2,2,3","",""
"null","","html-keyboard-response","207","185551","0.0-136.0","3DR23U6WE60BLQTW4OR7USTIKTWTE2","A337Y4X67PY4QI","33Q5P9PUSP8QOKKNNN5S19YACNVCZX","","<img src=""img/set1/S1.jpg"" width=""540"" height = ""360"">","null","","","","","","","",""
"null","","html-keyboard-response","208","185558","0.0-137.0","3DR23U6WE60BLQTW4OR7USTIKTWTE2","A337Y4X67PY4QI","33Q5P9PUSP8QOKKNNN5S19YACNVCZX","","","null","","","","","","","",""
"417.5","","image-keyboard-response","209","185981","0.0-138.0","3DR23U6WE60BLQTW4OR7USTIKTWTE2","A337Y4X67PY4QI","33Q5P9PUSP8QOKKNNN5S19YACNVCZX","","img/set1/S2.jpg","68","2","structured_incentive","68","true","structured_incentive,structured_normal,random","1,2,2,3","",""
"null","","html-keyboard-response","210","186339","0.0-139.0","3DR23U6WE60BLQTW4OR7USTIKTWTE2","A337Y4X67PY4QI","33Q5P9PUSP8QOKKNNN5S19YACNVCZX","","<img src=""img/set1/S2.jpg"" width=""540"" height = ""360"" style=""border:16px solid orange"">","null","","","","","","","",""
"null","","html-keyboard-response","211","186344","0.0-140.0","3DR23U6WE60BLQTW4OR7USTIKTWTE2","A337Y4X67PY4QI","33Q5P9PUSP8QOKKNNN5S19YACNVCZX","","","null","","","","","","","",""
"116.40000003576279","","image-keyboard-response","212","186464","0.0-141.0","3DR23U6WE60BLQTW4OR7USTIKTWTE2","A337Y4X67PY4QI","33Q5P9PUSP8QOKKNNN5S19YACNVCZX","","img/set1/S3.jpg","68","3","structured_incentive","72","false","structured_incentive,structured_normal,random","1,2,2,3","",""
"null","","html-keyboard-response","213","186820","0.0-142.0","3DR23U6WE60BLQTW4OR7USTIKTWTE2","A337Y4X67PY4QI","33Q5P9PUSP8QOKKNNN5S19YACNVCZX","","<img src=""img/set1/S3.jpg"" width=""540"" height = ""360"">","null","","","","","","","",""
"null","","html-keyboard-response","214","186829","0.0-143.0","3DR23U6WE60BLQTW4OR7USTIKTWTE2","A337Y4X67PY4QI","33Q5P9PUSP8QOKKNNN5S19YACNVCZX","","","null","","","","","","","",""
"233.60000002384186","","image-keyboard-response","215","187069","0.0-144.0","3DR23U6WE60BLQTW4OR7USTIKTWTE2","A337Y4X67PY4QI","33Q5P9PUSP8QOKKNNN5S19YACNVCZX","","img/set1/S1.jpg","83","1","structured_incentive","83","true","structured_incentive,structured_normal,random","1,2,2,3","",""
"null","","html-keyboard-response","216","187425","0.0-145.0","3DR23U6WE60BLQTW4OR7USTIKTWTE2","A337Y4X67PY4QI","33Q5P9PUSP8QOKKNNN5S19YACNVCZX","","<img src=""img/set1/S1.jpg"" width=""540"" height = ""360"" style=""border:16px solid orange"">","null","","","","","","","",""
"null","","html-keyboard-response","217","187433","0.0-146.0","3DR23U6WE60BLQTW4OR7USTIKTWTE2","A337Y4X67PY4QI","33Q5P9PUSP8QOKKNNN5S19YACNVCZX","","","null","","","","","","","",""
"28.600000023841858","","image-keyboard-response","218","187466","0.0-147.0","3DR23U6WE60BLQTW4OR7USTIKTWTE2","A337Y4X67PY4QI","33Q5P9PUSP8QOKKNNN5S19YACNVCZX","","img/set1/S2.jpg","83","2","structured_incentive","68","false","structured_incentive,structured_normal,random","1,2,2,3","",""
"null","","html-keyboard-response","219","187820","0.0-148.0","3DR23U6WE60BLQTW4OR7USTIKTWTE2","A337Y4X67PY4QI","33Q5P9PUSP8QOKKNNN5S19YACNVCZX","","<img src=""img/set1/S2.jpg"" width=""540"" height = ""360"">","null","","","","","","","",""
"null","","html-keyboard-response","220","187826","0.0-149.0","3DR23U6WE60BLQTW4OR7USTIKTWTE2","A337Y4X67PY4QI","33Q5P9PUSP8QOKKNNN5S19YACNVCZX","","","null","","","","","","","",""
"94.39999997615814","","image-keyboard-response","221","187925","0.0-150.0","3DR23U6WE60BLQTW4OR7USTIKTWTE2","A337Y4X67PY4QI","33Q5P9PUSP8QOKKNNN5S19YACNVCZX","","img/set1/S1.jpg","83","1","structured_incentive","83","true","structured_incentive,structured_normal,random","1,2,2,3","",""
"null","","html-keyboard-response","222","188282","0.0-151.0","3DR23U6WE60BLQTW4OR7USTIKTWTE2","A337Y4X67PY4QI","33Q5P9PUSP8QOKKNNN5S19YACNVCZX","","<img src=""img/set1/S1.jpg"" width=""540"" height = ""360"" style=""border:16px solid orange"">","null","","","","","","","",""
"null","","html-keyboard-response","223","188286","0.0-152.0","3DR23U6WE60BLQTW4OR7USTIKTWTE2","A337Y4X67PY4QI","33Q5P9PUSP8QOKKNNN5S19YACNVCZX","","","null","","","","","","","",""
"102.69999998807907","","image-keyboard-response","224","188393","0.0-153.0","3DR23U6WE60BLQTW4OR7USTIKTWTE2","A337Y4X67PY4QI","33Q5P9PUSP8QOKKNNN5S19YACNVCZX","","img/set1/S2.jpg","83","2","structured_incentive","68","false","structured_incentive,structured_normal,random","1,2,2,3","",""
"null","","html-keyboard-response","225","188749","0.0-154.0","3DR23U6WE60BLQTW4OR7USTIKTWTE2","A337Y4X67PY4QI","33Q5P9PUSP8QOKKNNN5S19YACNVCZX","","<img src=""img/set1/S2.jpg"" width=""540"" height = ""360"">","null","","","","","","","",""
"null","","html-keyboard-response","226","188756","0.0-155.0","3DR23U6WE60BLQTW4OR7USTIKTWTE2","A337Y4X67PY4QI","33Q5P9PUSP8QOKKNNN5S19YACNVCZX","","","null","","","","","","","",""
"163.4000000357628","","image-keyboard-response","227","188924","0.0-156.0","3DR23U6WE60BLQTW4OR7USTIKTWTE2","A337Y4X67PY4QI","33Q5P9PUSP8QOKKNNN5S19YACNVCZX","","img/set1/S2.jpg","83","2","structured_incentive","68","false","structured_incentive,structured_normal,random","1,2,2,3","",""
"null","","html-keyboard-response","228","189281","0.0-157.0","3DR23U6WE60BLQTW4OR7USTIKTWTE2","A337Y4X67PY4QI","33Q5P9PUSP8QOKKNNN5S19YACNVCZX","","<img src=""img/set1/S2.jpg"" width=""540"" height = ""360"">","null","","","","","","","",""
"null","","html-keyboard-response","229","189288","0.0-158.0","3DR23U6WE60BLQTW4OR7USTIKTWTE2","A337Y4X67PY4QI","33Q5P9PUSP8QOKKNNN5S19YACNVCZX","","","null","","","","","","","",""
"60.69999998807907","","image-keyboard-response","230","189352","0.0-159.0","3DR23U6WE60BLQTW4OR7USTIKTWTE2","A337Y4X67PY4QI","33Q5P9PUSP8QOKKNNN5S19YACNVCZX","","img/set1/S1.jpg","68","1","structured_incentive","83","false","structured_incentive,structured_normal,random","1,2,2,3","",""
"null","","html-keyboard-response","231","189707","0.0-160.0","3DR23U6WE60BLQTW4OR7USTIKTWTE2","A337Y4X67PY4QI","33Q5P9PUSP8QOKKNNN5S19YACNVCZX","","<img src=""img/set1/S1.jpg"" width=""540"" height = ""360"">","null","","","","","","","",""
"null","","html-keyboard-response","232","189713","0.0-161.0","3DR23U6WE60BLQTW4OR7USTIKTWTE2","A337Y4X67PY4QI","33Q5P9PUSP8QOKKNNN5S19YACNVCZX","","","null","","","","","","","",""
"168.10000002384186","","image-keyboard-response","233","189885","0.0-162.0","3DR23U6WE60BLQTW4OR7USTIKTWTE2","A337Y4X67PY4QI","33Q5P9PUSP8QOKKNNN5S19YACNVCZX","","img/set1/S3.jpg","68","3","structured_incentive","72","false","structured_incentive,structured_normal,random","1,2,2,3","",""
"null","","html-keyboard-response","234","190241","0.0-163.0","3DR23U6WE60BLQTW4OR7USTIKTWTE2","A337Y4X67PY4QI","33Q5P9PUSP8QOKKNNN5S19YACNVCZX","","<img src=""img/set1/S3.jpg"" width=""540"" height = ""360"">","null","","","","","","","",""
"null","","html-keyboard-response","235","190247","0.0-164.0","3DR23U6WE60BLQTW4OR7USTIKTWTE2","A337Y4X67PY4QI","33Q5P9PUSP8QOKKNNN5S19YACNVCZX","","","null","","","","","","","",""
"196.30000001192093","","image-keyboard-response","236","190449","0.0-165.0","3DR23U6WE60BLQTW4OR7USTIKTWTE2","A337Y4X67PY4QI","33Q5P9PUSP8QOKKNNN5S19YACNVCZX","","img/set1/S3.jpg","68","3","structured_incentive","72","false","structured_incentive,structured_normal,random","1,2,2,3","",""
"null","","html-keyboard-response","237","190804","0.0-166.0","3DR23U6WE60BLQTW4OR7USTIKTWTE2","A337Y4X67PY4QI","33Q5P9PUSP8QOKKNNN5S19YACNVCZX","","<img src=""img/set1/S3.jpg"" width=""540"" height = ""360"">","null","","","","","","","",""
"null","","html-keyboard-response","238","190812","0.0-167.0","3DR23U6WE60BLQTW4OR7USTIKTWTE2","A337Y4X67PY4QI","33Q5P9PUSP8QOKKNNN5S19YACNVCZX","","","null","","","","","","","",""
"222","","image-keyboard-response","239","191043","0.0-168.0","3DR23U6WE60BLQTW4OR7USTIKTWTE2","A337Y4X67PY4QI","33Q5P9PUSP8QOKKNNN5S19YACNVCZX","","img/set1/S4.jpg","74","4","structured_incentive","74","true","structured_incentive,structured_normal,random","1,2,2,3","",""
"null","","html-keyboard-response","240","191400","0.0-169.0","3DR23U6WE60BLQTW4OR7USTIKTWTE2","A337Y4X67PY4QI","33Q5P9PUSP8QOKKNNN5S19YACNVCZX","","<img src=""img/set1/S4.jpg"" width=""540"" height = ""360"" style=""border:16px solid orange"">","null","","","","","","","",""
"null","","html-keyboard-response","241","191411","0.0-170.0","3DR23U6WE60BLQTW4OR7USTIKTWTE2","A337Y4X67PY4QI","33Q5P9PUSP8QOKKNNN5S19YACNVCZX","","","null","","","","","","","",""
"126.60000002384186","","image-keyboard-response","242","191544","0.0-171.0","3DR23U6WE60BLQTW4OR7USTIKTWTE2","A337Y4X67PY4QI","33Q5P9PUSP8QOKKNNN5S19YACNVCZX","","img/set1/S1.jpg","74","1","structured_incentive","83","false","structured_incentive,structured_normal,random","1,2,2,3","",""
"null","","html-keyboard-response","243","191899","0.0-172.0","3DR23U6WE60BLQTW4OR7USTIKTWTE2","A337Y4X67PY4QI","33Q5P9PUSP8QOKKNNN5S19YACNVCZX","","<img src=""img/set1/S1.jpg"" width=""540"" height = ""360"">","null","","","","","","","",""
"null","","html-keyboard-response","244","191904","0.0-173.0","3DR23U6WE60BLQTW4OR7USTIKTWTE2","A337Y4X67PY4QI","33Q5P9PUSP8QOKKNNN5S19YACNVCZX","","","null","","","","","","","",""
"null","","image-keyboard-response","245","194408","0.0-174.0","3DR23U6WE60BLQTW4OR7USTIKTWTE2","A337Y4X67PY4QI","33Q5P9PUSP8QOKKNNN5S19YACNVCZX","","img/set1/S2.jpg","null","2","structured_incentive","68","false","structured_incentive,structured_normal,random","1,2,2,3","",""
"null","","html-keyboard-response","246","194778","0.0-175.0","3DR23U6WE60BLQTW4OR7USTIKTWTE2","A337Y4X67PY4QI","33Q5P9PUSP8QOKKNNN5S19YACNVCZX","","<img src=""img/set1/S2.jpg"" width=""540"" height = ""360"">","null","","","","","","","",""
"null","","html-keyboard-response","247","194790","0.0-176.0","3DR23U6WE60BLQTW4OR7USTIKTWTE2","A337Y4X67PY4QI","33Q5P9PUSP8QOKKNNN5S19YACNVCZX","","","null","","","","","","","",""
"111.89999997615814","","image-keyboard-response","248","194906","0.0-177.0","3DR23U6WE60BLQTW4OR7USTIKTWTE2","A337Y4X67PY4QI","33Q5P9PUSP8QOKKNNN5S19YACNVCZX","","img/set1/S1.jpg","74","1","structured_incentive","83","false","structured_incentive,structured_normal,random","1,2,2,3","",""
"null","","html-keyboard-response","249","195269","0.0-178.0","3DR23U6WE60BLQTW4OR7USTIKTWTE2","A337Y4X67PY4QI","33Q5P9PUSP8QOKKNNN5S19YACNVCZX","","<img src=""img/set1/S1.jpg"" width=""540"" height = ""360"">","null","","","","","","","",""
"null","","html-keyboard-response","250","195277","0.0-179.0","3DR23U6WE60BLQTW4OR7USTIKTWTE2","A337Y4X67PY4QI","33Q5P9PUSP8QOKKNNN5S19YACNVCZX","","","null","","","","","","","",""
"321.5","","image-keyboard-response","251","195603","0.0-180.0","3DR23U6WE60BLQTW4OR7USTIKTWTE2","A337Y4X67PY4QI","33Q5P9PUSP8QOKKNNN5S19YACNVCZX","","img/set1/S3.jpg","74","3","structured_incentive","72","false","structured_incentive,structured_normal,random","1,2,2,3","",""
"null","","html-keyboard-response","252","195959","0.0-181.0","3DR23U6WE60BLQTW4OR7USTIKTWTE2","A337Y4X67PY4QI","33Q5P9PUSP8QOKKNNN5S19YACNVCZX","","<img src=""img/set1/S3.jpg"" width=""540"" height = ""360"">","null","","","","","","","",""
"null","","html-keyboard-response","253","195964","0.0-182.0","3DR23U6WE60BLQTW4OR7USTIKTWTE2","A337Y4X67PY4QI","33Q5P9PUSP8QOKKNNN5S19YACNVCZX","","","null","","","","","","","",""
"1084.5","","image-keyboard-response","254","197052","0.0-183.0","3DR23U6WE60BLQTW4OR7USTIKTWTE2","A337Y4X67PY4QI","33Q5P9PUSP8QOKKNNN5S19YACNVCZX","","img/set1/S4.jpg","83","4","structured_incentive","74","false","structured_incentive,structured_normal,random","1,2,2,3","",""
"null","","html-keyboard-response","255","197407","0.0-184.0","3DR23U6WE60BLQTW4OR7USTIKTWTE2","A337Y4X67PY4QI","33Q5P9PUSP8QOKKNNN5S19YACNVCZX","","<img src=""img/set1/S4.jpg"" width=""540"" height = ""360"">","null","","","","","","","",""
"null","","html-keyboard-response","256","197416","0.0-185.0","3DR23U6WE60BLQTW4OR7USTIKTWTE2","A337Y4X67PY4QI","33Q5P9PUSP8QOKKNNN5S19YACNVCZX","","","null","","","","","","","",""
"149.5","","image-keyboard-response","257","197570","0.0-186.0","3DR23U6WE60BLQTW4OR7USTIKTWTE2","A337Y4X67PY4QI","33Q5P9PUSP8QOKKNNN5S19YACNVCZX","","img/set1/S4.jpg","68","4","structured_incentive","74","false","structured_incentive,structured_normal,random","1,2,2,3","",""
"null","","html-keyboard-response","258","197925","0.0-187.0","3DR23U6WE60BLQTW4OR7USTIKTWTE2","A337Y4X67PY4QI","33Q5P9PUSP8QOKKNNN5S19YACNVCZX","","<img src=""img/set1/S4.jpg"" width=""540"" height = ""360"">","null","","","","","","","",""
"null","","html-keyboard-response","259","197935","0.0-188.0","3DR23U6WE60BLQTW4OR7USTIKTWTE2","A337Y4X67PY4QI","33Q5P9PUSP8QOKKNNN5S19YACNVCZX","","","null","","","","","","","",""
"128.69999998807907","","image-keyboard-response","260","198068","0.0-189.0","3DR23U6WE60BLQTW4OR7USTIKTWTE2","A337Y4X67PY4QI","33Q5P9PUSP8QOKKNNN5S19YACNVCZX","","img/set1/S1.jpg","68","1","structured_incentive","83","false","structured_incentive,structured_normal,random","1,2,2,3","",""
"null","","html-keyboard-response","261","198423","0.0-190.0","3DR23U6WE60BLQTW4OR7USTIKTWTE2","A337Y4X67PY4QI","33Q5P9PUSP8QOKKNNN5S19YACNVCZX","","<img src=""img/set1/S1.jpg"" width=""540"" height = ""360"">","null","","","","","","","",""
"null","","html-keyboard-response","262","198428","0.0-191.0","3DR23U6WE60BLQTW4OR7USTIKTWTE2","A337Y4X67PY4QI","33Q5P9PUSP8QOKKNNN5S19YACNVCZX","","","null","","","","","","","",""
"95.30000001192093","","image-keyboard-response","263","198528","0.0-192.0","3DR23U6WE60BLQTW4OR7USTIKTWTE2","A337Y4X67PY4QI","33Q5P9PUSP8QOKKNNN5S19YACNVCZX","","img/set1/S3.jpg","68","3","structured_incentive","72","false","structured_incentive,structured_normal,random","1,2,2,3","",""
"null","","html-keyboard-response","264","198886","0.0-193.0","3DR23U6WE60BLQTW4OR7USTIKTWTE2","A337Y4X67PY4QI","33Q5P9PUSP8QOKKNNN5S19YACNVCZX","","<img src=""img/set1/S3.jpg"" width=""540"" height = ""360"">","null","","","","","","","",""
"null","","html-keyboard-response","265","198896","0.0-194.0","3DR23U6WE60BLQTW4OR7USTIKTWTE2","A337Y4X67PY4QI","33Q5P9PUSP8QOKKNNN5S19YACNVCZX","","","null","","","","","","","",""
"86.59999996423721","","image-keyboard-response","266","198990","0.0-195.0","3DR23U6WE60BLQTW4OR7USTIKTWTE2","A337Y4X67PY4QI","33Q5P9PUSP8QOKKNNN5S19YACNVCZX","","img/set1/S4.jpg","68","4","structured_incentive","74","false","structured_incentive,structured_normal,random","1,2,2,3","",""
"null","","html-keyboard-response","267","199614","0.0-196.0","3DR23U6WE60BLQTW4OR7USTIKTWTE2","A337Y4X67PY4QI","33Q5P9PUSP8QOKKNNN5S19YACNVCZX","","<img src=""img/set1/S4.jpg"" width=""540"" height = ""360"">","null","","","","","","","",""
"null","","html-keyboard-response","268","199624","0.0-197.0","3DR23U6WE60BLQTW4OR7USTIKTWTE2","A337Y4X67PY4QI","33Q5P9PUSP8QOKKNNN5S19YACNVCZX","","","null","","","","","","","",""
"642.8000000119209","","image-keyboard-response","269","200271","0.0-198.0","3DR23U6WE60BLQTW4OR7USTIKTWTE2","A337Y4X67PY4QI","33Q5P9PUSP8QOKKNNN5S19YACNVCZX","","img/set1/S1.jpg","74","1","structured_incentive","83","false","structured_incentive,structured_normal,random","1,2,2,3","",""
"null","","html-keyboard-response","270","200626","0.0-199.0","3DR23U6WE60BLQTW4OR7USTIKTWTE2","A337Y4X67PY4QI","33Q5P9PUSP8QOKKNNN5S19YACNVCZX","","<img src=""img/set1/S1.jpg"" width=""540"" height = ""360"">","null","","","","","","","",""
"null","","html-keyboard-response","271","200636","0.0-200.0","3DR23U6WE60BLQTW4OR7USTIKTWTE2","A337Y4X67PY4QI","33Q5P9PUSP8QOKKNNN5S19YACNVCZX","","","null","","","","","","","",""
"1425.3999999761581","","image-keyboard-response","272","202065","0.0-201.0","3DR23U6WE60BLQTW4OR7USTIKTWTE2","A337Y4X67PY4QI","33Q5P9PUSP8QOKKNNN5S19YACNVCZX","","img/set1/S2.jpg","83","2","structured_incentive","68","false","structured_incentive,structured_normal,random","1,2,2,3","",""
"null","","html-keyboard-response","273","202420","0.0-202.0","3DR23U6WE60BLQTW4OR7USTIKTWTE2","A337Y4X67PY4QI","33Q5P9PUSP8QOKKNNN5S19YACNVCZX","","<img src=""img/set1/S2.jpg"" width=""540"" height = ""360"">","null","","","","","","","",""
"null","","html-keyboard-response","274","202427","0.0-203.0","3DR23U6WE60BLQTW4OR7USTIKTWTE2","A337Y4X67PY4QI","33Q5P9PUSP8QOKKNNN5S19YACNVCZX","","","null","","","","","","","",""
"77.69999998807907","","image-keyboard-response","275","202510","0.0-204.0","3DR23U6WE60BLQTW4OR7USTIKTWTE2","A337Y4X67PY4QI","33Q5P9PUSP8QOKKNNN5S19YACNVCZX","","img/set1/S3.jpg","83","3","structured_incentive","72","false","structured_incentive,structured_normal,random","1,2,2,3","",""
"null","","html-keyboard-response","276","202866","0.0-205.0","3DR23U6WE60BLQTW4OR7USTIKTWTE2","A337Y4X67PY4QI","33Q5P9PUSP8QOKKNNN5S19YACNVCZX","","<img src=""img/set1/S3.jpg"" width=""540"" height = ""360"">","null","","","","","","","",""
"null","","html-keyboard-response","277","202874","0.0-206.0","3DR23U6WE60BLQTW4OR7USTIKTWTE2","A337Y4X67PY4QI","33Q5P9PUSP8QOKKNNN5S19YACNVCZX","","","null","","","","","","","",""
"20.299999952316284","","image-keyboard-response","278","202899","0.0-207.0","3DR23U6WE60BLQTW4OR7USTIKTWTE2","A337Y4X67PY4QI","33Q5P9PUSP8QOKKNNN5S19YACNVCZX","","img/set1/S4.jpg","83","4","structured_incentive","74","false","structured_incentive,structured_normal,random","1,2,2,3","",""
"null","","html-keyboard-response","279","203256","0.0-208.0","3DR23U6WE60BLQTW4OR7USTIKTWTE2","A337Y4X67PY4QI","33Q5P9PUSP8QOKKNNN5S19YACNVCZX","","<img src=""img/set1/S4.jpg"" width=""540"" height = ""360"">","null","","","","","","","",""
"null","","html-keyboard-response","280","203268","0.0-209.0","3DR23U6WE60BLQTW4OR7USTIKTWTE2","A337Y4X67PY4QI","33Q5P9PUSP8QOKKNNN5S19YACNVCZX","","","null","","","","","","","",""
"330.5999999642372","","image-keyboard-response","281","203603","0.0-210.0","3DR23U6WE60BLQTW4OR7USTIKTWTE2","A337Y4X67PY4QI","33Q5P9PUSP8QOKKNNN5S19YACNVCZX","","img/set1/S1.jpg","68","1","structured_incentive","83","false","structured_incentive,structured_normal,random","1,2,2,3","",""
"null","","html-keyboard-response","282","203959","0.0-211.0","3DR23U6WE60BLQTW4OR7USTIKTWTE2","A337Y4X67PY4QI","33Q5P9PUSP8QOKKNNN5S19YACNVCZX","","<img src=""img/set1/S1.jpg"" width=""540"" height = ""360"">","null","","","","","","","",""
"null","","html-keyboard-response","283","203967","0.0-212.0","3DR23U6WE60BLQTW4OR7USTIKTWTE2","A337Y4X67PY4QI","33Q5P9PUSP8QOKKNNN5S19YACNVCZX","","","null","","","","","","","",""
"21.30000001192093","","image-keyboard-response","284","203993","0.0-213.0","3DR23U6WE60BLQTW4OR7USTIKTWTE2","A337Y4X67PY4QI","33Q5P9PUSP8QOKKNNN5S19YACNVCZX","","img/set1/S2.jpg","68","2","structured_incentive","68","true","structured_incentive,structured_normal,random","1,2,2,3","",""
"null","","html-keyboard-response","285","204349","0.0-214.0","3DR23U6WE60BLQTW4OR7USTIKTWTE2","A337Y4X67PY4QI","33Q5P9PUSP8QOKKNNN5S19YACNVCZX","","<img src=""img/set1/S2.jpg"" width=""540"" height = ""360"" style=""border:16px solid orange"">","null","","","","","","","",""
"null","","html-keyboard-response","286","204355","0.0-215.0","3DR23U6WE60BLQTW4OR7USTIKTWTE2","A337Y4X67PY4QI","33Q5P9PUSP8QOKKNNN5S19YACNVCZX","","","null","","","","","","","",""
"320.5","","image-keyboard-response","287","204681","0.0-216.0","3DR23U6WE60BLQTW4OR7USTIKTWTE2","A337Y4X67PY4QI","33Q5P9PUSP8QOKKNNN5S19YACNVCZX","","img/set1/S1.jpg","68","1","structured_incentive","83","false","structured_incentive,structured_normal,random","1,2,2,3","",""
"null","","html-keyboard-response","288","205036","0.0-217.0","3DR23U6WE60BLQTW4OR7USTIKTWTE2","A337Y4X67PY4QI","33Q5P9PUSP8QOKKNNN5S19YACNVCZX","","<img src=""img/set1/S1.jpg"" width=""540"" height = ""360"">","null","","","","","","","",""
"null","","html-keyboard-response","289","205041","0.0-218.0","3DR23U6WE60BLQTW4OR7USTIKTWTE2","A337Y4X67PY4QI","33Q5P9PUSP8QOKKNNN5S19YACNVCZX","","","null","","","","","","","",""
"141.60000002384186","","image-keyboard-response","290","205187","0.0-219.0","3DR23U6WE60BLQTW4OR7USTIKTWTE2","A337Y4X67PY4QI","33Q5P9PUSP8QOKKNNN5S19YACNVCZX","","img/set1/S2.jpg","74","2","structured_incentive","68","false","structured_incentive,structured_normal,random","1,2,2,3","",""
"null","","html-keyboard-response","291","205544","0.0-220.0","3DR23U6WE60BLQTW4OR7USTIKTWTE2","A337Y4X67PY4QI","33Q5P9PUSP8QOKKNNN5S19YACNVCZX","","<img src=""img/set1/S2.jpg"" width=""540"" height = ""360"">","null","","","","","","","",""
"null","","html-keyboard-response","292","205550","0.0-221.0","3DR23U6WE60BLQTW4OR7USTIKTWTE2","A337Y4X67PY4QI","33Q5P9PUSP8QOKKNNN5S19YACNVCZX","","","null","","","","","","","",""
"336.89999997615814","","image-keyboard-response","293","205891","0.0-222.0","3DR23U6WE60BLQTW4OR7USTIKTWTE2","A337Y4X67PY4QI","33Q5P9PUSP8QOKKNNN5S19YACNVCZX","","img/set1/S4.jpg","74","4","structured_incentive","74","true","structured_incentive,structured_normal,random","1,2,2,3","",""
"null","","html-keyboard-response","294","206247","0.0-223.0","3DR23U6WE60BLQTW4OR7USTIKTWTE2","A337Y4X67PY4QI","33Q5P9PUSP8QOKKNNN5S19YACNVCZX","","<img src=""img/set1/S4.jpg"" width=""540"" height = ""360"" style=""border:16px solid orange"">","null","","","","","","","",""
"null","","html-keyboard-response","295","206253","0.0-224.0","3DR23U6WE60BLQTW4OR7USTIKTWTE2","A337Y4X67PY4QI","33Q5P9PUSP8QOKKNNN5S19YACNVCZX","","","null","","","","","","","",""
"23.599999964237213","","image-keyboard-response","296","206281","0.0-225.0","3DR23U6WE60BLQTW4OR7USTIKTWTE2","A337Y4X67PY4QI","33Q5P9PUSP8QOKKNNN5S19YACNVCZX","","img/set1/S4.jpg","74","4","structured_incentive","74","true","structured_incentive,structured_normal,random","1,2,2,3","",""
"null","","html-keyboard-response","297","206638","0.0-226.0","3DR23U6WE60BLQTW4OR7USTIKTWTE2","A337Y4X67PY4QI","33Q5P9PUSP8QOKKNNN5S19YACNVCZX","","<img src=""img/set1/S4.jpg"" width=""540"" height = ""360"" style=""border:16px solid orange"">","null","","","","","","","",""
"null","","html-keyboard-response","298","206646","0.0-227.0","3DR23U6WE60BLQTW4OR7USTIKTWTE2","A337Y4X67PY4QI","33Q5P9PUSP8QOKKNNN5S19YACNVCZX","","","null","","","","","","","",""
"17","","image-keyboard-response","299","206667","0.0-228.0","3DR23U6WE60BLQTW4OR7USTIKTWTE2","A337Y4X67PY4QI","33Q5P9PUSP8QOKKNNN5S19YACNVCZX","","img/set1/S2.jpg","74","2","structured_incentive","68","false","structured_incentive,structured_normal,random","1,2,2,3","",""
"null","","html-keyboard-response","300","207025","0.0-229.0","3DR23U6WE60BLQTW4OR7USTIKTWTE2","A337Y4X67PY4QI","33Q5P9PUSP8QOKKNNN5S19YACNVCZX","","<img src=""img/set1/S2.jpg"" width=""540"" height = ""360"">","null","","","","","","","",""
"null","","html-keyboard-response","301","207031","0.0-230.0","3DR23U6WE60BLQTW4OR7USTIKTWTE2","A337Y4X67PY4QI","33Q5P9PUSP8QOKKNNN5S19YACNVCZX","","","null","","","","","","","",""
"1813.300000011921","","image-keyboard-response","302","208849","0.0-231.0","3DR23U6WE60BLQTW4OR7USTIKTWTE2","A337Y4X67PY4QI","33Q5P9PUSP8QOKKNNN5S19YACNVCZX","","img/set1/S4.jpg","83","4","structured_incentive","74","false","structured_incentive,structured_normal,random","1,2,2,3","",""
"null","","html-keyboard-response","303","209205","0.0-232.0","3DR23U6WE60BLQTW4OR7USTIKTWTE2","A337Y4X67PY4QI","33Q5P9PUSP8QOKKNNN5S19YACNVCZX","","<img src=""img/set1/S4.jpg"" width=""540"" height = ""360"">","null","","","","","","","",""
"null","","html-keyboard-response","304","209210","0.0-233.0","3DR23U6WE60BLQTW4OR7USTIKTWTE2","A337Y4X67PY4QI","33Q5P9PUSP8QOKKNNN5S19YACNVCZX","","","null","","","","","","","",""
"80.30000001192093","","image-keyboard-response","305","209294","0.0-234.0","3DR23U6WE60BLQTW4OR7USTIKTWTE2","A337Y4X67PY4QI","33Q5P9PUSP8QOKKNNN5S19YACNVCZX","","img/set1/S4.jpg","83","4","structured_incentive","74","false","structured_incentive,structured_normal,random","1,2,2,3","",""
"null","","html-keyboard-response","306","209651","0.0-235.0","3DR23U6WE60BLQTW4OR7USTIKTWTE2","A337Y4X67PY4QI","33Q5P9PUSP8QOKKNNN5S19YACNVCZX","","<img src=""img/set1/S4.jpg"" width=""540"" height = ""360"">","null","","","","","","","",""
"null","","html-keyboard-response","307","209660","0.0-236.0","3DR23U6WE60BLQTW4OR7USTIKTWTE2","A337Y4X67PY4QI","33Q5P9PUSP8QOKKNNN5S19YACNVCZX","","","null","","","","","","","",""
"10","","image-keyboard-response","308","209673","0.0-237.0","3DR23U6WE60BLQTW4OR7USTIKTWTE2","A337Y4X67PY4QI","33Q5P9PUSP8QOKKNNN5S19YACNVCZX","","img/set1/S1.jpg","83","1","structured_incentive","83","true","structured_incentive,structured_normal,random","1,2,2,3","",""
"null","","html-keyboard-response","309","210027","0.0-238.0","3DR23U6WE60BLQTW4OR7USTIKTWTE2","A337Y4X67PY4QI","33Q5P9PUSP8QOKKNNN5S19YACNVCZX","","<img src=""img/set1/S1.jpg"" width=""540"" height = ""360"" style=""border:16px solid orange"">","null","","","","","","","",""
"null","","html-keyboard-response","310","210033","0.0-239.0","3DR23U6WE60BLQTW4OR7USTIKTWTE2","A337Y4X67PY4QI","33Q5P9PUSP8QOKKNNN5S19YACNVCZX","","","null","","","","","","","",""
"435.4000000357628","","image-keyboard-response","311","210474","0.0-240.0","3DR23U6WE60BLQTW4OR7USTIKTWTE2","A337Y4X67PY4QI","33Q5P9PUSP8QOKKNNN5S19YACNVCZX","","img/set1/S2.jpg","68","2","structured_incentive","68","true","structured_incentive,structured_normal,random","1,2,2,3","",""
"null","","html-keyboard-response","312","210833","0.0-241.0","3DR23U6WE60BLQTW4OR7USTIKTWTE2","A337Y4X67PY4QI","33Q5P9PUSP8QOKKNNN5S19YACNVCZX","","<img src=""img/set1/S2.jpg"" width=""540"" height = ""360"" style=""border:16px solid orange"">","null","","","","","","","",""
"null","","html-keyboard-response","313","210841","0.0-242.0","3DR23U6WE60BLQTW4OR7USTIKTWTE2","A337Y4X67PY4QI","33Q5P9PUSP8QOKKNNN5S19YACNVCZX","","","null","","","","","","","",""
"268.5","","image-keyboard-response","314","211115","0.0-243.0","3DR23U6WE60BLQTW4OR7USTIKTWTE2","A337Y4X67PY4QI","33Q5P9PUSP8QOKKNNN5S19YACNVCZX","","img/set1/S4.jpg","68","4","structured_incentive","74","false","structured_incentive,structured_normal,random","1,2,2,3","",""
"null","","html-keyboard-response","315","211472","0.0-244.0","3DR23U6WE60BLQTW4OR7USTIKTWTE2","A337Y4X67PY4QI","33Q5P9PUSP8QOKKNNN5S19YACNVCZX","","<img src=""img/set1/S4.jpg"" width=""540"" height = ""360"">","null","","","","","","","",""
"null","","html-keyboard-response","316","211476","0.0-245.0","3DR23U6WE60BLQTW4OR7USTIKTWTE2","A337Y4X67PY4QI","33Q5P9PUSP8QOKKNNN5S19YACNVCZX","","","null","","","","","","","",""
"8.899999976158142","","image-keyboard-response","317","211491","0.0-246.0","3DR23U6WE60BLQTW4OR7USTIKTWTE2","A337Y4X67PY4QI","33Q5P9PUSP8QOKKNNN5S19YACNVCZX","","img/set1/S1.jpg","83","1","structured_incentive","83","true","structured_incentive,structured_normal,random","1,2,2,3","",""
"null","","html-keyboard-response","318","211847","0.0-247.0","3DR23U6WE60BLQTW4OR7USTIKTWTE2","A337Y4X67PY4QI","33Q5P9PUSP8QOKKNNN5S19YACNVCZX","","<img src=""img/set1/S1.jpg"" width=""540"" height = ""360"" style=""border:16px solid orange"">","null","","","","","","","",""
"null","","html-keyboard-response","319","211853","0.0-248.0","3DR23U6WE60BLQTW4OR7USTIKTWTE2","A337Y4X67PY4QI","33Q5P9PUSP8QOKKNNN5S19YACNVCZX","","","null","","","","","","","",""
"99.5","","image-keyboard-response","320","211958","0.0-249.0","3DR23U6WE60BLQTW4OR7USTIKTWTE2","A337Y4X67PY4QI","33Q5P9PUSP8QOKKNNN5S19YACNVCZX","","img/set1/S3.jpg","83","3","structured_incentive","72","false","structured_incentive,structured_normal,random","1,2,2,3","",""
"null","","html-keyboard-response","321","212313","0.0-250.0","3DR23U6WE60BLQTW4OR7USTIKTWTE2","A337Y4X67PY4QI","33Q5P9PUSP8QOKKNNN5S19YACNVCZX","","<img src=""img/set1/S3.jpg"" width=""540"" height = ""360"">","null","","","","","","","",""
"null","","html-keyboard-response","322","212323","0.0-251.0","3DR23U6WE60BLQTW4OR7USTIKTWTE2","A337Y4X67PY4QI","33Q5P9PUSP8QOKKNNN5S19YACNVCZX","","","null","","","","","","","",""
"351.69999998807907","","image-keyboard-response","323","212681","0.0-252.0","3DR23U6WE60BLQTW4OR7USTIKTWTE2","A337Y4X67PY4QI","33Q5P9PUSP8QOKKNNN5S19YACNVCZX","","img/set1/S1.jpg","83","1","structured_incentive","83","true","structured_incentive,structured_normal,random","1,2,2,3","",""
"null","","html-keyboard-response","324","213036","0.0-253.0","3DR23U6WE60BLQTW4OR7USTIKTWTE2","A337Y4X67PY4QI","33Q5P9PUSP8QOKKNNN5S19YACNVCZX","","<img src=""img/set1/S1.jpg"" width=""540"" height = ""360"" style=""border:16px solid orange"">","null","","","","","","","",""
"null","","html-keyboard-response","325","213042","0.0-254.0","3DR23U6WE60BLQTW4OR7USTIKTWTE2","A337Y4X67PY4QI","33Q5P9PUSP8QOKKNNN5S19YACNVCZX","","","null","","","","","","","",""
"126.40000003576279","","image-keyboard-response","326","213173","0.0-255.0","3DR23U6WE60BLQTW4OR7USTIKTWTE2","A337Y4X67PY4QI","33Q5P9PUSP8QOKKNNN5S19YACNVCZX","","img/set1/S2.jpg","83","2","structured_incentive","68","false","structured_incentive,structured_normal,random","1,2,2,3","",""
"null","","html-keyboard-response","327","213529","0.0-256.0","3DR23U6WE60BLQTW4OR7USTIKTWTE2","A337Y4X67PY4QI","33Q5P9PUSP8QOKKNNN5S19YACNVCZX","","<img src=""img/set1/S2.jpg"" width=""540"" height = ""360"">","null","","","","","","","",""
"null","","html-keyboard-response","328","213534","0.0-257.0","3DR23U6WE60BLQTW4OR7USTIKTWTE2","A337Y4X67PY4QI","33Q5P9PUSP8QOKKNNN5S19YACNVCZX","","","null","","","","","","","",""
"157.5","","image-keyboard-response","329","213695","0.0-258.0","3DR23U6WE60BLQTW4OR7USTIKTWTE2","A337Y4X67PY4QI","33Q5P9PUSP8QOKKNNN5S19YACNVCZX","","img/set1/S3.jpg","83","3","structured_incentive","72","false","structured_incentive,structured_normal,random","1,2,2,3","",""
"null","","html-keyboard-response","330","214051","0.0-259.0","3DR23U6WE60BLQTW4OR7USTIKTWTE2","A337Y4X67PY4QI","33Q5P9PUSP8QOKKNNN5S19YACNVCZX","","<img src=""img/set1/S3.jpg"" width=""540"" height = ""360"">","null","","","","","","","",""
"null","","html-keyboard-response","331","214059","0.0-260.0","3DR23U6WE60BLQTW4OR7USTIKTWTE2","A337Y4X67PY4QI","33Q5P9PUSP8QOKKNNN5S19YACNVCZX","","","null","","","","","","","",""
"209.39999997615814","","image-keyboard-response","332","214272","0.0-261.0","3DR23U6WE60BLQTW4OR7USTIKTWTE2","A337Y4X67PY4QI","33Q5P9PUSP8QOKKNNN5S19YACNVCZX","","img/set1/S3.jpg","68","3","structured_incentive","72","false","structured_incentive,structured_normal,random","1,2,2,3","",""
"null","","html-keyboard-response","333","214628","0.0-262.0","3DR23U6WE60BLQTW4OR7USTIKTWTE2","A337Y4X67PY4QI","33Q5P9PUSP8QOKKNNN5S19YACNVCZX","","<img src=""img/set1/S3.jpg"" width=""540"" height = ""360"">","null","","","","","","","",""
"null","","html-keyboard-response","334","214639","0.0-263.0","3DR23U6WE60BLQTW4OR7USTIKTWTE2","A337Y4X67PY4QI","33Q5P9PUSP8QOKKNNN5S19YACNVCZX","","","null","","","","","","","",""
"109.90000003576279","","image-keyboard-response","335","214752","0.0-264.0","3DR23U6WE60BLQTW4OR7USTIKTWTE2","A337Y4X67PY4QI","33Q5P9PUSP8QOKKNNN5S19YACNVCZX","","img/set1/S2.jpg","74","2","structured_incentive","68","false","structured_incentive,structured_normal,random","1,2,2,3","",""
"null","","html-keyboard-response","336","215107","0.0-265.0","3DR23U6WE60BLQTW4OR7USTIKTWTE2","A337Y4X67PY4QI","33Q5P9PUSP8QOKKNNN5S19YACNVCZX","","<img src=""img/set1/S2.jpg"" width=""540"" height = ""360"">","null","","","","","","","",""
"null","","html-keyboard-response","337","215112","0.0-266.0","3DR23U6WE60BLQTW4OR7USTIKTWTE2","A337Y4X67PY4QI","33Q5P9PUSP8QOKKNNN5S19YACNVCZX","","","null","","","","","","","",""
"905.8000000119209","","image-keyboard-response","338","216024","0.0-267.0","3DR23U6WE60BLQTW4OR7USTIKTWTE2","A337Y4X67PY4QI","33Q5P9PUSP8QOKKNNN5S19YACNVCZX","","img/set1/S4.jpg","74","4","structured_incentive","74","true","structured_incentive,structured_normal,random","1,2,2,3","",""
"null","","html-keyboard-response","339","216380","0.0-268.0","3DR23U6WE60BLQTW4OR7USTIKTWTE2","A337Y4X67PY4QI","33Q5P9PUSP8QOKKNNN5S19YACNVCZX","","<img src=""img/set1/S4.jpg"" width=""540"" height = ""360"" style=""border:16px solid orange"">","null","","","","","","","",""
"null","","html-keyboard-response","340","216385","0.0-269.0","3DR23U6WE60BLQTW4OR7USTIKTWTE2","A337Y4X67PY4QI","33Q5P9PUSP8QOKKNNN5S19YACNVCZX","","","null","","","","","","","",""
"391.39999997615814","","image-keyboard-response","341","216781","0.0-270.0","3DR23U6WE60BLQTW4OR7USTIKTWTE2","A337Y4X67PY4QI","33Q5P9PUSP8QOKKNNN5S19YACNVCZX","","img/set1/S3.jpg","74","3","structured_incentive","72","false","structured_incentive,structured_normal,random","1,2,2,3","",""
"null","","html-keyboard-response","342","217137","0.0-271.0","3DR23U6WE60BLQTW4OR7USTIKTWTE2","A337Y4X67PY4QI","33Q5P9PUSP8QOKKNNN5S19YACNVCZX","","<img src=""img/set1/S3.jpg"" width=""540"" height = ""360"">","null","","","","","","","",""
"null","","html-keyboard-response","343","217143","0.0-272.0","3DR23U6WE60BLQTW4OR7USTIKTWTE2","A337Y4X67PY4QI","33Q5P9PUSP8QOKKNNN5S19YACNVCZX","","","null","","","","","","","",""
"495.5","","image-keyboard-response","344","217645","0.0-273.0","3DR23U6WE60BLQTW4OR7USTIKTWTE2","A337Y4X67PY4QI","33Q5P9PUSP8QOKKNNN5S19YACNVCZX","","img/set1/S3.jpg","83","3","structured_incentive","72","false","structured_incentive,structured_normal,random","1,2,2,3","",""
"null","","html-keyboard-response","345","218002","0.0-274.0","3DR23U6WE60BLQTW4OR7USTIKTWTE2","A337Y4X67PY4QI","33Q5P9PUSP8QOKKNNN5S19YACNVCZX","","<img src=""img/set1/S3.jpg"" width=""540"" height = ""360"">","null","","","","","","","",""
"null","","html-keyboard-response","346","218011","0.0-275.0","3DR23U6WE60BLQTW4OR7USTIKTWTE2","A337Y4X67PY4QI","33Q5P9PUSP8QOKKNNN5S19YACNVCZX","","","null","","","","","","","",""
"277.30000001192093","","image-keyboard-response","347","218294","0.0-276.0","3DR23U6WE60BLQTW4OR7USTIKTWTE2","A337Y4X67PY4QI","33Q5P9PUSP8QOKKNNN5S19YACNVCZX","","img/set1/S1.jpg","68","1","structured_incentive","83","false","structured_incentive,structured_normal,random","1,2,2,3","",""
"null","","html-keyboard-response","348","218653","0.0-277.0","3DR23U6WE60BLQTW4OR7USTIKTWTE2","A337Y4X67PY4QI","33Q5P9PUSP8QOKKNNN5S19YACNVCZX","","<img src=""img/set1/S1.jpg"" width=""540"" height = ""360"">","null","","","","","","","",""
"null","","html-keyboard-response","349","218659","0.0-278.0","3DR23U6WE60BLQTW4OR7USTIKTWTE2","A337Y4X67PY4QI","33Q5P9PUSP8QOKKNNN5S19YACNVCZX","","","null","","","","","","","",""
"308.7999999523163","","image-keyboard-response","350","218974","0.0-279.0","3DR23U6WE60BLQTW4OR7USTIKTWTE2","A337Y4X67PY4QI","33Q5P9PUSP8QOKKNNN5S19YACNVCZX","","img/set1/S2.jpg","68","2","structured_incentive","68","true","structured_incentive,structured_normal,random","1,2,2,3","",""
"null","","html-keyboard-response","351","219330","0.0-280.0","3DR23U6WE60BLQTW4OR7USTIKTWTE2","A337Y4X67PY4QI","33Q5P9PUSP8QOKKNNN5S19YACNVCZX","","<img src=""img/set1/S2.jpg"" width=""540"" height = ""360"" style=""border:16px solid orange"">","null","","","","","","","",""
"null","","html-keyboard-response","352","219334","0.0-281.0","3DR23U6WE60BLQTW4OR7USTIKTWTE2","A337Y4X67PY4QI","33Q5P9PUSP8QOKKNNN5S19YACNVCZX","","","null","","","","","","","",""
"181.0999999642372","","image-keyboard-response","353","219519","0.0-282.0","3DR23U6WE60BLQTW4OR7USTIKTWTE2","A337Y4X67PY4QI","33Q5P9PUSP8QOKKNNN5S19YACNVCZX","","img/set1/S1.jpg","83","1","structured_incentive","83","true","structured_incentive,structured_normal,random","1,2,2,3","",""
"null","","html-keyboard-response","354","219874","0.0-283.0","3DR23U6WE60BLQTW4OR7USTIKTWTE2","A337Y4X67PY4QI","33Q5P9PUSP8QOKKNNN5S19YACNVCZX","","<img src=""img/set1/S1.jpg"" width=""540"" height = ""360"" style=""border:16px solid orange"">","null","","","","","","","",""
"null","","html-keyboard-response","355","219880","0.0-284.0","3DR23U6WE60BLQTW4OR7USTIKTWTE2","A337Y4X67PY4QI","33Q5P9PUSP8QOKKNNN5S19YACNVCZX","","","null","","","","","","","",""
"716.9000000357628","","image-keyboard-response","356","220601","0.0-285.0","3DR23U6WE60BLQTW4OR7USTIKTWTE2","A337Y4X67PY4QI","33Q5P9PUSP8QOKKNNN5S19YACNVCZX","","img/set1/S2.jpg","74","2","structured_incentive","68","false","structured_incentive,structured_normal,random","1,2,2,3","",""
"null","","html-keyboard-response","357","220958","0.0-286.0","3DR23U6WE60BLQTW4OR7USTIKTWTE2","A337Y4X67PY4QI","33Q5P9PUSP8QOKKNNN5S19YACNVCZX","","<img src=""img/set1/S2.jpg"" width=""540"" height = ""360"">","null","","","","","","","",""
"null","","html-keyboard-response","358","220967","0.0-287.0","3DR23U6WE60BLQTW4OR7USTIKTWTE2","A337Y4X67PY4QI","33Q5P9PUSP8QOKKNNN5S19YACNVCZX","","","null","","","","","","","",""
"129.0999999642372","","image-keyboard-response","359","221104","0.0-288.0","3DR23U6WE60BLQTW4OR7USTIKTWTE2","A337Y4X67PY4QI","33Q5P9PUSP8QOKKNNN5S19YACNVCZX","","img/set1/S4.jpg","74","4","structured_incentive","74","true","structured_incentive,structured_normal,random","1,2,2,3","",""
"null","","html-keyboard-response","360","221462","0.0-289.0","3DR23U6WE60BLQTW4OR7USTIKTWTE2","A337Y4X67PY4QI","33Q5P9PUSP8QOKKNNN5S19YACNVCZX","","<img src=""img/set1/S4.jpg"" width=""540"" height = ""360"" style=""border:16px solid orange"">","null","","","","","","","",""
"null","","html-keyboard-response","361","221470","0.0-290.0","3DR23U6WE60BLQTW4OR7USTIKTWTE2","A337Y4X67PY4QI","33Q5P9PUSP8QOKKNNN5S19YACNVCZX","","","null","","","","","","","",""
"655.5","","image-keyboard-response","362","222130","0.0-291.0","3DR23U6WE60BLQTW4OR7USTIKTWTE2","A337Y4X67PY4QI","33Q5P9PUSP8QOKKNNN5S19YACNVCZX","","img/set1/S1.jpg","68","1","structured_incentive","83","false","structured_incentive,structured_normal,random","1,2,2,3","",""
"null","","html-keyboard-response","363","222487","0.0-292.0","3DR23U6WE60BLQTW4OR7USTIKTWTE2","A337Y4X67PY4QI","33Q5P9PUSP8QOKKNNN5S19YACNVCZX","","<img src=""img/set1/S1.jpg"" width=""540"" height = ""360"">","null","","","","","","","",""
"null","","html-keyboard-response","364","222495","0.0-293.0","3DR23U6WE60BLQTW4OR7USTIKTWTE2","A337Y4X67PY4QI","33Q5P9PUSP8QOKKNNN5S19YACNVCZX","","","null","","","","","","","",""
"322.5","","image-keyboard-response","365","222822","0.0-294.0","3DR23U6WE60BLQTW4OR7USTIKTWTE2","A337Y4X67PY4QI","33Q5P9PUSP8QOKKNNN5S19YACNVCZX","","img/set1/S2.jpg","83","2","structured_incentive","68","false","structured_incentive,structured_normal,random","1,2,2,3","",""
"null","","html-keyboard-response","366","223176","0.0-295.0","3DR23U6WE60BLQTW4OR7USTIKTWTE2","A337Y4X67PY4QI","33Q5P9PUSP8QOKKNNN5S19YACNVCZX","","<img src=""img/set1/S2.jpg"" width=""540"" height = ""360"">","null","","","","","","","",""
"null","","html-keyboard-response","367","223184","0.0-296.0","3DR23U6WE60BLQTW4OR7USTIKTWTE2","A337Y4X67PY4QI","33Q5P9PUSP8QOKKNNN5S19YACNVCZX","","","null","","","","","","","",""
"58.5","","image-keyboard-response","368","223247","0.0-297.0","3DR23U6WE60BLQTW4OR7USTIKTWTE2","A337Y4X67PY4QI","33Q5P9PUSP8QOKKNNN5S19YACNVCZX","","img/set1/S4.jpg","74","4","structured_incentive","74","true","structured_incentive,structured_normal,random","1,2,2,3","",""
"null","","html-keyboard-response","369","223602","0.0-298.0","3DR23U6WE60BLQTW4OR7USTIKTWTE2","A337Y4X67PY4QI","33Q5P9PUSP8QOKKNNN5S19YACNVCZX","","<img src=""img/set1/S4.jpg"" width=""540"" height = ""360"" style=""border:16px solid orange"">","null","","","","","","","",""
"null","","html-keyboard-response","370","223614","0.0-299.0","3DR23U6WE60BLQTW4OR7USTIKTWTE2","A337Y4X67PY4QI","33Q5P9PUSP8QOKKNNN5S19YACNVCZX","","","null","","","","","","","",""
"580.1999999880791","","image-keyboard-response","371","224202","0.0-300.0","3DR23U6WE60BLQTW4OR7USTIKTWTE2","A337Y4X67PY4QI","33Q5P9PUSP8QOKKNNN5S19YACNVCZX","","img/set1/S3.jpg","68","3","structured_incentive","72","false","structured_incentive,structured_normal,random","1,2,2,3","",""
"null","","html-keyboard-response","372","224558","0.0-301.0","3DR23U6WE60BLQTW4OR7USTIKTWTE2","A337Y4X67PY4QI","33Q5P9PUSP8QOKKNNN5S19YACNVCZX","","<img src=""img/set1/S3.jpg"" width=""540"" height = ""360"">","null","","","","","","","",""
"null","","html-keyboard-response","373","224565","0.0-302.0","3DR23U6WE60BLQTW4OR7USTIKTWTE2","A337Y4X67PY4QI","33Q5P9PUSP8QOKKNNN5S19YACNVCZX","","","null","","","","","","","",""
"186.10000002384186","","image-keyboard-response","374","224756","0.0-303.0","3DR23U6WE60BLQTW4OR7USTIKTWTE2","A337Y4X67PY4QI","33Q5P9PUSP8QOKKNNN5S19YACNVCZX","","img/set1/S4.jpg","74","4","structured_incentive","74","true","structured_incentive,structured_normal,random","1,2,2,3","",""
"null","","html-keyboard-response","375","225115","0.0-304.0","3DR23U6WE60BLQTW4OR7USTIKTWTE2","A337Y4X67PY4QI","33Q5P9PUSP8QOKKNNN5S19YACNVCZX","","<img src=""img/set1/S4.jpg"" width=""540"" height = ""360"" style=""border:16px solid orange"">","null","","","","","","","",""
"null","","html-keyboard-response","376","225127","0.0-305.0","3DR23U6WE60BLQTW4OR7USTIKTWTE2","A337Y4X67PY4QI","33Q5P9PUSP8QOKKNNN5S19YACNVCZX","","","null","","","","","","","",""
"146.19999998807907","","image-keyboard-response","377","225279","0.0-306.0","3DR23U6WE60BLQTW4OR7USTIKTWTE2","A337Y4X67PY4QI","33Q5P9PUSP8QOKKNNN5S19YACNVCZX","","img/set1/S4.jpg","83","4","structured_incentive","74","false","structured_incentive,structured_normal,random","1,2,2,3","",""
"null","","html-keyboard-response","378","225634","0.0-307.0","3DR23U6WE60BLQTW4OR7USTIKTWTE2","A337Y4X67PY4QI","33Q5P9PUSP8QOKKNNN5S19YACNVCZX","","<img src=""img/set1/S4.jpg"" width=""540"" height = ""360"">","null","","","","","","","",""
"null","","html-keyboard-response","379","225648","0.0-308.0","3DR23U6WE60BLQTW4OR7USTIKTWTE2","A337Y4X67PY4QI","33Q5P9PUSP8QOKKNNN5S19YACNVCZX","","","null","","","","","","","",""
"634.5999999642372","","image-keyboard-response","380","226292","0.0-309.0","3DR23U6WE60BLQTW4OR7USTIKTWTE2","A337Y4X67PY4QI","33Q5P9PUSP8QOKKNNN5S19YACNVCZX","","img/set1/S4.jpg","68","4","structured_incentive","74","false","structured_incentive,structured_normal,random","1,2,2,3","",""
"null","","html-keyboard-response","381","226649","0.0-310.0","3DR23U6WE60BLQTW4OR7USTIKTWTE2","A337Y4X67PY4QI","33Q5P9PUSP8QOKKNNN5S19YACNVCZX","","<img src=""img/set1/S4.jpg"" width=""540"" height = ""360"">","null","","","","","","","",""
"null","","html-keyboard-response","382","226653","0.0-311.0","3DR23U6WE60BLQTW4OR7USTIKTWTE2","A337Y4X67PY4QI","33Q5P9PUSP8QOKKNNN5S19YACNVCZX","","","null","","","","","","","",""
"76.69999998807907","","image-keyboard-response","383","226733","0.0-312.0","3DR23U6WE60BLQTW4OR7USTIKTWTE2","A337Y4X67PY4QI","33Q5P9PUSP8QOKKNNN5S19YACNVCZX","","img/set1/S3.jpg","74","3","structured_incentive","72","false","structured_incentive,structured_normal,random","1,2,2,3","",""
"null","","html-keyboard-response","384","227088","0.0-313.0","3DR23U6WE60BLQTW4OR7USTIKTWTE2","A337Y4X67PY4QI","33Q5P9PUSP8QOKKNNN5S19YACNVCZX","","<img src=""img/set1/S3.jpg"" width=""540"" height = ""360"">","null","","","","","","","",""
"null","","html-keyboard-response","385","227092","0.0-314.0","3DR23U6WE60BLQTW4OR7USTIKTWTE2","A337Y4X67PY4QI","33Q5P9PUSP8QOKKNNN5S19YACNVCZX","","","null","","","","","","","",""
"26.700000047683716","","image-keyboard-response","386","227122","0.0-315.0","3DR23U6WE60BLQTW4OR7USTIKTWTE2","A337Y4X67PY4QI","33Q5P9PUSP8QOKKNNN5S19YACNVCZX","","img/set1/S1.jpg","83","1","structured_incentive","83","true","structured_incentive,structured_normal,random","1,2,2,3","",""
"null","","html-keyboard-response","387","227477","0.0-316.0","3DR23U6WE60BLQTW4OR7USTIKTWTE2","A337Y4X67PY4QI","33Q5P9PUSP8QOKKNNN5S19YACNVCZX","","<img src=""img/set1/S1.jpg"" width=""540"" height = ""360"" style=""border:16px solid orange"">","null","","","","","","","",""
"null","","html-keyboard-response","388","227489","0.0-317.0","3DR23U6WE60BLQTW4OR7USTIKTWTE2","A337Y4X67PY4QI","33Q5P9PUSP8QOKKNNN5S19YACNVCZX","","","null","","","","","","","",""
"101.69999998807907","","image-keyboard-response","389","227608","0.0-318.0","3DR23U6WE60BLQTW4OR7USTIKTWTE2","A337Y4X67PY4QI","33Q5P9PUSP8QOKKNNN5S19YACNVCZX","","img/set1/S2.jpg","68","2","structured_incentive","68","true","structured_incentive,structured_normal,random","1,2,2,3","",""
"null","","html-keyboard-response","390","227964","0.0-319.0","3DR23U6WE60BLQTW4OR7USTIKTWTE2","A337Y4X67PY4QI","33Q5P9PUSP8QOKKNNN5S19YACNVCZX","","<img src=""img/set1/S2.jpg"" width=""540"" height = ""360"" style=""border:16px solid orange"">","null","","","","","","","",""
"null","","html-keyboard-response","391","227972","0.0-320.0","3DR23U6WE60BLQTW4OR7USTIKTWTE2","A337Y4X67PY4QI","33Q5P9PUSP8QOKKNNN5S19YACNVCZX","","","null","","","","","","","",""
"432","","image-keyboard-response","392","228408","0.0-321.0","3DR23U6WE60BLQTW4OR7USTIKTWTE2","A337Y4X67PY4QI","33Q5P9PUSP8QOKKNNN5S19YACNVCZX","","img/set1/S4.jpg","68","4","structured_incentive","74","false","structured_incentive,structured_normal,random","1,2,2,3","",""
"null","","html-keyboard-response","393","228764","0.0-322.0","3DR23U6WE60BLQTW4OR7USTIKTWTE2","A337Y4X67PY4QI","33Q5P9PUSP8QOKKNNN5S19YACNVCZX","","<img src=""img/set1/S4.jpg"" width=""540"" height = ""360"">","null","","","","","","","",""
"null","","html-keyboard-response","394","228771","0.0-323.0","3DR23U6WE60BLQTW4OR7USTIKTWTE2","A337Y4X67PY4QI","33Q5P9PUSP8QOKKNNN5S19YACNVCZX","","","null","","","","","","","",""
"68.59999996423721","","image-keyboard-response","395","228844","0.0-324.0","3DR23U6WE60BLQTW4OR7USTIKTWTE2","A337Y4X67PY4QI","33Q5P9PUSP8QOKKNNN5S19YACNVCZX","","img/set1/S1.jpg","83","1","structured_incentive","83","true","structured_incentive,structured_normal,random","1,2,2,3","",""
"null","","html-keyboard-response","396","229200","0.0-325.0","3DR23U6WE60BLQTW4OR7USTIKTWTE2","A337Y4X67PY4QI","33Q5P9PUSP8QOKKNNN5S19YACNVCZX","","<img src=""img/set1/S1.jpg"" width=""540"" height = ""360"" style=""border:16px solid orange"">","null","","","","","","","",""
"null","","html-keyboard-response","397","229219","0.0-326.0","3DR23U6WE60BLQTW4OR7USTIKTWTE2","A337Y4X67PY4QI","33Q5P9PUSP8QOKKNNN5S19YACNVCZX","","","null","","","","","","","",""
"191.30000001192093","","image-keyboard-response","398","229414","0.0-327.0","3DR23U6WE60BLQTW4OR7USTIKTWTE2","A337Y4X67PY4QI","33Q5P9PUSP8QOKKNNN5S19YACNVCZX","","img/set1/S2.jpg","68","2","structured_incentive","68","true","structured_incentive,structured_normal,random","1,2,2,3","",""
"null","","html-keyboard-response","399","229769","0.0-328.0","3DR23U6WE60BLQTW4OR7USTIKTWTE2","A337Y4X67PY4QI","33Q5P9PUSP8QOKKNNN5S19YACNVCZX","","<img src=""img/set1/S2.jpg"" width=""540"" height = ""360"" style=""border:16px solid orange"">","null","","","","","","","",""
"null","","html-keyboard-response","400","229775","0.0-329.0","3DR23U6WE60BLQTW4OR7USTIKTWTE2","A337Y4X67PY4QI","33Q5P9PUSP8QOKKNNN5S19YACNVCZX","","","null","","","","","","","",""
"44","","image-keyboard-response","401","229824","0.0-330.0","3DR23U6WE60BLQTW4OR7USTIKTWTE2","A337Y4X67PY4QI","33Q5P9PUSP8QOKKNNN5S19YACNVCZX","","img/set1/S4.jpg","83","4","structured_incentive","74","false","structured_incentive,structured_normal,random","1,2,2,3","",""
"null","","html-keyboard-response","402","230179","0.0-331.0","3DR23U6WE60BLQTW4OR7USTIKTWTE2","A337Y4X67PY4QI","33Q5P9PUSP8QOKKNNN5S19YACNVCZX","","<img src=""img/set1/S4.jpg"" width=""540"" height = ""360"">","null","","","","","","","",""
"null","","html-keyboard-response","403","230185","0.0-332.0","3DR23U6WE60BLQTW4OR7USTIKTWTE2","A337Y4X67PY4QI","33Q5P9PUSP8QOKKNNN5S19YACNVCZX","","","null","","","","","","","",""
"120.5","","image-keyboard-response","404","230309","0.0-333.0","3DR23U6WE60BLQTW4OR7USTIKTWTE2","A337Y4X67PY4QI","33Q5P9PUSP8QOKKNNN5S19YACNVCZX","","img/set1/S4.jpg","68","4","structured_incentive","74","false","structured_incentive,structured_normal,random","1,2,2,3","",""
"null","","html-keyboard-response","405","230664","0.0-334.0","3DR23U6WE60BLQTW4OR7USTIKTWTE2","A337Y4X67PY4QI","33Q5P9PUSP8QOKKNNN5S19YACNVCZX","","<img src=""img/set1/S4.jpg"" width=""540"" height = ""360"">","null","","","","","","","",""
"null","","html-keyboard-response","406","230676","0.0-335.0","3DR23U6WE60BLQTW4OR7USTIKTWTE2","A337Y4X67PY4QI","33Q5P9PUSP8QOKKNNN5S19YACNVCZX","","","null","","","","","","","",""
"187.69999998807907","","image-keyboard-response","407","230868","0.0-336.0","3DR23U6WE60BLQTW4OR7USTIKTWTE2","A337Y4X67PY4QI","33Q5P9PUSP8QOKKNNN5S19YACNVCZX","","img/set1/S1.jpg","83","1","structured_incentive","83","true","structured_incentive,structured_normal,random","1,2,2,3","",""
"null","","html-keyboard-response","408","231223","0.0-337.0","3DR23U6WE60BLQTW4OR7USTIKTWTE2","A337Y4X67PY4QI","33Q5P9PUSP8QOKKNNN5S19YACNVCZX","","<img src=""img/set1/S1.jpg"" width=""540"" height = ""360"" style=""border:16px solid orange"">","null","","","","","","","",""
"null","","html-keyboard-response","409","231227","0.0-338.0","3DR23U6WE60BLQTW4OR7USTIKTWTE2","A337Y4X67PY4QI","33Q5P9PUSP8QOKKNNN5S19YACNVCZX","","","null","","","","","","","",""
"411.5","","image-keyboard-response","410","231645","0.0-339.0","3DR23U6WE60BLQTW4OR7USTIKTWTE2","A337Y4X67PY4QI","33Q5P9PUSP8QOKKNNN5S19YACNVCZX","","img/set1/S2.jpg","68","2","structured_incentive","68","true","structured_incentive,structured_normal,random","1,2,2,3","",""
"null","","html-keyboard-response","411","232001","0.0-340.0","3DR23U6WE60BLQTW4OR7USTIKTWTE2","A337Y4X67PY4QI","33Q5P9PUSP8QOKKNNN5S19YACNVCZX","","<img src=""img/set1/S2.jpg"" width=""540"" height = ""360"" style=""border:16px solid orange"">","null","","","","","","","",""
"null","","html-keyboard-response","412","232008","0.0-341.0","3DR23U6WE60BLQTW4OR7USTIKTWTE2","A337Y4X67PY4QI","33Q5P9PUSP8QOKKNNN5S19YACNVCZX","","","null","","","","","","","",""
"50.80000001192093","","image-keyboard-response","413","232063","0.0-342.0","3DR23U6WE60BLQTW4OR7USTIKTWTE2","A337Y4X67PY4QI","33Q5P9PUSP8QOKKNNN5S19YACNVCZX","","img/set1/S4.jpg","83","4","structured_incentive","74","false","structured_incentive,structured_normal,random","1,2,2,3","",""
"null","","html-keyboard-response","414","232420","0.0-343.0","3DR23U6WE60BLQTW4OR7USTIKTWTE2","A337Y4X67PY4QI","33Q5P9PUSP8QOKKNNN5S19YACNVCZX","","<img src=""img/set1/S4.jpg"" width=""540"" height = ""360"">","null","","","","","","","",""
"null","","html-keyboard-response","415","232429","0.0-344.0","3DR23U6WE60BLQTW4OR7USTIKTWTE2","A337Y4X67PY4QI","33Q5P9PUSP8QOKKNNN5S19YACNVCZX","","","null","","","","","","","",""
"121.80000001192093","","image-keyboard-response","416","232555","0.0-345.0","3DR23U6WE60BLQTW4OR7USTIKTWTE2","A337Y4X67PY4QI","33Q5P9PUSP8QOKKNNN5S19YACNVCZX","","img/set1/S1.jpg","68","1","structured_incentive","83","false","structured_incentive,structured_normal,random","1,2,2,3","",""
"null","","html-keyboard-response","417","232910","0.0-346.0","3DR23U6WE60BLQTW4OR7USTIKTWTE2","A337Y4X67PY4QI","33Q5P9PUSP8QOKKNNN5S19YACNVCZX","","<img src=""img/set1/S1.jpg"" width=""540"" height = ""360"">","null","","","","","","","",""
