"rt","url","trial_type","trial_index","time_elapsed","internal_node_id","assignmentID","mturkID","hitID","view_history","stimulus","key_press","state","test_part","correct_response","correct","order_block","order_chunk","bonus","responses"
"4552.89999961853","consent.html","external-html","0","5282","0.0-0.0","3B1NLC6UG0IBDCWGT28BPLDX87LPG7","A34SUZWGLXIWM8","33Q5P9PUSP8QOKKNNN5S19YACNVCZX","","","","","","","","","","",""
"101796.19999980927","","instructions","1","107079","0.0-1.0","3B1NLC6UG0IBDCWGT28BPLDX87LPG7","A34SUZWGLXIWM8","33Q5P9PUSP8QOKKNNN5S19YACNVCZX","[{""page_index"":0,""viewing_time"":22227.699999809265},{""page_index"":1,""viewing_time"":12520.599999904633},{""page_index"":2,""viewing_time"":10455.700000286102},{""page_index"":3,""viewing_time"":20240},{""page_index"":4,""viewing_time"":9096},{""page_index"":5,""viewing_time"":11264.199999809265},{""page_index"":6,""viewing_time"":6807.5},{""page_index"":7,""viewing_time"":9183.900000095367}]","","","","","","","","","",""
"1214.2999997138977","","image-keyboard-response","2","108294","0.0-2.0-0.0","3B1NLC6UG0IBDCWGT28BPLDX87LPG7","A34SUZWGLXIWM8","33Q5P9PUSP8QOKKNNN5S19YACNVCZX","","img/practice/S3.jpg","83","3","practice","72","false","","","",""
"null","","html-keyboard-response","3","108597","0.0-2.0-1.0","3B1NLC6UG0IBDCWGT28BPLDX87LPG7","A34SUZWGLXIWM8","33Q5P9PUSP8QOKKNNN5S19YACNVCZX","","<img src=""img/practice/S3.jpg"" width=""540"" height = ""360"">","null","","","","","","","",""
"null","","html-keyboard-response","4","108599","0.0-2.0-2.0","3B1NLC6UG0IBDCWGT28BPLDX87LPG7","A34SUZWGLXIWM8","33Q5P9PUSP8QOKKNNN5S19YACNVCZX","","","null","","","","","","","",""
"661.1999998092651","","image-keyboard-response","5","109262","0.0-2.0-0.1","3B1NLC6UG0IBDCWGT28BPLDX87LPG7","A34SUZWGLXIWM8","33Q5P9PUSP8QOKKNNN5S19YACNVCZX","","img/practice/S1.jpg","68","1","practice","83","false","","","",""
"null","","html-keyboard-response","6","109564","0.0-2.0-1.1","3B1NLC6UG0IBDCWGT28BPLDX87LPG7","A34SUZWGLXIWM8","33Q5P9PUSP8QOKKNNN5S19YACNVCZX","","<img src=""img/practice/S1.jpg"" width=""540"" height = ""360"">","null","","","","","","","",""
"null","","html-keyboard-response","7","109566","0.0-2.0-2.1","3B1NLC6UG0IBDCWGT28BPLDX87LPG7","A34SUZWGLXIWM8","33Q5P9PUSP8QOKKNNN5S19YACNVCZX","","","null","","","","","","","",""
"485.90000009536743","","image-keyboard-response","8","110054","0.0-2.0-0.2","3B1NLC6UG0IBDCWGT28BPLDX87LPG7","A34SUZWGLXIWM8","33Q5P9PUSP8QOKKNNN5S19YACNVCZX","","img/practice/S2.jpg","72","2","practice","68","false","","","",""
"null","","html-keyboard-response","9","110355","0.0-2.0-1.2","3B1NLC6UG0IBDCWGT28BPLDX87LPG7","A34SUZWGLXIWM8","33Q5P9PUSP8QOKKNNN5S19YACNVCZX","","<img src=""img/practice/S2.jpg"" width=""540"" height = ""360"">","null","","","","","","","",""
"null","","html-keyboard-response","10","110358","0.0-2.0-2.2","3B1NLC6UG0IBDCWGT28BPLDX87LPG7","A34SUZWGLXIWM8","33Q5P9PUSP8QOKKNNN5S19YACNVCZX","","","null","","","","","","","",""
"543.0999999046326","","image-keyboard-response","11","110902","0.0-2.0-0.3","3B1NLC6UG0IBDCWGT28BPLDX87LPG7","A34SUZWGLXIWM8","33Q5P9PUSP8QOKKNNN5S19YACNVCZX","","img/practice/S4.jpg","74","4","practice","74","true","","","",""
"null","","html-keyboard-response","12","111203","0.0-2.0-1.3","3B1NLC6UG0IBDCWGT28BPLDX87LPG7","A34SUZWGLXIWM8","33Q5P9PUSP8QOKKNNN5S19YACNVCZX","","<img src=""img/practice/S4.jpg"" width=""540"" height = ""360"" style=""border:16px solid orange"">","null","","","","","","","",""
"null","","html-keyboard-response","13","111205","0.0-2.0-2.3","3B1NLC6UG0IBDCWGT28BPLDX87LPG7","A34SUZWGLXIWM8","33Q5P9PUSP8QOKKNNN5S19YACNVCZX","","","null","","","","","","","",""
"911.6999998092651","","image-keyboard-response","14","112118","0.0-2.0-0.4","3B1NLC6UG0IBDCWGT28BPLDX87LPG7","A34SUZWGLXIWM8","33Q5P9PUSP8QOKKNNN5S19YACNVCZX","","img/practice/S3.jpg","68","3","practice","72","false","","","",""
"null","","html-keyboard-response","15","112419","0.0-2.0-1.4","3B1NLC6UG0IBDCWGT28BPLDX87LPG7","A34SUZWGLXIWM8","33Q5P9PUSP8QOKKNNN5S19YACNVCZX","","<img src=""img/practice/S3.jpg"" width=""540"" height = ""360"">","null","","","","","","","",""
"null","","html-keyboard-response","16","112422","0.0-2.0-2.4","3B1NLC6UG0IBDCWGT28BPLDX87LPG7","A34SUZWGLXIWM8","33Q5P9PUSP8QOKKNNN5S19YACNVCZX","","","null","","","","","","","",""
"407.30000019073486","","image-keyboard-response","17","112830","0.0-2.0-0.5","3B1NLC6UG0IBDCWGT28BPLDX87LPG7","A34SUZWGLXIWM8","33Q5P9PUSP8QOKKNNN5S19YACNVCZX","","img/practice/S2.jpg","83","2","practice","68","false","","","",""
"null","","html-keyboard-response","18","113131","0.0-2.0-1.5","3B1NLC6UG0IBDCWGT28BPLDX87LPG7","A34SUZWGLXIWM8","33Q5P9PUSP8QOKKNNN5S19YACNVCZX","","<img src=""img/practice/S2.jpg"" width=""540"" height = ""360"">","null","","","","","","","",""
"null","","html-keyboard-response","19","113134","0.0-2.0-2.5","3B1NLC6UG0IBDCWGT28BPLDX87LPG7","A34SUZWGLXIWM8","33Q5P9PUSP8QOKKNNN5S19YACNVCZX","","","null","","","","","","","",""
"478.80000019073486","","image-keyboard-response","20","113613","0.0-2.0-0.6","3B1NLC6UG0IBDCWGT28BPLDX87LPG7","A34SUZWGLXIWM8","33Q5P9PUSP8QOKKNNN5S19YACNVCZX","","img/practice/S4.jpg","72","4","practice","74","false","","","",""
"null","","html-keyboard-response","21","113915","0.0-2.0-1.6","3B1NLC6UG0IBDCWGT28BPLDX87LPG7","A34SUZWGLXIWM8","33Q5P9PUSP8QOKKNNN5S19YACNVCZX","","<img src=""img/practice/S4.jpg"" width=""540"" height = ""360"">","null","","","","","","","",""
"null","","html-keyboard-response","22","113917","0.0-2.0-2.6","3B1NLC6UG0IBDCWGT28BPLDX87LPG7","A34SUZWGLXIWM8","33Q5P9PUSP8QOKKNNN5S19YACNVCZX","","","null","","","","","","","",""
"400.2999997138977","","image-keyboard-response","23","114318","0.0-2.0-0.7","3B1NLC6UG0IBDCWGT28BPLDX87LPG7","A34SUZWGLXIWM8","33Q5P9PUSP8QOKKNNN5S19YACNVCZX","","img/practice/S1.jpg","74","1","practice","83","false","","","",""
"null","","html-keyboard-response","24","114619","0.0-2.0-1.7","3B1NLC6UG0IBDCWGT28BPLDX87LPG7","A34SUZWGLXIWM8","33Q5P9PUSP8QOKKNNN5S19YACNVCZX","","<img src=""img/practice/S1.jpg"" width=""540"" height = ""360"">","null","","","","","","","",""
"null","","html-keyboard-response","25","114621","0.0-2.0-2.7","3B1NLC6UG0IBDCWGT28BPLDX87LPG7","A34SUZWGLXIWM8","33Q5P9PUSP8QOKKNNN5S19YACNVCZX","","","null","","","","","","","",""
"911.5999999046326","","image-keyboard-response","26","115534","0.0-2.0-0.8","3B1NLC6UG0IBDCWGT28BPLDX87LPG7","A34SUZWGLXIWM8","33Q5P9PUSP8QOKKNNN5S19YACNVCZX","","img/practice/S1.jpg","72","1","practice","83","false","","","",""
"null","","html-keyboard-response","27","115835","0.0-2.0-1.8","3B1NLC6UG0IBDCWGT28BPLDX87LPG7","A34SUZWGLXIWM8","33Q5P9PUSP8QOKKNNN5S19YACNVCZX","","<img src=""img/practice/S1.jpg"" width=""540"" height = ""360"">","null","","","","","","","",""
"null","","html-keyboard-response","28","115838","0.0-2.0-2.8","3B1NLC6UG0IBDCWGT28BPLDX87LPG7","A34SUZWGLXIWM8","33Q5P9PUSP8QOKKNNN5S19YACNVCZX","","","null","","","","","","","",""
"566.5","","image-keyboard-response","29","116406","0.0-2.0-0.9","3B1NLC6UG0IBDCWGT28BPLDX87LPG7","A34SUZWGLXIWM8","33Q5P9PUSP8QOKKNNN5S19YACNVCZX","","img/practice/S3.jpg","68","3","practice","72","false","","","",""
"null","","html-keyboard-response","30","116706","0.0-2.0-1.9","3B1NLC6UG0IBDCWGT28BPLDX87LPG7","A34SUZWGLXIWM8","33Q5P9PUSP8QOKKNNN5S19YACNVCZX","","<img src=""img/practice/S3.jpg"" width=""540"" height = ""360"">","null","","","","","","","",""
"null","","html-keyboard-response","31","116708","0.0-2.0-2.9","3B1NLC6UG0IBDCWGT28BPLDX87LPG7","A34SUZWGLXIWM8","33Q5P9PUSP8QOKKNNN5S19YACNVCZX","","","null","","","","","","","",""
"464.5","","image-keyboard-response","32","117174","0.0-2.0-0.10","3B1NLC6UG0IBDCWGT28BPLDX87LPG7","A34SUZWGLXIWM8","33Q5P9PUSP8QOKKNNN5S19YACNVCZX","","img/practice/S2.jpg","83","2","practice","68","false","","","",""
"null","","html-keyboard-response","33","117475","0.0-2.0-1.10","3B1NLC6UG0IBDCWGT28BPLDX87LPG7","A34SUZWGLXIWM8","33Q5P9PUSP8QOKKNNN5S19YACNVCZX","","<img src=""img/practice/S2.jpg"" width=""540"" height = ""360"">","null","","","","","","","",""
"null","","html-keyboard-response","34","117477","0.0-2.0-2.10","3B1NLC6UG0IBDCWGT28BPLDX87LPG7","A34SUZWGLXIWM8","33Q5P9PUSP8QOKKNNN5S19YACNVCZX","","","null","","","","","","","",""
"767.5999999046326","","image-keyboard-response","35","118246","0.0-2.0-0.11","3B1NLC6UG0IBDCWGT28BPLDX87LPG7","A34SUZWGLXIWM8","33Q5P9PUSP8QOKKNNN5S19YACNVCZX","","img/practice/S4.jpg","83","4","practice","74","false","","","",""
"null","","html-keyboard-response","36","118547","0.0-2.0-1.11","3B1NLC6UG0IBDCWGT28BPLDX87LPG7","A34SUZWGLXIWM8","33Q5P9PUSP8QOKKNNN5S19YACNVCZX","","<img src=""img/practice/S4.jpg"" width=""540"" height = ""360"">","null","","","","","","","",""
"null","","html-keyboard-response","37","118549","0.0-2.0-2.11","3B1NLC6UG0IBDCWGT28BPLDX87LPG7","A34SUZWGLXIWM8","33Q5P9PUSP8QOKKNNN5S19YACNVCZX","","","null","","","","","","","",""
"368.09999990463257","","image-keyboard-response","38","118918","0.0-2.0-0.12","3B1NLC6UG0IBDCWGT28BPLDX87LPG7","A34SUZWGLXIWM8","33Q5P9PUSP8QOKKNNN5S19YACNVCZX","","img/practice/S4.jpg","68","4","practice","74","false","","","",""
"null","","html-keyboard-response","39","119219","0.0-2.0-1.12","3B1NLC6UG0IBDCWGT28BPLDX87LPG7","A34SUZWGLXIWM8","33Q5P9PUSP8QOKKNNN5S19YACNVCZX","","<img src=""img/practice/S4.jpg"" width=""540"" height = ""360"">","null","","","","","","","",""
"null","","html-keyboard-response","40","119221","0.0-2.0-2.12","3B1NLC6UG0IBDCWGT28BPLDX87LPG7","A34SUZWGLXIWM8","33Q5P9PUSP8QOKKNNN5S19YACNVCZX","","","null","","","","","","","",""
"639.4000000953674","","image-keyboard-response","41","119862","0.0-2.0-0.13","3B1NLC6UG0IBDCWGT28BPLDX87LPG7","A34SUZWGLXIWM8","33Q5P9PUSP8QOKKNNN5S19YACNVCZX","","img/practice/S1.jpg","72","1","practice","83","false","","","",""
"null","","html-keyboard-response","42","120163","0.0-2.0-1.13","3B1NLC6UG0IBDCWGT28BPLDX87LPG7","A34SUZWGLXIWM8","33Q5P9PUSP8QOKKNNN5S19YACNVCZX","","<img src=""img/practice/S1.jpg"" width=""540"" height = ""360"">","null","","","","","","","",""
"null","","html-keyboard-response","43","120165","0.0-2.0-2.13","3B1NLC6UG0IBDCWGT28BPLDX87LPG7","A34SUZWGLXIWM8","33Q5P9PUSP8QOKKNNN5S19YACNVCZX","","","null","","","","","","","",""
"512","","image-keyboard-response","44","120678","0.0-2.0-0.14","3B1NLC6UG0IBDCWGT28BPLDX87LPG7","A34SUZWGLXIWM8","33Q5P9PUSP8QOKKNNN5S19YACNVCZX","","img/practice/S2.jpg","74","2","practice","68","false","","","",""
"null","","html-keyboard-response","45","120980","0.0-2.0-1.14","3B1NLC6UG0IBDCWGT28BPLDX87LPG7","A34SUZWGLXIWM8","33Q5P9PUSP8QOKKNNN5S19YACNVCZX","","<img src=""img/practice/S2.jpg"" width=""540"" height = ""360"">","null","","","","","","","",""
"null","","html-keyboard-response","46","120982","0.0-2.0-2.14","3B1NLC6UG0IBDCWGT28BPLDX87LPG7","A34SUZWGLXIWM8","33Q5P9PUSP8QOKKNNN5S19YACNVCZX","","","null","","","","","","","",""
"718.9000000953674","","image-keyboard-response","47","121702","0.0-2.0-0.15","3B1NLC6UG0IBDCWGT28BPLDX87LPG7","A34SUZWGLXIWM8","33Q5P9PUSP8QOKKNNN5S19YACNVCZX","","img/practice/S3.jpg","74","3","practice","72","false","","","",""
"null","","html-keyboard-response","48","122004","0.0-2.0-1.15","3B1NLC6UG0IBDCWGT28BPLDX87LPG7","A34SUZWGLXIWM8","33Q5P9PUSP8QOKKNNN5S19YACNVCZX","","<img src=""img/practice/S3.jpg"" width=""540"" height = ""360"">","null","","","","","","","",""
"null","","html-keyboard-response","49","122007","0.0-2.0-2.15","3B1NLC6UG0IBDCWGT28BPLDX87LPG7","A34SUZWGLXIWM8","33Q5P9PUSP8QOKKNNN5S19YACNVCZX","","","null","","","","","","","",""
"502.19999980926514","","image-keyboard-response","50","122510","0.0-2.0-0.16","3B1NLC6UG0IBDCWGT28BPLDX87LPG7","A34SUZWGLXIWM8","33Q5P9PUSP8QOKKNNN5S19YACNVCZX","","img/practice/S1.jpg","72","1","practice","83","false","","","",""
"null","","html-keyboard-response","51","122811","0.0-2.0-1.16","3B1NLC6UG0IBDCWGT28BPLDX87LPG7","A34SUZWGLXIWM8","33Q5P9PUSP8QOKKNNN5S19YACNVCZX","","<img src=""img/practice/S1.jpg"" width=""540"" height = ""360"">","null","","","","","","","",""
"null","","html-keyboard-response","52","122813","0.0-2.0-2.16","3B1NLC6UG0IBDCWGT28BPLDX87LPG7","A34SUZWGLXIWM8","33Q5P9PUSP8QOKKNNN5S19YACNVCZX","","","null","","","","","","","",""
"456.2999997138977","","image-keyboard-response","53","123270","0.0-2.0-0.17","3B1NLC6UG0IBDCWGT28BPLDX87LPG7","A34SUZWGLXIWM8","33Q5P9PUSP8QOKKNNN5S19YACNVCZX","","img/practice/S3.jpg","68","3","practice","72","false","","","",""
"null","","html-keyboard-response","54","123571","0.0-2.0-1.17","3B1NLC6UG0IBDCWGT28BPLDX87LPG7","A34SUZWGLXIWM8","33Q5P9PUSP8QOKKNNN5S19YACNVCZX","","<img src=""img/practice/S3.jpg"" width=""540"" height = ""360"">","null","","","","","","","",""
"null","","html-keyboard-response","55","123573","0.0-2.0-2.17","3B1NLC6UG0IBDCWGT28BPLDX87LPG7","A34SUZWGLXIWM8","33Q5P9PUSP8QOKKNNN5S19YACNVCZX","","","null","","","","","","","",""
"623.5","","image-keyboard-response","56","124198","0.0-2.0-0.18","3B1NLC6UG0IBDCWGT28BPLDX87LPG7","A34SUZWGLXIWM8","33Q5P9PUSP8QOKKNNN5S19YACNVCZX","","img/practice/S2.jpg","83","2","practice","68","false","","","",""
"null","","html-keyboard-response","57","124499","0.0-2.0-1.18","3B1NLC6UG0IBDCWGT28BPLDX87LPG7","A34SUZWGLXIWM8","33Q5P9PUSP8QOKKNNN5S19YACNVCZX","","<img src=""img/practice/S2.jpg"" width=""540"" height = ""360"">","null","","","","","","","",""
"null","","html-keyboard-response","58","124502","0.0-2.0-2.18","3B1NLC6UG0IBDCWGT28BPLDX87LPG7","A34SUZWGLXIWM8","33Q5P9PUSP8QOKKNNN5S19YACNVCZX","","","null","","","","","","","",""
"607.1999998092651","","image-keyboard-response","59","125110","0.0-2.0-0.19","3B1NLC6UG0IBDCWGT28BPLDX87LPG7","A34SUZWGLXIWM8","33Q5P9PUSP8QOKKNNN5S19YACNVCZX","","img/practice/S4.jpg","74","4","practice","74","true","","","",""
"null","","html-keyboard-response","60","125410","0.0-2.0-1.19","3B1NLC6UG0IBDCWGT28BPLDX87LPG7","A34SUZWGLXIWM8","33Q5P9PUSP8QOKKNNN5S19YACNVCZX","","<img src=""img/practice/S4.jpg"" width=""540"" height = ""360"" style=""border:16px solid orange"">","null","","","","","","","",""
"null","","html-keyboard-response","61","125412","0.0-2.0-2.19","3B1NLC6UG0IBDCWGT28BPLDX87LPG7","A34SUZWGLXIWM8","33Q5P9PUSP8QOKKNNN5S19YACNVCZX","","","null","","","","","","","",""
"776.5999999046326","","image-keyboard-response","62","126190","0.0-2.0-0.20","3B1NLC6UG0IBDCWGT28BPLDX87LPG7","A34SUZWGLXIWM8","33Q5P9PUSP8QOKKNNN5S19YACNVCZX","","img/practice/S3.jpg","68","3","practice","72","false","","","",""
"null","","html-keyboard-response","63","126492","0.0-2.0-1.20","3B1NLC6UG0IBDCWGT28BPLDX87LPG7","A34SUZWGLXIWM8","33Q5P9PUSP8QOKKNNN5S19YACNVCZX","","<img src=""img/practice/S3.jpg"" width=""540"" height = ""360"">","null","","","","","","","",""
"null","","html-keyboard-response","64","126494","0.0-2.0-2.20","3B1NLC6UG0IBDCWGT28BPLDX87LPG7","A34SUZWGLXIWM8","33Q5P9PUSP8QOKKNNN5S19YACNVCZX","","","null","","","","","","","",""
"558.4000000953674","","image-keyboard-response","65","127053","0.0-2.0-0.21","3B1NLC6UG0IBDCWGT28BPLDX87LPG7","A34SUZWGLXIWM8","33Q5P9PUSP8QOKKNNN5S19YACNVCZX","","img/practice/S2.jpg","83","2","practice","68","false","","","",""
"null","","html-keyboard-response","66","127355","0.0-2.0-1.21","3B1NLC6UG0IBDCWGT28BPLDX87LPG7","A34SUZWGLXIWM8","33Q5P9PUSP8QOKKNNN5S19YACNVCZX","","<img src=""img/practice/S2.jpg"" width=""540"" height = ""360"">","null","","","","","","","",""
"null","","html-keyboard-response","67","127357","0.0-2.0-2.21","3B1NLC6UG0IBDCWGT28BPLDX87LPG7","A34SUZWGLXIWM8","33Q5P9PUSP8QOKKNNN5S19YACNVCZX","","","null","","","","","","","",""
"528.5","","image-keyboard-response","68","127886","0.0-2.0-0.22","3B1NLC6UG0IBDCWGT28BPLDX87LPG7","A34SUZWGLXIWM8","33Q5P9PUSP8QOKKNNN5S19YACNVCZX","","img/practice/S4.jpg","72","4","practice","74","false","","","",""
"null","","html-keyboard-response","69","128188","0.0-2.0-1.22","3B1NLC6UG0IBDCWGT28BPLDX87LPG7","A34SUZWGLXIWM8","33Q5P9PUSP8QOKKNNN5S19YACNVCZX","","<img src=""img/practice/S4.jpg"" width=""540"" height = ""360"">","null","","","","","","","",""
"null","","html-keyboard-response","70","128190","0.0-2.0-2.22","3B1NLC6UG0IBDCWGT28BPLDX87LPG7","A34SUZWGLXIWM8","33Q5P9PUSP8QOKKNNN5S19YACNVCZX","","","null","","","","","","","",""
"566.6000003814697","","image-keyboard-response","71","128758","0.0-2.0-0.23","3B1NLC6UG0IBDCWGT28BPLDX87LPG7","A34SUZWGLXIWM8","33Q5P9PUSP8QOKKNNN5S19YACNVCZX","","img/practice/S1.jpg","74","1","practice","83","false","","","",""
"null","","html-keyboard-response","72","129059","0.0-2.0-1.23","3B1NLC6UG0IBDCWGT28BPLDX87LPG7","A34SUZWGLXIWM8","33Q5P9PUSP8QOKKNNN5S19YACNVCZX","","<img src=""img/practice/S1.jpg"" width=""540"" height = ""360"">","null","","","","","","","",""
"null","","html-keyboard-response","73","129060","0.0-2.0-2.23","3B1NLC6UG0IBDCWGT28BPLDX87LPG7","A34SUZWGLXIWM8","33Q5P9PUSP8QOKKNNN5S19YACNVCZX","","","null","","","","","","","",""
"4681.299999713898","","instructions","74","133742","0.0-3.0","3B1NLC6UG0IBDCWGT28BPLDX87LPG7","A34SUZWGLXIWM8","33Q5P9PUSP8QOKKNNN5S19YACNVCZX","[{""page_index"":0,""viewing_time"":4680.900000095367}]","","","","","","","","","",""
"8759.5","","instructions","75","142502","0.0-4.0","3B1NLC6UG0IBDCWGT28BPLDX87LPG7","A34SUZWGLXIWM8","33Q5P9PUSP8QOKKNNN5S19YACNVCZX","[{""page_index"":0,""viewing_time"":8759.300000190735}]","","","","","","","","","",""
"7471.800000190735","","instructions","76","149974","0.0-5.0","3B1NLC6UG0IBDCWGT28BPLDX87LPG7","A34SUZWGLXIWM8","33Q5P9PUSP8QOKKNNN5S19YACNVCZX","[{""page_index"":0,""viewing_time"":7471.599999904633}]","","","","","","","","","",""
"574.5999999046326","","image-keyboard-response","77","150549","0.0-6.0","3B1NLC6UG0IBDCWGT28BPLDX87LPG7","A34SUZWGLXIWM8","33Q5P9PUSP8QOKKNNN5S19YACNVCZX","","img/set1/S1.jpg","74","1","structured_normal","83","false","structured_normal,random,structured_incentive","2,3,1,2","",""
"null","","html-keyboard-response","78","150902","0.0-7.0","3B1NLC6UG0IBDCWGT28BPLDX87LPG7","A34SUZWGLXIWM8","33Q5P9PUSP8QOKKNNN5S19YACNVCZX","","<img src=""img/set1/S1.jpg"" width=""540"" height = ""360"">","null","","","","","","","",""
"null","","html-keyboard-response","79","150904","0.0-8.0","3B1NLC6UG0IBDCWGT28BPLDX87LPG7","A34SUZWGLXIWM8","33Q5P9PUSP8QOKKNNN5S19YACNVCZX","","","null","","","","","","","",""
"580.6999998092651","","image-keyboard-response","80","151486","0.0-9.0","3B1NLC6UG0IBDCWGT28BPLDX87LPG7","A34SUZWGLXIWM8","33Q5P9PUSP8QOKKNNN5S19YACNVCZX","","img/set1/S4.jpg","72","4","structured_normal","74","false","structured_normal,random,structured_incentive","2,3,1,2","",""
"null","","html-keyboard-response","81","151838","0.0-10.0","3B1NLC6UG0IBDCWGT28BPLDX87LPG7","A34SUZWGLXIWM8","33Q5P9PUSP8QOKKNNN5S19YACNVCZX","","<img src=""img/set1/S4.jpg"" width=""540"" height = ""360"">","null","","","","","","","",""
"null","","html-keyboard-response","82","151841","0.0-11.0","3B1NLC6UG0IBDCWGT28BPLDX87LPG7","A34SUZWGLXIWM8","33Q5P9PUSP8QOKKNNN5S19YACNVCZX","","","null","","","","","","","",""
"523.7000002861023","","image-keyboard-response","83","152366","0.0-12.0","3B1NLC6UG0IBDCWGT28BPLDX87LPG7","A34SUZWGLXIWM8","33Q5P9PUSP8QOKKNNN5S19YACNVCZX","","img/set1/S2.jpg","83","2","structured_normal","68","false","structured_normal,random,structured_incentive","2,3,1,2","",""
"null","","html-keyboard-response","84","152717","0.0-13.0","3B1NLC6UG0IBDCWGT28BPLDX87LPG7","A34SUZWGLXIWM8","33Q5P9PUSP8QOKKNNN5S19YACNVCZX","","<img src=""img/set1/S2.jpg"" width=""540"" height = ""360"">","null","","","","","","","",""
"null","","html-keyboard-response","85","152719","0.0-14.0","3B1NLC6UG0IBDCWGT28BPLDX87LPG7","A34SUZWGLXIWM8","33Q5P9PUSP8QOKKNNN5S19YACNVCZX","","","null","","","","","","","",""
"389.30000019073486","","image-keyboard-response","86","153109","0.0-15.0","3B1NLC6UG0IBDCWGT28BPLDX87LPG7","A34SUZWGLXIWM8","33Q5P9PUSP8QOKKNNN5S19YACNVCZX","","img/set1/S3.jpg","68","3","structured_normal","72","false","structured_normal,random,structured_incentive","2,3,1,2","",""
"null","","html-keyboard-response","87","153461","0.0-16.0","3B1NLC6UG0IBDCWGT28BPLDX87LPG7","A34SUZWGLXIWM8","33Q5P9PUSP8QOKKNNN5S19YACNVCZX","","<img src=""img/set1/S3.jpg"" width=""540"" height = ""360"">","null","","","","","","","",""
"null","","html-keyboard-response","88","153464","0.0-17.0","3B1NLC6UG0IBDCWGT28BPLDX87LPG7","A34SUZWGLXIWM8","33Q5P9PUSP8QOKKNNN5S19YACNVCZX","","","null","","","","","","","",""
"492.6000003814697","","image-keyboard-response","89","153957","0.0-18.0","3B1NLC6UG0IBDCWGT28BPLDX87LPG7","A34SUZWGLXIWM8","33Q5P9PUSP8QOKKNNN5S19YACNVCZX","","img/set1/S1.jpg","83","1","structured_normal","83","true","structured_normal,random,structured_incentive","2,3,1,2","",""
"null","","html-keyboard-response","90","154309","0.0-19.0","3B1NLC6UG0IBDCWGT28BPLDX87LPG7","A34SUZWGLXIWM8","33Q5P9PUSP8QOKKNNN5S19YACNVCZX","","<img src=""img/set1/S1.jpg"" width=""540"" height = ""360"" style=""border:16px solid orange"">","null","","","","","","","",""
"null","","html-keyboard-response","91","154311","0.0-20.0","3B1NLC6UG0IBDCWGT28BPLDX87LPG7","A34SUZWGLXIWM8","33Q5P9PUSP8QOKKNNN5S19YACNVCZX","","","null","","","","","","","",""
"654","","image-keyboard-response","92","154966","0.0-21.0","3B1NLC6UG0IBDCWGT28BPLDX87LPG7","A34SUZWGLXIWM8","33Q5P9PUSP8QOKKNNN5S19YACNVCZX","","img/set1/S4.jpg","68","4","structured_normal","74","false","structured_normal,random,structured_incentive","2,3,1,2","",""
"null","","html-keyboard-response","93","155318","0.0-22.0","3B1NLC6UG0IBDCWGT28BPLDX87LPG7","A34SUZWGLXIWM8","33Q5P9PUSP8QOKKNNN5S19YACNVCZX","","<img src=""img/set1/S4.jpg"" width=""540"" height = ""360"">","null","","","","","","","",""
"null","","html-keyboard-response","94","155319","0.0-23.0","3B1NLC6UG0IBDCWGT28BPLDX87LPG7","A34SUZWGLXIWM8","33Q5P9PUSP8QOKKNNN5S19YACNVCZX","","","null","","","","","","","",""
"485.40000009536743","","image-keyboard-response","95","155806","0.0-24.0","3B1NLC6UG0IBDCWGT28BPLDX87LPG7","A34SUZWGLXIWM8","33Q5P9PUSP8QOKKNNN5S19YACNVCZX","","img/set1/S2.jpg","72","2","structured_normal","68","false","structured_normal,random,structured_incentive","2,3,1,2","",""
"null","","html-keyboard-response","96","156157","0.0-25.0","3B1NLC6UG0IBDCWGT28BPLDX87LPG7","A34SUZWGLXIWM8","33Q5P9PUSP8QOKKNNN5S19YACNVCZX","","<img src=""img/set1/S2.jpg"" width=""540"" height = ""360"">","null","","","","","","","",""
"null","","html-keyboard-response","97","156160","0.0-26.0","3B1NLC6UG0IBDCWGT28BPLDX87LPG7","A34SUZWGLXIWM8","33Q5P9PUSP8QOKKNNN5S19YACNVCZX","","","null","","","","","","","",""
"620.4000000953674","","image-keyboard-response","98","156782","0.0-27.0","3B1NLC6UG0IBDCWGT28BPLDX87LPG7","A34SUZWGLXIWM8","33Q5P9PUSP8QOKKNNN5S19YACNVCZX","","img/set1/S3.jpg","74","3","structured_normal","72","false","structured_normal,random,structured_incentive","2,3,1,2","",""
"null","","html-keyboard-response","99","157134","0.0-28.0","3B1NLC6UG0IBDCWGT28BPLDX87LPG7","A34SUZWGLXIWM8","33Q5P9PUSP8QOKKNNN5S19YACNVCZX","","<img src=""img/set1/S3.jpg"" width=""540"" height = ""360"">","null","","","","","","","",""
"null","","html-keyboard-response","100","157135","0.0-29.0","3B1NLC6UG0IBDCWGT28BPLDX87LPG7","A34SUZWGLXIWM8","33Q5P9PUSP8QOKKNNN5S19YACNVCZX","","","null","","","","","","","",""
"581.7999997138977","","image-keyboard-response","101","157718","0.0-30.0","3B1NLC6UG0IBDCWGT28BPLDX87LPG7","A34SUZWGLXIWM8","33Q5P9PUSP8QOKKNNN5S19YACNVCZX","","img/set1/S1.jpg","83","1","structured_normal","83","true","structured_normal,random,structured_incentive","2,3,1,2","",""
"null","","html-keyboard-response","102","158069","0.0-31.0","3B1NLC6UG0IBDCWGT28BPLDX87LPG7","A34SUZWGLXIWM8","33Q5P9PUSP8QOKKNNN5S19YACNVCZX","","<img src=""img/set1/S1.jpg"" width=""540"" height = ""360"" style=""border:16px solid orange"">","null","","","","","","","",""
"null","","html-keyboard-response","103","158071","0.0-32.0","3B1NLC6UG0IBDCWGT28BPLDX87LPG7","A34SUZWGLXIWM8","33Q5P9PUSP8QOKKNNN5S19YACNVCZX","","","null","","","","","","","",""
"525.3000001907349","","image-keyboard-response","104","158597","0.0-33.0","3B1NLC6UG0IBDCWGT28BPLDX87LPG7","A34SUZWGLXIWM8","33Q5P9PUSP8QOKKNNN5S19YACNVCZX","","img/set1/S1.jpg","83","1","structured_normal","83","true","structured_normal,random,structured_incentive","2,3,1,2","",""
"null","","html-keyboard-response","105","158949","0.0-34.0","3B1NLC6UG0IBDCWGT28BPLDX87LPG7","A34SUZWGLXIWM8","33Q5P9PUSP8QOKKNNN5S19YACNVCZX","","<img src=""img/set1/S1.jpg"" width=""540"" height = ""360"" style=""border:16px solid orange"">","null","","","","","","","",""
"null","","html-keyboard-response","106","158951","0.0-35.0","3B1NLC6UG0IBDCWGT28BPLDX87LPG7","A34SUZWGLXIWM8","33Q5P9PUSP8QOKKNNN5S19YACNVCZX","","","null","","","","","","","",""
"525.8000001907349","","image-keyboard-response","107","159478","0.0-36.0","3B1NLC6UG0IBDCWGT28BPLDX87LPG7","A34SUZWGLXIWM8","33Q5P9PUSP8QOKKNNN5S19YACNVCZX","","img/set1/S1.jpg","83","1","structured_normal","83","true","structured_normal,random,structured_incentive","2,3,1,2","",""
"null","","html-keyboard-response","108","159829","0.0-37.0","3B1NLC6UG0IBDCWGT28BPLDX87LPG7","A34SUZWGLXIWM8","33Q5P9PUSP8QOKKNNN5S19YACNVCZX","","<img src=""img/set1/S1.jpg"" width=""540"" height = ""360"" style=""border:16px solid orange"">","null","","","","","","","",""
"null","","html-keyboard-response","109","159831","0.0-38.0","3B1NLC6UG0IBDCWGT28BPLDX87LPG7","A34SUZWGLXIWM8","33Q5P9PUSP8QOKKNNN5S19YACNVCZX","","","null","","","","","","","",""
"614.2999997138977","","image-keyboard-response","110","160446","0.0-39.0","3B1NLC6UG0IBDCWGT28BPLDX87LPG7","A34SUZWGLXIWM8","33Q5P9PUSP8QOKKNNN5S19YACNVCZX","","img/set1/S2.jpg","68","2","structured_normal","68","true","structured_normal,random,structured_incentive","2,3,1,2","",""
"null","","html-keyboard-response","111","160797","0.0-40.0","3B1NLC6UG0IBDCWGT28BPLDX87LPG7","A34SUZWGLXIWM8","33Q5P9PUSP8QOKKNNN5S19YACNVCZX","","<img src=""img/set1/S2.jpg"" width=""540"" height = ""360"" style=""border:16px solid orange"">","null","","","","","","","",""
"null","","html-keyboard-response","112","160799","0.0-41.0","3B1NLC6UG0IBDCWGT28BPLDX87LPG7","A34SUZWGLXIWM8","33Q5P9PUSP8QOKKNNN5S19YACNVCZX","","","null","","","","","","","",""
"933.4000000953674","","image-keyboard-response","113","161733","0.0-42.0","3B1NLC6UG0IBDCWGT28BPLDX87LPG7","A34SUZWGLXIWM8","33Q5P9PUSP8QOKKNNN5S19YACNVCZX","","img/set1/S3.jpg","72","3","structured_normal","72","true","structured_normal,random,structured_incentive","2,3,1,2","",""
"null","","html-keyboard-response","114","162085","0.0-43.0","3B1NLC6UG0IBDCWGT28BPLDX87LPG7","A34SUZWGLXIWM8","33Q5P9PUSP8QOKKNNN5S19YACNVCZX","","<img src=""img/set1/S3.jpg"" width=""540"" height = ""360"" style=""border:16px solid orange"">","null","","","","","","","",""
"null","","html-keyboard-response","115","162088","0.0-44.0","3B1NLC6UG0IBDCWGT28BPLDX87LPG7","A34SUZWGLXIWM8","33Q5P9PUSP8QOKKNNN5S19YACNVCZX","","","null","","","","","","","",""
"757.3999996185303","","image-keyboard-response","116","162846","0.0-45.0","3B1NLC6UG0IBDCWGT28BPLDX87LPG7","A34SUZWGLXIWM8","33Q5P9PUSP8QOKKNNN5S19YACNVCZX","","img/set1/S4.jpg","74","4","structured_normal","74","true","structured_normal,random,structured_incentive","2,3,1,2","",""
"null","","html-keyboard-response","117","163198","0.0-46.0","3B1NLC6UG0IBDCWGT28BPLDX87LPG7","A34SUZWGLXIWM8","33Q5P9PUSP8QOKKNNN5S19YACNVCZX","","<img src=""img/set1/S4.jpg"" width=""540"" height = ""360"" style=""border:16px solid orange"">","null","","","","","","","",""
"null","","html-keyboard-response","118","163200","0.0-47.0","3B1NLC6UG0IBDCWGT28BPLDX87LPG7","A34SUZWGLXIWM8","33Q5P9PUSP8QOKKNNN5S19YACNVCZX","","","null","","","","","","","",""
"884.4000000953674","","image-keyboard-response","119","164085","0.0-48.0","3B1NLC6UG0IBDCWGT28BPLDX87LPG7","A34SUZWGLXIWM8","33Q5P9PUSP8QOKKNNN5S19YACNVCZX","","img/set1/S1.jpg","83","1","structured_normal","83","true","structured_normal,random,structured_incentive","2,3,1,2","",""
"null","","html-keyboard-response","120","164437","0.0-49.0","3B1NLC6UG0IBDCWGT28BPLDX87LPG7","A34SUZWGLXIWM8","33Q5P9PUSP8QOKKNNN5S19YACNVCZX","","<img src=""img/set1/S1.jpg"" width=""540"" height = ""360"" style=""border:16px solid orange"">","null","","","","","","","",""
"null","","html-keyboard-response","121","164439","0.0-50.0","3B1NLC6UG0IBDCWGT28BPLDX87LPG7","A34SUZWGLXIWM8","33Q5P9PUSP8QOKKNNN5S19YACNVCZX","","","null","","","","","","","",""
"606.1999998092651","","image-keyboard-response","122","165046","0.0-51.0","3B1NLC6UG0IBDCWGT28BPLDX87LPG7","A34SUZWGLXIWM8","33Q5P9PUSP8QOKKNNN5S19YACNVCZX","","img/set1/S2.jpg","68","2","structured_normal","68","true","structured_normal,random,structured_incentive","2,3,1,2","",""
"null","","html-keyboard-response","123","165398","0.0-52.0","3B1NLC6UG0IBDCWGT28BPLDX87LPG7","A34SUZWGLXIWM8","33Q5P9PUSP8QOKKNNN5S19YACNVCZX","","<img src=""img/set1/S2.jpg"" width=""540"" height = ""360"" style=""border:16px solid orange"">","null","","","","","","","",""
"null","","html-keyboard-response","124","165401","0.0-53.0","3B1NLC6UG0IBDCWGT28BPLDX87LPG7","A34SUZWGLXIWM8","33Q5P9PUSP8QOKKNNN5S19YACNVCZX","","","null","","","","","","","",""
"627.8000001907349","","image-keyboard-response","125","166029","0.0-54.0","3B1NLC6UG0IBDCWGT28BPLDX87LPG7","A34SUZWGLXIWM8","33Q5P9PUSP8QOKKNNN5S19YACNVCZX","","img/set1/S3.jpg","72","3","structured_normal","72","true","structured_normal,random,structured_incentive","2,3,1,2","",""
"null","","html-keyboard-response","126","166381","0.0-55.0","3B1NLC6UG0IBDCWGT28BPLDX87LPG7","A34SUZWGLXIWM8","33Q5P9PUSP8QOKKNNN5S19YACNVCZX","","<img src=""img/set1/S3.jpg"" width=""540"" height = ""360"" style=""border:16px solid orange"">","null","","","","","","","",""
"null","","html-keyboard-response","127","166383","0.0-56.0","3B1NLC6UG0IBDCWGT28BPLDX87LPG7","A34SUZWGLXIWM8","33Q5P9PUSP8QOKKNNN5S19YACNVCZX","","","null","","","","","","","",""
"582.0999999046326","","image-keyboard-response","128","166965","0.0-57.0","3B1NLC6UG0IBDCWGT28BPLDX87LPG7","A34SUZWGLXIWM8","33Q5P9PUSP8QOKKNNN5S19YACNVCZX","","img/set1/S1.jpg","74","1","structured_normal","83","false","structured_normal,random,structured_incentive","2,3,1,2","",""
"null","","html-keyboard-response","129","167317","0.0-58.0","3B1NLC6UG0IBDCWGT28BPLDX87LPG7","A34SUZWGLXIWM8","33Q5P9PUSP8QOKKNNN5S19YACNVCZX","","<img src=""img/set1/S1.jpg"" width=""540"" height = ""360"">","null","","","","","","","",""
"null","","html-keyboard-response","130","167320","0.0-59.0","3B1NLC6UG0IBDCWGT28BPLDX87LPG7","A34SUZWGLXIWM8","33Q5P9PUSP8QOKKNNN5S19YACNVCZX","","","null","","","","","","","",""
"156.80000019073486","","image-keyboard-response","131","167477","0.0-60.0","3B1NLC6UG0IBDCWGT28BPLDX87LPG7","A34SUZWGLXIWM8","33Q5P9PUSP8QOKKNNN5S19YACNVCZX","","img/set1/S1.jpg","83","1","structured_normal","83","true","structured_normal,random,structured_incentive","2,3,1,2","",""
"null","","html-keyboard-response","132","167829","0.0-61.0","3B1NLC6UG0IBDCWGT28BPLDX87LPG7","A34SUZWGLXIWM8","33Q5P9PUSP8QOKKNNN5S19YACNVCZX","","<img src=""img/set1/S1.jpg"" width=""540"" height = ""360"" style=""border:16px solid orange"">","null","","","","","","","",""
"null","","html-keyboard-response","133","167832","0.0-62.0","3B1NLC6UG0IBDCWGT28BPLDX87LPG7","A34SUZWGLXIWM8","33Q5P9PUSP8QOKKNNN5S19YACNVCZX","","","null","","","","","","","",""
"485.2000002861023","","image-keyboard-response","134","168318","0.0-63.0","3B1NLC6UG0IBDCWGT28BPLDX87LPG7","A34SUZWGLXIWM8","33Q5P9PUSP8QOKKNNN5S19YACNVCZX","","img/set1/S1.jpg","83","1","structured_normal","83","true","structured_normal,random,structured_incentive","2,3,1,2","",""
"null","","html-keyboard-response","135","168669","0.0-64.0","3B1NLC6UG0IBDCWGT28BPLDX87LPG7","A34SUZWGLXIWM8","33Q5P9PUSP8QOKKNNN5S19YACNVCZX","","<img src=""img/set1/S1.jpg"" width=""540"" height = ""360"" style=""border:16px solid orange"">","null","","","","","","","",""
"null","","html-keyboard-response","136","168672","0.0-65.0","3B1NLC6UG0IBDCWGT28BPLDX87LPG7","A34SUZWGLXIWM8","33Q5P9PUSP8QOKKNNN5S19YACNVCZX","","","null","","","","","","","",""
"693","","image-keyboard-response","137","169365","0.0-66.0","3B1NLC6UG0IBDCWGT28BPLDX87LPG7","A34SUZWGLXIWM8","33Q5P9PUSP8QOKKNNN5S19YACNVCZX","","img/set1/S2.jpg","68","2","structured_normal","68","true","structured_normal,random,structured_incentive","2,3,1,2","",""
"null","","html-keyboard-response","138","169717","0.0-67.0","3B1NLC6UG0IBDCWGT28BPLDX87LPG7","A34SUZWGLXIWM8","33Q5P9PUSP8QOKKNNN5S19YACNVCZX","","<img src=""img/set1/S2.jpg"" width=""540"" height = ""360"" style=""border:16px solid orange"">","null","","","","","","","",""
"null","","html-keyboard-response","139","169719","0.0-68.0","3B1NLC6UG0IBDCWGT28BPLDX87LPG7","A34SUZWGLXIWM8","33Q5P9PUSP8QOKKNNN5S19YACNVCZX","","","null","","","","","","","",""
"557.8000001907349","","image-keyboard-response","140","170277","0.0-69.0","3B1NLC6UG0IBDCWGT28BPLDX87LPG7","A34SUZWGLXIWM8","33Q5P9PUSP8QOKKNNN5S19YACNVCZX","","img/set1/S4.jpg","72","4","structured_normal","74","false","structured_normal,random,structured_incentive","2,3,1,2","",""
"null","","html-keyboard-response","141","170629","0.0-70.0","3B1NLC6UG0IBDCWGT28BPLDX87LPG7","A34SUZWGLXIWM8","33Q5P9PUSP8QOKKNNN5S19YACNVCZX","","<img src=""img/set1/S4.jpg"" width=""540"" height = ""360"">","null","","","","","","","",""
"null","","html-keyboard-response","142","170631","0.0-71.0","3B1NLC6UG0IBDCWGT28BPLDX87LPG7","A34SUZWGLXIWM8","33Q5P9PUSP8QOKKNNN5S19YACNVCZX","","","null","","","","","","","",""
"237.80000019073486","","image-keyboard-response","143","170869","0.0-72.0","3B1NLC6UG0IBDCWGT28BPLDX87LPG7","A34SUZWGLXIWM8","33Q5P9PUSP8QOKKNNN5S19YACNVCZX","","img/set1/S2.jpg","74","2","structured_normal","68","false","structured_normal,random,structured_incentive","2,3,1,2","",""
"null","","html-keyboard-response","144","171221","0.0-73.0","3B1NLC6UG0IBDCWGT28BPLDX87LPG7","A34SUZWGLXIWM8","33Q5P9PUSP8QOKKNNN5S19YACNVCZX","","<img src=""img/set1/S2.jpg"" width=""540"" height = ""360"">","null","","","","","","","",""
"null","","html-keyboard-response","145","171223","0.0-74.0","3B1NLC6UG0IBDCWGT28BPLDX87LPG7","A34SUZWGLXIWM8","33Q5P9PUSP8QOKKNNN5S19YACNVCZX","","","null","","","","","","","",""
"237.7000002861023","","image-keyboard-response","146","171462","0.0-75.0","3B1NLC6UG0IBDCWGT28BPLDX87LPG7","A34SUZWGLXIWM8","33Q5P9PUSP8QOKKNNN5S19YACNVCZX","","img/set1/S3.jpg","72","3","structured_normal","72","true","structured_normal,random,structured_incentive","2,3,1,2","",""
"null","","html-keyboard-response","147","171814","0.0-76.0","3B1NLC6UG0IBDCWGT28BPLDX87LPG7","A34SUZWGLXIWM8","33Q5P9PUSP8QOKKNNN5S19YACNVCZX","","<img src=""img/set1/S3.jpg"" width=""540"" height = ""360"" style=""border:16px solid orange"">","null","","","","","","","",""
"null","","html-keyboard-response","148","171816","0.0-77.0","3B1NLC6UG0IBDCWGT28BPLDX87LPG7","A34SUZWGLXIWM8","33Q5P9PUSP8QOKKNNN5S19YACNVCZX","","","null","","","","","","","",""
"716.4000000953674","","image-keyboard-response","149","172534","0.0-78.0","3B1NLC6UG0IBDCWGT28BPLDX87LPG7","A34SUZWGLXIWM8","33Q5P9PUSP8QOKKNNN5S19YACNVCZX","","img/set1/S1.jpg","83","1","structured_normal","83","true","structured_normal,random,structured_incentive","2,3,1,2","",""
"null","","html-keyboard-response","150","172884","0.0-79.0","3B1NLC6UG0IBDCWGT28BPLDX87LPG7","A34SUZWGLXIWM8","33Q5P9PUSP8QOKKNNN5S19YACNVCZX","","<img src=""img/set1/S1.jpg"" width=""540"" height = ""360"" style=""border:16px solid orange"">","null","","","","","","","",""
"null","","html-keyboard-response","151","172887","0.0-80.0","3B1NLC6UG0IBDCWGT28BPLDX87LPG7","A34SUZWGLXIWM8","33Q5P9PUSP8QOKKNNN5S19YACNVCZX","","","null","","","","","","","",""
"621.4000000953674","","image-keyboard-response","152","173510","0.0-81.0","3B1NLC6UG0IBDCWGT28BPLDX87LPG7","A34SUZWGLXIWM8","33Q5P9PUSP8QOKKNNN5S19YACNVCZX","","img/set1/S3.jpg","72","3","structured_normal","72","true","structured_normal,random,structured_incentive","2,3,1,2","",""
"null","","html-keyboard-response","153","173861","0.0-82.0","3B1NLC6UG0IBDCWGT28BPLDX87LPG7","A34SUZWGLXIWM8","33Q5P9PUSP8QOKKNNN5S19YACNVCZX","","<img src=""img/set1/S3.jpg"" width=""540"" height = ""360"" style=""border:16px solid orange"">","null","","","","","","","",""
"null","","html-keyboard-response","154","173863","0.0-83.0","3B1NLC6UG0IBDCWGT28BPLDX87LPG7","A34SUZWGLXIWM8","33Q5P9PUSP8QOKKNNN5S19YACNVCZX","","","null","","","","","","","",""
"549.9000000953674","","image-keyboard-response","155","174413","0.0-84.0","3B1NLC6UG0IBDCWGT28BPLDX87LPG7","A34SUZWGLXIWM8","33Q5P9PUSP8QOKKNNN5S19YACNVCZX","","img/set1/S1.jpg","83","1","structured_normal","83","true","structured_normal,random,structured_incentive","2,3,1,2","",""
"null","","html-keyboard-response","156","174766","0.0-85.0","3B1NLC6UG0IBDCWGT28BPLDX87LPG7","A34SUZWGLXIWM8","33Q5P9PUSP8QOKKNNN5S19YACNVCZX","","<img src=""img/set1/S1.jpg"" width=""540"" height = ""360"" style=""border:16px solid orange"">","null","","","","","","","",""
"null","","html-keyboard-response","157","174768","0.0-86.0","3B1NLC6UG0IBDCWGT28BPLDX87LPG7","A34SUZWGLXIWM8","33Q5P9PUSP8QOKKNNN5S19YACNVCZX","","","null","","","","","","","",""
"660.5","","image-keyboard-response","158","175429","0.0-87.0","3B1NLC6UG0IBDCWGT28BPLDX87LPG7","A34SUZWGLXIWM8","33Q5P9PUSP8QOKKNNN5S19YACNVCZX","","img/set1/S2.jpg","68","2","structured_normal","68","true","structured_normal,random,structured_incentive","2,3,1,2","",""
"null","","html-keyboard-response","159","175781","0.0-88.0","3B1NLC6UG0IBDCWGT28BPLDX87LPG7","A34SUZWGLXIWM8","33Q5P9PUSP8QOKKNNN5S19YACNVCZX","","<img src=""img/set1/S2.jpg"" width=""540"" height = ""360"" style=""border:16px solid orange"">","null","","","","","","","",""
"null","","html-keyboard-response","160","175783","0.0-89.0","3B1NLC6UG0IBDCWGT28BPLDX87LPG7","A34SUZWGLXIWM8","33Q5P9PUSP8QOKKNNN5S19YACNVCZX","","","null","","","","","","","",""
"773.4000000953674","","image-keyboard-response","161","176558","0.0-90.0","3B1NLC6UG0IBDCWGT28BPLDX87LPG7","A34SUZWGLXIWM8","33Q5P9PUSP8QOKKNNN5S19YACNVCZX","","img/set1/S3.jpg","72","3","structured_normal","72","true","structured_normal,random,structured_incentive","2,3,1,2","",""
"null","","html-keyboard-response","162","176909","0.0-91.0","3B1NLC6UG0IBDCWGT28BPLDX87LPG7","A34SUZWGLXIWM8","33Q5P9PUSP8QOKKNNN5S19YACNVCZX","","<img src=""img/set1/S3.jpg"" width=""540"" height = ""360"" style=""border:16px solid orange"">","null","","","","","","","",""
"null","","html-keyboard-response","163","176911","0.0-92.0","3B1NLC6UG0IBDCWGT28BPLDX87LPG7","A34SUZWGLXIWM8","33Q5P9PUSP8QOKKNNN5S19YACNVCZX","","","null","","","","","","","",""
"814","","image-keyboard-response","164","177725","0.0-93.0","3B1NLC6UG0IBDCWGT28BPLDX87LPG7","A34SUZWGLXIWM8","33Q5P9PUSP8QOKKNNN5S19YACNVCZX","","img/set1/S4.jpg","83","4","structured_normal","74","false","structured_normal,random,structured_incentive","2,3,1,2","",""
"null","","html-keyboard-response","165","178077","0.0-94.0","3B1NLC6UG0IBDCWGT28BPLDX87LPG7","A34SUZWGLXIWM8","33Q5P9PUSP8QOKKNNN5S19YACNVCZX","","<img src=""img/set1/S4.jpg"" width=""540"" height = ""360"">","null","","","","","","","",""
"null","","html-keyboard-response","166","178080","0.0-95.0","3B1NLC6UG0IBDCWGT28BPLDX87LPG7","A34SUZWGLXIWM8","33Q5P9PUSP8QOKKNNN5S19YACNVCZX","","","null","","","","","","","",""
"757","","image-keyboard-response","167","178837","0.0-96.0","3B1NLC6UG0IBDCWGT28BPLDX87LPG7","A34SUZWGLXIWM8","33Q5P9PUSP8QOKKNNN5S19YACNVCZX","","img/set1/S2.jpg","68","2","structured_normal","68","true","structured_normal,random,structured_incentive","2,3,1,2","",""
"null","","html-keyboard-response","168","179189","0.0-97.0","3B1NLC6UG0IBDCWGT28BPLDX87LPG7","A34SUZWGLXIWM8","33Q5P9PUSP8QOKKNNN5S19YACNVCZX","","<img src=""img/set1/S2.jpg"" width=""540"" height = ""360"" style=""border:16px solid orange"">","null","","","","","","","",""
"null","","html-keyboard-response","169","179190","0.0-98.0","3B1NLC6UG0IBDCWGT28BPLDX87LPG7","A34SUZWGLXIWM8","33Q5P9PUSP8QOKKNNN5S19YACNVCZX","","","null","","","","","","","",""
"838.2000002861023","","image-keyboard-response","170","180029","0.0-99.0","3B1NLC6UG0IBDCWGT28BPLDX87LPG7","A34SUZWGLXIWM8","33Q5P9PUSP8QOKKNNN5S19YACNVCZX","","img/set1/S3.jpg","72","3","structured_normal","72","true","structured_normal,random,structured_incentive","2,3,1,2","",""
"null","","html-keyboard-response","171","180380","0.0-100.0","3B1NLC6UG0IBDCWGT28BPLDX87LPG7","A34SUZWGLXIWM8","33Q5P9PUSP8QOKKNNN5S19YACNVCZX","","<img src=""img/set1/S3.jpg"" width=""540"" height = ""360"" style=""border:16px solid orange"">","null","","","","","","","",""
"null","","html-keyboard-response","172","180382","0.0-101.0","3B1NLC6UG0IBDCWGT28BPLDX87LPG7","A34SUZWGLXIWM8","33Q5P9PUSP8QOKKNNN5S19YACNVCZX","","","null","","","","","","","",""
"646.5","","image-keyboard-response","173","181030","0.0-102.0","3B1NLC6UG0IBDCWGT28BPLDX87LPG7","A34SUZWGLXIWM8","33Q5P9PUSP8QOKKNNN5S19YACNVCZX","","img/set1/S4.jpg","68","4","structured_normal","74","false","structured_normal,random,structured_incentive","2,3,1,2","",""
"null","","html-keyboard-response","174","181380","0.0-103.0","3B1NLC6UG0IBDCWGT28BPLDX87LPG7","A34SUZWGLXIWM8","33Q5P9PUSP8QOKKNNN5S19YACNVCZX","","<img src=""img/set1/S4.jpg"" width=""540"" height = ""360"">","null","","","","","","","",""
"null","","html-keyboard-response","175","181382","0.0-104.0","3B1NLC6UG0IBDCWGT28BPLDX87LPG7","A34SUZWGLXIWM8","33Q5P9PUSP8QOKKNNN5S19YACNVCZX","","","null","","","","","","","",""
"766.5","","image-keyboard-response","176","182149","0.0-105.0","3B1NLC6UG0IBDCWGT28BPLDX87LPG7","A34SUZWGLXIWM8","33Q5P9PUSP8QOKKNNN5S19YACNVCZX","","img/set1/S1.jpg","83","1","structured_normal","83","true","structured_normal,random,structured_incentive","2,3,1,2","",""
"null","","html-keyboard-response","177","182501","0.0-106.0","3B1NLC6UG0IBDCWGT28BPLDX87LPG7","A34SUZWGLXIWM8","33Q5P9PUSP8QOKKNNN5S19YACNVCZX","","<img src=""img/set1/S1.jpg"" width=""540"" height = ""360"" style=""border:16px solid orange"">","null","","","","","","","",""
"null","","html-keyboard-response","178","182503","0.0-107.0","3B1NLC6UG0IBDCWGT28BPLDX87LPG7","A34SUZWGLXIWM8","33Q5P9PUSP8QOKKNNN5S19YACNVCZX","","","null","","","","","","","",""
"766.3000001907349","","image-keyboard-response","179","183269","0.0-108.0","3B1NLC6UG0IBDCWGT28BPLDX87LPG7","A34SUZWGLXIWM8","33Q5P9PUSP8QOKKNNN5S19YACNVCZX","","img/set1/S2.jpg","74","2","structured_normal","68","false","structured_normal,random,structured_incentive","2,3,1,2","",""
"null","","html-keyboard-response","180","183621","0.0-109.0","3B1NLC6UG0IBDCWGT28BPLDX87LPG7","A34SUZWGLXIWM8","33Q5P9PUSP8QOKKNNN5S19YACNVCZX","","<img src=""img/set1/S2.jpg"" width=""540"" height = ""360"">","null","","","","","","","",""
"null","","html-keyboard-response","181","183623","0.0-110.0","3B1NLC6UG0IBDCWGT28BPLDX87LPG7","A34SUZWGLXIWM8","33Q5P9PUSP8QOKKNNN5S19YACNVCZX","","","null","","","","","","","",""
"29.100000381469727","","image-keyboard-response","182","183653","0.0-111.0","3B1NLC6UG0IBDCWGT28BPLDX87LPG7","A34SUZWGLXIWM8","33Q5P9PUSP8QOKKNNN5S19YACNVCZX","","img/set1/S3.jpg","68","3","structured_normal","72","false","structured_normal,random,structured_incentive","2,3,1,2","",""
"null","","html-keyboard-response","183","184005","0.0-112.0","3B1NLC6UG0IBDCWGT28BPLDX87LPG7","A34SUZWGLXIWM8","33Q5P9PUSP8QOKKNNN5S19YACNVCZX","","<img src=""img/set1/S3.jpg"" width=""540"" height = ""360"">","null","","","","","","","",""
"null","","html-keyboard-response","184","184006","0.0-113.0","3B1NLC6UG0IBDCWGT28BPLDX87LPG7","A34SUZWGLXIWM8","33Q5P9PUSP8QOKKNNN5S19YACNVCZX","","","null","","","","","","","",""
"550.2999997138977","","image-keyboard-response","185","184557","0.0-114.0","3B1NLC6UG0IBDCWGT28BPLDX87LPG7","A34SUZWGLXIWM8","33Q5P9PUSP8QOKKNNN5S19YACNVCZX","","img/set1/S2.jpg","72","2","structured_normal","68","false","structured_normal,random,structured_incentive","2,3,1,2","",""
"null","","html-keyboard-response","186","184909","0.0-115.0","3B1NLC6UG0IBDCWGT28BPLDX87LPG7","A34SUZWGLXIWM8","33Q5P9PUSP8QOKKNNN5S19YACNVCZX","","<img src=""img/set1/S2.jpg"" width=""540"" height = ""360"">","null","","","","","","","",""
"null","","html-keyboard-response","187","184912","0.0-116.0","3B1NLC6UG0IBDCWGT28BPLDX87LPG7","A34SUZWGLXIWM8","33Q5P9PUSP8QOKKNNN5S19YACNVCZX","","","null","","","","","","","",""
"1116.2999997138977","","image-keyboard-response","188","186029","0.0-117.0","3B1NLC6UG0IBDCWGT28BPLDX87LPG7","A34SUZWGLXIWM8","33Q5P9PUSP8QOKKNNN5S19YACNVCZX","","img/set1/S4.jpg","68","4","structured_normal","74","false","structured_normal,random,structured_incentive","2,3,1,2","",""
"null","","html-keyboard-response","189","186381","0.0-118.0","3B1NLC6UG0IBDCWGT28BPLDX87LPG7","A34SUZWGLXIWM8","33Q5P9PUSP8QOKKNNN5S19YACNVCZX","","<img src=""img/set1/S4.jpg"" width=""540"" height = ""360"">","null","","","","","","","",""
"null","","html-keyboard-response","190","186384","0.0-119.0","3B1NLC6UG0IBDCWGT28BPLDX87LPG7","A34SUZWGLXIWM8","33Q5P9PUSP8QOKKNNN5S19YACNVCZX","","","null","","","","","","","",""
"565.2000002861023","","image-keyboard-response","191","186949","0.0-120.0","3B1NLC6UG0IBDCWGT28BPLDX87LPG7","A34SUZWGLXIWM8","33Q5P9PUSP8QOKKNNN5S19YACNVCZX","","img/set1/S1.jpg","83","1","structured_normal","83","true","structured_normal,random,structured_incentive","2,3,1,2","",""
"null","","html-keyboard-response","192","187301","0.0-121.0","3B1NLC6UG0IBDCWGT28BPLDX87LPG7","A34SUZWGLXIWM8","33Q5P9PUSP8QOKKNNN5S19YACNVCZX","","<img src=""img/set1/S1.jpg"" width=""540"" height = ""360"" style=""border:16px solid orange"">","null","","","","","","","",""
"null","","html-keyboard-response","193","187303","0.0-122.0","3B1NLC6UG0IBDCWGT28BPLDX87LPG7","A34SUZWGLXIWM8","33Q5P9PUSP8QOKKNNN5S19YACNVCZX","","","null","","","","","","","",""
"734","","image-keyboard-response","194","188037","0.0-123.0","3B1NLC6UG0IBDCWGT28BPLDX87LPG7","A34SUZWGLXIWM8","33Q5P9PUSP8QOKKNNN5S19YACNVCZX","","img/set1/S2.jpg","68","2","structured_normal","68","true","structured_normal,random,structured_incentive","2,3,1,2","",""
"null","","html-keyboard-response","195","188390","0.0-124.0","3B1NLC6UG0IBDCWGT28BPLDX87LPG7","A34SUZWGLXIWM8","33Q5P9PUSP8QOKKNNN5S19YACNVCZX","","<img src=""img/set1/S2.jpg"" width=""540"" height = ""360"" style=""border:16px solid orange"">","null","","","","","","","",""
"null","","html-keyboard-response","196","188393","0.0-125.0","3B1NLC6UG0IBDCWGT28BPLDX87LPG7","A34SUZWGLXIWM8","33Q5P9PUSP8QOKKNNN5S19YACNVCZX","","","null","","","","","","","",""
"629.5","","image-keyboard-response","197","189023","0.0-126.0","3B1NLC6UG0IBDCWGT28BPLDX87LPG7","A34SUZWGLXIWM8","33Q5P9PUSP8QOKKNNN5S19YACNVCZX","","img/set1/S3.jpg","72","3","structured_normal","72","true","structured_normal,random,structured_incentive","2,3,1,2","",""
"null","","html-keyboard-response","198","189374","0.0-127.0","3B1NLC6UG0IBDCWGT28BPLDX87LPG7","A34SUZWGLXIWM8","33Q5P9PUSP8QOKKNNN5S19YACNVCZX","","<img src=""img/set1/S3.jpg"" width=""540"" height = ""360"" style=""border:16px solid orange"">","null","","","","","","","",""
"null","","html-keyboard-response","199","189376","0.0-128.0","3B1NLC6UG0IBDCWGT28BPLDX87LPG7","A34SUZWGLXIWM8","33Q5P9PUSP8QOKKNNN5S19YACNVCZX","","","null","","","","","","","",""
"812.8000001907349","","image-keyboard-response","200","190190","0.0-129.0","3B1NLC6UG0IBDCWGT28BPLDX87LPG7","A34SUZWGLXIWM8","33Q5P9PUSP8QOKKNNN5S19YACNVCZX","","img/set1/S2.jpg","68","2","structured_normal","68","true","structured_normal,random,structured_incentive","2,3,1,2","",""
"null","","html-keyboard-response","201","190541","0.0-130.0","3B1NLC6UG0IBDCWGT28BPLDX87LPG7","A34SUZWGLXIWM8","33Q5P9PUSP8QOKKNNN5S19YACNVCZX","","<img src=""img/set1/S2.jpg"" width=""540"" height = ""360"" style=""border:16px solid orange"">","null","","","","","","","",""
"null","","html-keyboard-response","202","190543","0.0-131.0","3B1NLC6UG0IBDCWGT28BPLDX87LPG7","A34SUZWGLXIWM8","33Q5P9PUSP8QOKKNNN5S19YACNVCZX","","","null","","","","","","","",""
"597.8000001907349","","image-keyboard-response","203","191141","0.0-132.0","3B1NLC6UG0IBDCWGT28BPLDX87LPG7","A34SUZWGLXIWM8","33Q5P9PUSP8QOKKNNN5S19YACNVCZX","","img/set1/S3.jpg","72","3","structured_normal","72","true","structured_normal,random,structured_incentive","2,3,1,2","",""
"null","","html-keyboard-response","204","191492","0.0-133.0","3B1NLC6UG0IBDCWGT28BPLDX87LPG7","A34SUZWGLXIWM8","33Q5P9PUSP8QOKKNNN5S19YACNVCZX","","<img src=""img/set1/S3.jpg"" width=""540"" height = ""360"" style=""border:16px solid orange"">","null","","","","","","","",""
"null","","html-keyboard-response","205","191494","0.0-134.0","3B1NLC6UG0IBDCWGT28BPLDX87LPG7","A34SUZWGLXIWM8","33Q5P9PUSP8QOKKNNN5S19YACNVCZX","","","null","","","","","","","",""
"526.3000001907349","","image-keyboard-response","206","192021","0.0-135.0","3B1NLC6UG0IBDCWGT28BPLDX87LPG7","A34SUZWGLXIWM8","33Q5P9PUSP8QOKKNNN5S19YACNVCZX","","img/set1/S2.jpg","68","2","structured_normal","68","true","structured_normal,random,structured_incentive","2,3,1,2","",""
"null","","html-keyboard-response","207","192373","0.0-136.0","3B1NLC6UG0IBDCWGT28BPLDX87LPG7","A34SUZWGLXIWM8","33Q5P9PUSP8QOKKNNN5S19YACNVCZX","","<img src=""img/set1/S2.jpg"" width=""540"" height = ""360"" style=""border:16px solid orange"">","null","","","","","","","",""
"null","","html-keyboard-response","208","192375","0.0-137.0","3B1NLC6UG0IBDCWGT28BPLDX87LPG7","A34SUZWGLXIWM8","33Q5P9PUSP8QOKKNNN5S19YACNVCZX","","","null","","","","","","","",""
"621.5","","image-keyboard-response","209","192997","0.0-138.0","3B1NLC6UG0IBDCWGT28BPLDX87LPG7","A34SUZWGLXIWM8","33Q5P9PUSP8QOKKNNN5S19YACNVCZX","","img/set1/S3.jpg","72","3","structured_normal","72","true","structured_normal,random,structured_incentive","2,3,1,2","",""
"null","","html-keyboard-response","210","193348","0.0-139.0","3B1NLC6UG0IBDCWGT28BPLDX87LPG7","A34SUZWGLXIWM8","33Q5P9PUSP8QOKKNNN5S19YACNVCZX","","<img src=""img/set1/S3.jpg"" width=""540"" height = ""360"" style=""border:16px solid orange"">","null","","","","","","","",""
"null","","html-keyboard-response","211","193351","0.0-140.0","3B1NLC6UG0IBDCWGT28BPLDX87LPG7","A34SUZWGLXIWM8","33Q5P9PUSP8QOKKNNN5S19YACNVCZX","","","null","","","","","","","",""
"717.5","","image-keyboard-response","212","194069","0.0-141.0","3B1NLC6UG0IBDCWGT28BPLDX87LPG7","A34SUZWGLXIWM8","33Q5P9PUSP8QOKKNNN5S19YACNVCZX","","img/set1/S4.jpg","74","4","structured_normal","74","true","structured_normal,random,structured_incentive","2,3,1,2","",""
"null","","html-keyboard-response","213","194421","0.0-142.0","3B1NLC6UG0IBDCWGT28BPLDX87LPG7","A34SUZWGLXIWM8","33Q5P9PUSP8QOKKNNN5S19YACNVCZX","","<img src=""img/set1/S4.jpg"" width=""540"" height = ""360"" style=""border:16px solid orange"">","null","","","","","","","",""
"null","","html-keyboard-response","214","194423","0.0-143.0","3B1NLC6UG0IBDCWGT28BPLDX87LPG7","A34SUZWGLXIWM8","33Q5P9PUSP8QOKKNNN5S19YACNVCZX","","","null","","","","","","","",""
"662","","image-keyboard-response","215","195085","0.0-144.0","3B1NLC6UG0IBDCWGT28BPLDX87LPG7","A34SUZWGLXIWM8","33Q5P9PUSP8QOKKNNN5S19YACNVCZX","","img/set1/S1.jpg","83","1","structured_normal","83","true","structured_normal,random,structured_incentive","2,3,1,2","",""
"null","","html-keyboard-response","216","195437","0.0-145.0","3B1NLC6UG0IBDCWGT28BPLDX87LPG7","A34SUZWGLXIWM8","33Q5P9PUSP8QOKKNNN5S19YACNVCZX","","<img src=""img/set1/S1.jpg"" width=""540"" height = ""360"" style=""border:16px solid orange"">","null","","","","","","","",""
"null","","html-keyboard-response","217","195440","0.0-146.0","3B1NLC6UG0IBDCWGT28BPLDX87LPG7","A34SUZWGLXIWM8","33Q5P9PUSP8QOKKNNN5S19YACNVCZX","","","null","","","","","","","",""
"476.5","","image-keyboard-response","218","195917","0.0-147.0","3B1NLC6UG0IBDCWGT28BPLDX87LPG7","A34SUZWGLXIWM8","33Q5P9PUSP8QOKKNNN5S19YACNVCZX","","img/set1/S1.jpg","83","1","structured_normal","83","true","structured_normal,random,structured_incentive","2,3,1,2","",""
"null","","html-keyboard-response","219","196269","0.0-148.0","3B1NLC6UG0IBDCWGT28BPLDX87LPG7","A34SUZWGLXIWM8","33Q5P9PUSP8QOKKNNN5S19YACNVCZX","","<img src=""img/set1/S1.jpg"" width=""540"" height = ""360"" style=""border:16px solid orange"">","null","","","","","","","",""
"null","","html-keyboard-response","220","196272","0.0-149.0","3B1NLC6UG0IBDCWGT28BPLDX87LPG7","A34SUZWGLXIWM8","33Q5P9PUSP8QOKKNNN5S19YACNVCZX","","","null","","","","","","","",""
"444.69999980926514","","image-keyboard-response","221","196717","0.0-150.0","3B1NLC6UG0IBDCWGT28BPLDX87LPG7","A34SUZWGLXIWM8","33Q5P9PUSP8QOKKNNN5S19YACNVCZX","","img/set1/S1.jpg","83","1","structured_normal","83","true","structured_normal,random,structured_incentive","2,3,1,2","",""
"null","","html-keyboard-response","222","197069","0.0-151.0","3B1NLC6UG0IBDCWGT28BPLDX87LPG7","A34SUZWGLXIWM8","33Q5P9PUSP8QOKKNNN5S19YACNVCZX","","<img src=""img/set1/S1.jpg"" width=""540"" height = ""360"" style=""border:16px solid orange"">","null","","","","","","","",""
"null","","html-keyboard-response","223","197072","0.0-152.0","3B1NLC6UG0IBDCWGT28BPLDX87LPG7","A34SUZWGLXIWM8","33Q5P9PUSP8QOKKNNN5S19YACNVCZX","","","null","","","","","","","",""
"604.5999999046326","","image-keyboard-response","224","197677","0.0-153.0","3B1NLC6UG0IBDCWGT28BPLDX87LPG7","A34SUZWGLXIWM8","33Q5P9PUSP8QOKKNNN5S19YACNVCZX","","img/set1/S3.jpg","74","3","structured_normal","72","false","structured_normal,random,structured_incentive","2,3,1,2","",""
"null","","html-keyboard-response","225","198029","0.0-154.0","3B1NLC6UG0IBDCWGT28BPLDX87LPG7","A34SUZWGLXIWM8","33Q5P9PUSP8QOKKNNN5S19YACNVCZX","","<img src=""img/set1/S3.jpg"" width=""540"" height = ""360"">","null","","","","","","","",""
"null","","html-keyboard-response","226","198032","0.0-155.0","3B1NLC6UG0IBDCWGT28BPLDX87LPG7","A34SUZWGLXIWM8","33Q5P9PUSP8QOKKNNN5S19YACNVCZX","","","null","","","","","","","",""
"717.2000002861023","","image-keyboard-response","227","198750","0.0-156.0","3B1NLC6UG0IBDCWGT28BPLDX87LPG7","A34SUZWGLXIWM8","33Q5P9PUSP8QOKKNNN5S19YACNVCZX","","img/set1/S2.jpg","68","2","structured_normal","68","true","structured_normal,random,structured_incentive","2,3,1,2","",""
"null","","html-keyboard-response","228","199100","0.0-157.0","3B1NLC6UG0IBDCWGT28BPLDX87LPG7","A34SUZWGLXIWM8","33Q5P9PUSP8QOKKNNN5S19YACNVCZX","","<img src=""img/set1/S2.jpg"" width=""540"" height = ""360"" style=""border:16px solid orange"">","null","","","","","","","",""
"null","","html-keyboard-response","229","199103","0.0-158.0","3B1NLC6UG0IBDCWGT28BPLDX87LPG7","A34SUZWGLXIWM8","33Q5P9PUSP8QOKKNNN5S19YACNVCZX","","","null","","","","","","","",""
"549.1999998092651","","image-keyboard-response","230","199653","0.0-159.0","3B1NLC6UG0IBDCWGT28BPLDX87LPG7","A34SUZWGLXIWM8","33Q5P9PUSP8QOKKNNN5S19YACNVCZX","","img/set1/S3.jpg","72","3","structured_normal","72","true","structured_normal,random,structured_incentive","2,3,1,2","",""
"null","","html-keyboard-response","231","200005","0.0-160.0","3B1NLC6UG0IBDCWGT28BPLDX87LPG7","A34SUZWGLXIWM8","33Q5P9PUSP8QOKKNNN5S19YACNVCZX","","<img src=""img/set1/S3.jpg"" width=""540"" height = ""360"" style=""border:16px solid orange"">","null","","","","","","","",""
"null","","html-keyboard-response","232","200008","0.0-161.0","3B1NLC6UG0IBDCWGT28BPLDX87LPG7","A34SUZWGLXIWM8","33Q5P9PUSP8QOKKNNN5S19YACNVCZX","","","null","","","","","","","",""
"733","","image-keyboard-response","233","200741","0.0-162.0","3B1NLC6UG0IBDCWGT28BPLDX87LPG7","A34SUZWGLXIWM8","33Q5P9PUSP8QOKKNNN5S19YACNVCZX","","img/set1/S4.jpg","74","4","structured_normal","74","true","structured_normal,random,structured_incentive","2,3,1,2","",""
"null","","html-keyboard-response","234","201094","0.0-163.0","3B1NLC6UG0IBDCWGT28BPLDX87LPG7","A34SUZWGLXIWM8","33Q5P9PUSP8QOKKNNN5S19YACNVCZX","","<img src=""img/set1/S4.jpg"" width=""540"" height = ""360"" style=""border:16px solid orange"">","null","","","","","","","",""
"null","","html-keyboard-response","235","201096","0.0-164.0","3B1NLC6UG0IBDCWGT28BPLDX87LPG7","A34SUZWGLXIWM8","33Q5P9PUSP8QOKKNNN5S19YACNVCZX","","","null","","","","","","","",""
"477.1000003814697","","image-keyboard-response","236","201573","0.0-165.0","3B1NLC6UG0IBDCWGT28BPLDX87LPG7","A34SUZWGLXIWM8","33Q5P9PUSP8QOKKNNN5S19YACNVCZX","","img/set1/S4.jpg","74","4","structured_normal","74","true","structured_normal,random,structured_incentive","2,3,1,2","",""
"null","","html-keyboard-response","237","201925","0.0-166.0","3B1NLC6UG0IBDCWGT28BPLDX87LPG7","A34SUZWGLXIWM8","33Q5P9PUSP8QOKKNNN5S19YACNVCZX","","<img src=""img/set1/S4.jpg"" width=""540"" height = ""360"" style=""border:16px solid orange"">","null","","","","","","","",""
"null","","html-keyboard-response","238","201927","0.0-167.0","3B1NLC6UG0IBDCWGT28BPLDX87LPG7","A34SUZWGLXIWM8","33Q5P9PUSP8QOKKNNN5S19YACNVCZX","","","null","","","","","","","",""
"693.7999997138977","","image-keyboard-response","239","202621","0.0-168.0","3B1NLC6UG0IBDCWGT28BPLDX87LPG7","A34SUZWGLXIWM8","33Q5P9PUSP8QOKKNNN5S19YACNVCZX","","img/set1/S2.jpg","68","2","structured_normal","68","true","structured_normal,random,structured_incentive","2,3,1,2","",""
"null","","html-keyboard-response","240","202972","0.0-169.0","3B1NLC6UG0IBDCWGT28BPLDX87LPG7","A34SUZWGLXIWM8","33Q5P9PUSP8QOKKNNN5S19YACNVCZX","","<img src=""img/set1/S2.jpg"" width=""540"" height = ""360"" style=""border:16px solid orange"">","null","","","","","","","",""
"null","","html-keyboard-response","241","202975","0.0-170.0","3B1NLC6UG0IBDCWGT28BPLDX87LPG7","A34SUZWGLXIWM8","33Q5P9PUSP8QOKKNNN5S19YACNVCZX","","","null","","","","","","","",""
"693.5","","image-keyboard-response","242","203669","0.0-171.0","3B1NLC6UG0IBDCWGT28BPLDX87LPG7","A34SUZWGLXIWM8","33Q5P9PUSP8QOKKNNN5S19YACNVCZX","","img/set1/S4.jpg","74","4","structured_normal","74","true","structured_normal,random,structured_incentive","2,3,1,2","",""
"null","","html-keyboard-response","243","204021","0.0-172.0","3B1NLC6UG0IBDCWGT28BPLDX87LPG7","A34SUZWGLXIWM8","33Q5P9PUSP8QOKKNNN5S19YACNVCZX","","<img src=""img/set1/S4.jpg"" width=""540"" height = ""360"" style=""border:16px solid orange"">","null","","","","","","","",""
"null","","html-keyboard-response","244","204023","0.0-173.0","3B1NLC6UG0IBDCWGT28BPLDX87LPG7","A34SUZWGLXIWM8","33Q5P9PUSP8QOKKNNN5S19YACNVCZX","","","null","","","","","","","",""
"669.5","","image-keyboard-response","245","204693","0.0-174.0","3B1NLC6UG0IBDCWGT28BPLDX87LPG7","A34SUZWGLXIWM8","33Q5P9PUSP8QOKKNNN5S19YACNVCZX","","img/set1/S1.jpg","83","1","structured_normal","83","true","structured_normal,random,structured_incentive","2,3,1,2","",""
"null","","html-keyboard-response","246","205045","0.0-175.0","3B1NLC6UG0IBDCWGT28BPLDX87LPG7","A34SUZWGLXIWM8","33Q5P9PUSP8QOKKNNN5S19YACNVCZX","","<img src=""img/set1/S1.jpg"" width=""540"" height = ""360"" style=""border:16px solid orange"">","null","","","","","","","",""
"null","","html-keyboard-response","247","205048","0.0-176.0","3B1NLC6UG0IBDCWGT28BPLDX87LPG7","A34SUZWGLXIWM8","33Q5P9PUSP8QOKKNNN5S19YACNVCZX","","","null","","","","","","","",""
"884.5999999046326","","image-keyboard-response","248","205933","0.0-177.0","3B1NLC6UG0IBDCWGT28BPLDX87LPG7","A34SUZWGLXIWM8","33Q5P9PUSP8QOKKNNN5S19YACNVCZX","","img/set1/S2.jpg","68","2","structured_normal","68","true","structured_normal,random,structured_incentive","2,3,1,2","",""
"null","","html-keyboard-response","249","206286","0.0-178.0","3B1NLC6UG0IBDCWGT28BPLDX87LPG7","A34SUZWGLXIWM8","33Q5P9PUSP8QOKKNNN5S19YACNVCZX","","<img src=""img/set1/S2.jpg"" width=""540"" height = ""360"" style=""border:16px solid orange"">","null","","","","","","","",""
"null","","html-keyboard-response","250","206287","0.0-179.0","3B1NLC6UG0IBDCWGT28BPLDX87LPG7","A34SUZWGLXIWM8","33Q5P9PUSP8QOKKNNN5S19YACNVCZX","","","null","","","","","","","",""
"605.0999999046326","","image-keyboard-response","251","206893","0.0-180.0","3B1NLC6UG0IBDCWGT28BPLDX87LPG7","A34SUZWGLXIWM8","33Q5P9PUSP8QOKKNNN5S19YACNVCZX","","img/set1/S3.jpg","72","3","structured_normal","72","true","structured_normal,random,structured_incentive","2,3,1,2","",""
"null","","html-keyboard-response","252","207244","0.0-181.0","3B1NLC6UG0IBDCWGT28BPLDX87LPG7","A34SUZWGLXIWM8","33Q5P9PUSP8QOKKNNN5S19YACNVCZX","","<img src=""img/set1/S3.jpg"" width=""540"" height = ""360"" style=""border:16px solid orange"">","null","","","","","","","",""
"null","","html-keyboard-response","253","207247","0.0-182.0","3B1NLC6UG0IBDCWGT28BPLDX87LPG7","A34SUZWGLXIWM8","33Q5P9PUSP8QOKKNNN5S19YACNVCZX","","","null","","","","","","","",""
"765.1999998092651","","image-keyboard-response","254","208013","0.0-183.0","3B1NLC6UG0IBDCWGT28BPLDX87LPG7","A34SUZWGLXIWM8","33Q5P9PUSP8QOKKNNN5S19YACNVCZX","","img/set1/S2.jpg","68","2","structured_normal","68","true","structured_normal,random,structured_incentive","2,3,1,2","",""
"null","","html-keyboard-response","255","208365","0.0-184.0","3B1NLC6UG0IBDCWGT28BPLDX87LPG7","A34SUZWGLXIWM8","33Q5P9PUSP8QOKKNNN5S19YACNVCZX","","<img src=""img/set1/S2.jpg"" width=""540"" height = ""360"" style=""border:16px solid orange"">","null","","","","","","","",""
"null","","html-keyboard-response","256","208366","0.0-185.0","3B1NLC6UG0IBDCWGT28BPLDX87LPG7","A34SUZWGLXIWM8","33Q5P9PUSP8QOKKNNN5S19YACNVCZX","","","null","","","","","","","",""
"662.1999998092651","","image-keyboard-response","257","209029","0.0-186.0","3B1NLC6UG0IBDCWGT28BPLDX87LPG7","A34SUZWGLXIWM8","33Q5P9PUSP8QOKKNNN5S19YACNVCZX","","img/set1/S3.jpg","72","3","structured_normal","72","true","structured_normal,random,structured_incentive","2,3,1,2","",""
"null","","html-keyboard-response","258","209381","0.0-187.0","3B1NLC6UG0IBDCWGT28BPLDX87LPG7","A34SUZWGLXIWM8","33Q5P9PUSP8QOKKNNN5S19YACNVCZX","","<img src=""img/set1/S3.jpg"" width=""540"" height = ""360"" style=""border:16px solid orange"">","null","","","","","","","",""
"null","","html-keyboard-response","259","209384","0.0-188.0","3B1NLC6UG0IBDCWGT28BPLDX87LPG7","A34SUZWGLXIWM8","33Q5P9PUSP8QOKKNNN5S19YACNVCZX","","","null","","","","","","","",""
"789","","image-keyboard-response","260","210173","0.0-189.0","3B1NLC6UG0IBDCWGT28BPLDX87LPG7","A34SUZWGLXIWM8","33Q5P9PUSP8QOKKNNN5S19YACNVCZX","","img/set1/S4.jpg","74","4","structured_normal","74","true","structured_normal,random,structured_incentive","2,3,1,2","",""
"null","","html-keyboard-response","261","210525","0.0-190.0","3B1NLC6UG0IBDCWGT28BPLDX87LPG7","A34SUZWGLXIWM8","33Q5P9PUSP8QOKKNNN5S19YACNVCZX","","<img src=""img/set1/S4.jpg"" width=""540"" height = ""360"" style=""border:16px solid orange"">","null","","","","","","","",""
"null","","html-keyboard-response","262","210527","0.0-191.0","3B1NLC6UG0IBDCWGT28BPLDX87LPG7","A34SUZWGLXIWM8","33Q5P9PUSP8QOKKNNN5S19YACNVCZX","","","null","","","","","","","",""
"485.7000002861023","","image-keyboard-response","263","211013","0.0-192.0","3B1NLC6UG0IBDCWGT28BPLDX87LPG7","A34SUZWGLXIWM8","33Q5P9PUSP8QOKKNNN5S19YACNVCZX","","img/set1/S4.jpg","74","4","structured_normal","74","true","structured_normal,random,structured_incentive","2,3,1,2","",""
"null","","html-keyboard-response","264","211365","0.0-193.0","3B1NLC6UG0IBDCWGT28BPLDX87LPG7","A34SUZWGLXIWM8","33Q5P9PUSP8QOKKNNN5S19YACNVCZX","","<img src=""img/set1/S4.jpg"" width=""540"" height = ""360"" style=""border:16px solid orange"">","null","","","","","","","",""
"null","","html-keyboard-response","265","211367","0.0-194.0","3B1NLC6UG0IBDCWGT28BPLDX87LPG7","A34SUZWGLXIWM8","33Q5P9PUSP8QOKKNNN5S19YACNVCZX","","","null","","","","","","","",""
"421.19999980926514","","image-keyboard-response","266","211789","0.0-195.0","3B1NLC6UG0IBDCWGT28BPLDX87LPG7","A34SUZWGLXIWM8","33Q5P9PUSP8QOKKNNN5S19YACNVCZX","","img/set1/S4.jpg","74","4","structured_normal","74","true","structured_normal,random,structured_incentive","2,3,1,2","",""
"null","","html-keyboard-response","267","212141","0.0-196.0","3B1NLC6UG0IBDCWGT28BPLDX87LPG7","A34SUZWGLXIWM8","33Q5P9PUSP8QOKKNNN5S19YACNVCZX","","<img src=""img/set1/S4.jpg"" width=""540"" height = ""360"" style=""border:16px solid orange"">","null","","","","","","","",""
"null","","html-keyboard-response","268","212143","0.0-197.0","3B1NLC6UG0IBDCWGT28BPLDX87LPG7","A34SUZWGLXIWM8","33Q5P9PUSP8QOKKNNN5S19YACNVCZX","","","null","","","","","","","",""
"685.9000000953674","","image-keyboard-response","269","212829","0.0-198.0","3B1NLC6UG0IBDCWGT28BPLDX87LPG7","A34SUZWGLXIWM8","33Q5P9PUSP8QOKKNNN5S19YACNVCZX","","img/set1/S3.jpg","68","3","structured_normal","72","false","structured_normal,random,structured_incentive","2,3,1,2","",""
"null","","html-keyboard-response","270","213182","0.0-199.0","3B1NLC6UG0IBDCWGT28BPLDX87LPG7","A34SUZWGLXIWM8","33Q5P9PUSP8QOKKNNN5S19YACNVCZX","","<img src=""img/set1/S3.jpg"" width=""540"" height = ""360"">","null","","","","","","","",""
"null","","html-keyboard-response","271","213184","0.0-200.0","3B1NLC6UG0IBDCWGT28BPLDX87LPG7","A34SUZWGLXIWM8","33Q5P9PUSP8QOKKNNN5S19YACNVCZX","","","null","","","","","","","",""
"965.2000002861023","","image-keyboard-response","272","214149","0.0-201.0","3B1NLC6UG0IBDCWGT28BPLDX87LPG7","A34SUZWGLXIWM8","33Q5P9PUSP8QOKKNNN5S19YACNVCZX","","img/set1/S4.jpg","68","4","structured_normal","74","false","structured_normal,random,structured_incentive","2,3,1,2","",""
"null","","html-keyboard-response","273","214502","0.0-202.0","3B1NLC6UG0IBDCWGT28BPLDX87LPG7","A34SUZWGLXIWM8","33Q5P9PUSP8QOKKNNN5S19YACNVCZX","","<img src=""img/set1/S4.jpg"" width=""540"" height = ""360"">","null","","","","","","","",""
"null","","html-keyboard-response","274","214504","0.0-203.0","3B1NLC6UG0IBDCWGT28BPLDX87LPG7","A34SUZWGLXIWM8","33Q5P9PUSP8QOKKNNN5S19YACNVCZX","","","null","","","","","","","",""
"612.6999998092651","","image-keyboard-response","275","215117","0.0-204.0","3B1NLC6UG0IBDCWGT28BPLDX87LPG7","A34SUZWGLXIWM8","33Q5P9PUSP8QOKKNNN5S19YACNVCZX","","img/set1/S4.jpg","74","4","structured_normal","74","true","structured_normal,random,structured_incentive","2,3,1,2","",""
"null","","html-keyboard-response","276","215468","0.0-205.0","3B1NLC6UG0IBDCWGT28BPLDX87LPG7","A34SUZWGLXIWM8","33Q5P9PUSP8QOKKNNN5S19YACNVCZX","","<img src=""img/set1/S4.jpg"" width=""540"" height = ""360"" style=""border:16px solid orange"">","null","","","","","","","",""
"null","","html-keyboard-response","277","215470","0.0-206.0","3B1NLC6UG0IBDCWGT28BPLDX87LPG7","A34SUZWGLXIWM8","33Q5P9PUSP8QOKKNNN5S19YACNVCZX","","","null","","","","","","","",""
"646.0999999046326","","image-keyboard-response","278","216117","0.0-207.0","3B1NLC6UG0IBDCWGT28BPLDX87LPG7","A34SUZWGLXIWM8","33Q5P9PUSP8QOKKNNN5S19YACNVCZX","","img/set1/S1.jpg","83","1","structured_normal","83","true","structured_normal,random,structured_incentive","2,3,1,2","",""
"null","","html-keyboard-response","279","216469","0.0-208.0","3B1NLC6UG0IBDCWGT28BPLDX87LPG7","A34SUZWGLXIWM8","33Q5P9PUSP8QOKKNNN5S19YACNVCZX","","<img src=""img/set1/S1.jpg"" width=""540"" height = ""360"" style=""border:16px solid orange"">","null","","","","","","","",""
"null","","html-keyboard-response","280","216471","0.0-209.0","3B1NLC6UG0IBDCWGT28BPLDX87LPG7","A34SUZWGLXIWM8","33Q5P9PUSP8QOKKNNN5S19YACNVCZX","","","null","","","","","","","",""
"454","","image-keyboard-response","281","216925","0.0-210.0","3B1NLC6UG0IBDCWGT28BPLDX87LPG7","A34SUZWGLXIWM8","33Q5P9PUSP8QOKKNNN5S19YACNVCZX","","img/set1/S1.jpg","83","1","structured_normal","83","true","structured_normal,random,structured_incentive","2,3,1,2","",""
"null","","html-keyboard-response","282","217277","0.0-211.0","3B1NLC6UG0IBDCWGT28BPLDX87LPG7","A34SUZWGLXIWM8","33Q5P9PUSP8QOKKNNN5S19YACNVCZX","","<img src=""img/set1/S1.jpg"" width=""540"" height = ""360"" style=""border:16px solid orange"">","null","","","","","","","",""
"null","","html-keyboard-response","283","217279","0.0-212.0","3B1NLC6UG0IBDCWGT28BPLDX87LPG7","A34SUZWGLXIWM8","33Q5P9PUSP8QOKKNNN5S19YACNVCZX","","","null","","","","","","","",""
"533.5999999046326","","image-keyboard-response","284","217813","0.0-213.0","3B1NLC6UG0IBDCWGT28BPLDX87LPG7","A34SUZWGLXIWM8","33Q5P9PUSP8QOKKNNN5S19YACNVCZX","","img/set1/S2.jpg","68","2","structured_normal","68","true","structured_normal,random,structured_incentive","2,3,1,2","",""
"null","","html-keyboard-response","285","218165","0.0-214.0","3B1NLC6UG0IBDCWGT28BPLDX87LPG7","A34SUZWGLXIWM8","33Q5P9PUSP8QOKKNNN5S19YACNVCZX","","<img src=""img/set1/S2.jpg"" width=""540"" height = ""360"" style=""border:16px solid orange"">","null","","","","","","","",""
"null","","html-keyboard-response","286","218166","0.0-215.0","3B1NLC6UG0IBDCWGT28BPLDX87LPG7","A34SUZWGLXIWM8","33Q5P9PUSP8QOKKNNN5S19YACNVCZX","","","null","","","","","","","",""
"622.0999999046326","","image-keyboard-response","287","218789","0.0-216.0","3B1NLC6UG0IBDCWGT28BPLDX87LPG7","A34SUZWGLXIWM8","33Q5P9PUSP8QOKKNNN5S19YACNVCZX","","img/set1/S4.jpg","74","4","structured_normal","74","true","structured_normal,random,structured_incentive","2,3,1,2","",""
"null","","html-keyboard-response","288","219141","0.0-217.0","3B1NLC6UG0IBDCWGT28BPLDX87LPG7","A34SUZWGLXIWM8","33Q5P9PUSP8QOKKNNN5S19YACNVCZX","","<img src=""img/set1/S4.jpg"" width=""540"" height = ""360"" style=""border:16px solid orange"">","null","","","","","","","",""
"null","","html-keyboard-response","289","219143","0.0-218.0","3B1NLC6UG0IBDCWGT28BPLDX87LPG7","A34SUZWGLXIWM8","33Q5P9PUSP8QOKKNNN5S19YACNVCZX","","","null","","","","","","","",""
"478.09999990463257","","image-keyboard-response","290","219621","0.0-219.0","3B1NLC6UG0IBDCWGT28BPLDX87LPG7","A34SUZWGLXIWM8","33Q5P9PUSP8QOKKNNN5S19YACNVCZX","","img/set1/S4.jpg","74","4","structured_normal","74","true","structured_normal,random,structured_incentive","2,3,1,2","",""
"null","","html-keyboard-response","291","219972","0.0-220.0","3B1NLC6UG0IBDCWGT28BPLDX87LPG7","A34SUZWGLXIWM8","33Q5P9PUSP8QOKKNNN5S19YACNVCZX","","<img src=""img/set1/S4.jpg"" width=""540"" height = ""360"" style=""border:16px solid orange"">","null","","","","","","","",""
"null","","html-keyboard-response","292","219974","0.0-221.0","3B1NLC6UG0IBDCWGT28BPLDX87LPG7","A34SUZWGLXIWM8","33Q5P9PUSP8QOKKNNN5S19YACNVCZX","","","null","","","","","","","",""
"470.2999997138977","","image-keyboard-response","293","220445","0.0-222.0","3B1NLC6UG0IBDCWGT28BPLDX87LPG7","A34SUZWGLXIWM8","33Q5P9PUSP8QOKKNNN5S19YACNVCZX","","img/set1/S4.jpg","74","4","structured_normal","74","true","structured_normal,random,structured_incentive","2,3,1,2","",""
"null","","html-keyboard-response","294","220797","0.0-223.0","3B1NLC6UG0IBDCWGT28BPLDX87LPG7","A34SUZWGLXIWM8","33Q5P9PUSP8QOKKNNN5S19YACNVCZX","","<img src=""img/set1/S4.jpg"" width=""540"" height = ""360"" style=""border:16px solid orange"">","null","","","","","","","",""
"null","","html-keyboard-response","295","220799","0.0-224.0","3B1NLC6UG0IBDCWGT28BPLDX87LPG7","A34SUZWGLXIWM8","33Q5P9PUSP8QOKKNNN5S19YACNVCZX","","","null","","","","","","","",""
"405.69999980926514","","image-keyboard-response","296","221205","0.0-225.0","3B1NLC6UG0IBDCWGT28BPLDX87LPG7","A34SUZWGLXIWM8","33Q5P9PUSP8QOKKNNN5S19YACNVCZX","","img/set1/S4.jpg","74","4","structured_normal","74","true","structured_normal,random,structured_incentive","2,3,1,2","",""
"null","","html-keyboard-response","297","221556","0.0-226.0","3B1NLC6UG0IBDCWGT28BPLDX87LPG7","A34SUZWGLXIWM8","33Q5P9PUSP8QOKKNNN5S19YACNVCZX","","<img src=""img/set1/S4.jpg"" width=""540"" height = ""360"" style=""border:16px solid orange"">","null","","","","","","","",""
"null","","html-keyboard-response","298","221559","0.0-227.0","3B1NLC6UG0IBDCWGT28BPLDX87LPG7","A34SUZWGLXIWM8","33Q5P9PUSP8QOKKNNN5S19YACNVCZX","","","null","","","","","","","",""
"573.1999998092651","","image-keyboard-response","299","222133","0.0-228.0","3B1NLC6UG0IBDCWGT28BPLDX87LPG7","A34SUZWGLXIWM8","33Q5P9PUSP8QOKKNNN5S19YACNVCZX","","img/set1/S1.jpg","83","1","structured_normal","83","true","structured_normal,random,structured_incentive","2,3,1,2","",""
"null","","html-keyboard-response","300","222485","0.0-229.0","3B1NLC6UG0IBDCWGT28BPLDX87LPG7","A34SUZWGLXIWM8","33Q5P9PUSP8QOKKNNN5S19YACNVCZX","","<img src=""img/set1/S1.jpg"" width=""540"" height = ""360"" style=""border:16px solid orange"">","null","","","","","","","",""
"null","","html-keyboard-response","301","222487","0.0-230.0","3B1NLC6UG0IBDCWGT28BPLDX87LPG7","A34SUZWGLXIWM8","33Q5P9PUSP8QOKKNNN5S19YACNVCZX","","","null","","","","","","","",""
"429.59999990463257","","image-keyboard-response","302","222917","0.0-231.0","3B1NLC6UG0IBDCWGT28BPLDX87LPG7","A34SUZWGLXIWM8","33Q5P9PUSP8QOKKNNN5S19YACNVCZX","","img/set1/S1.jpg","83","1","structured_normal","83","true","structured_normal,random,structured_incentive","2,3,1,2","",""
"null","","html-keyboard-response","303","223269","0.0-232.0","3B1NLC6UG0IBDCWGT28BPLDX87LPG7","A34SUZWGLXIWM8","33Q5P9PUSP8QOKKNNN5S19YACNVCZX","","<img src=""img/set1/S1.jpg"" width=""540"" height = ""360"" style=""border:16px solid orange"">","null","","","","","","","",""
"null","","html-keyboard-response","304","223270","0.0-233.0","3B1NLC6UG0IBDCWGT28BPLDX87LPG7","A34SUZWGLXIWM8","33Q5P9PUSP8QOKKNNN5S19YACNVCZX","","","null","","","","","","","",""
"430.09999990463257","","image-keyboard-response","305","223701","0.0-234.0","3B1NLC6UG0IBDCWGT28BPLDX87LPG7","A34SUZWGLXIWM8","33Q5P9PUSP8QOKKNNN5S19YACNVCZX","","img/set1/S1.jpg","83","1","structured_normal","83","true","structured_normal,random,structured_incentive","2,3,1,2","",""
"null","","html-keyboard-response","306","224053","0.0-235.0","3B1NLC6UG0IBDCWGT28BPLDX87LPG7","A34SUZWGLXIWM8","33Q5P9PUSP8QOKKNNN5S19YACNVCZX","","<img src=""img/set1/S1.jpg"" width=""540"" height = ""360"" style=""border:16px solid orange"">","null","","","","","","","",""
"null","","html-keyboard-response","307","224055","0.0-236.0","3B1NLC6UG0IBDCWGT28BPLDX87LPG7","A34SUZWGLXIWM8","33Q5P9PUSP8QOKKNNN5S19YACNVCZX","","","null","","","","","","","",""
"646","","image-keyboard-response","308","224701","0.0-237.0","3B1NLC6UG0IBDCWGT28BPLDX87LPG7","A34SUZWGLXIWM8","33Q5P9PUSP8QOKKNNN5S19YACNVCZX","","img/set1/S2.jpg","68","2","structured_normal","68","true","structured_normal,random,structured_incentive","2,3,1,2","",""
"null","","html-keyboard-response","309","225052","0.0-238.0","3B1NLC6UG0IBDCWGT28BPLDX87LPG7","A34SUZWGLXIWM8","33Q5P9PUSP8QOKKNNN5S19YACNVCZX","","<img src=""img/set1/S2.jpg"" width=""540"" height = ""360"" style=""border:16px solid orange"">","null","","","","","","","",""
"null","","html-keyboard-response","310","225054","0.0-239.0","3B1NLC6UG0IBDCWGT28BPLDX87LPG7","A34SUZWGLXIWM8","33Q5P9PUSP8QOKKNNN5S19YACNVCZX","","","null","","","","","","","",""
"550.2999997138977","","image-keyboard-response","311","225605","0.0-240.0","3B1NLC6UG0IBDCWGT28BPLDX87LPG7","A34SUZWGLXIWM8","33Q5P9PUSP8QOKKNNN5S19YACNVCZX","","img/set1/S3.jpg","72","3","structured_normal","72","true","structured_normal,random,structured_incentive","2,3,1,2","",""
"null","","html-keyboard-response","312","225957","0.0-241.0","3B1NLC6UG0IBDCWGT28BPLDX87LPG7","A34SUZWGLXIWM8","33Q5P9PUSP8QOKKNNN5S19YACNVCZX","","<img src=""img/set1/S3.jpg"" width=""540"" height = ""360"" style=""border:16px solid orange"">","null","","","","","","","",""
"null","","html-keyboard-response","313","225959","0.0-242.0","3B1NLC6UG0IBDCWGT28BPLDX87LPG7","A34SUZWGLXIWM8","33Q5P9PUSP8QOKKNNN5S19YACNVCZX","","","null","","","","","","","",""
"686","","image-keyboard-response","314","226646","0.0-243.0","3B1NLC6UG0IBDCWGT28BPLDX87LPG7","A34SUZWGLXIWM8","33Q5P9PUSP8QOKKNNN5S19YACNVCZX","","img/set1/S1.jpg","83","1","structured_normal","83","true","structured_normal,random,structured_incentive","2,3,1,2","",""
"null","","html-keyboard-response","315","226997","0.0-244.0","3B1NLC6UG0IBDCWGT28BPLDX87LPG7","A34SUZWGLXIWM8","33Q5P9PUSP8QOKKNNN5S19YACNVCZX","","<img src=""img/set1/S1.jpg"" width=""540"" height = ""360"" style=""border:16px solid orange"">","null","","","","","","","",""
"null","","html-keyboard-response","316","227000","0.0-245.0","3B1NLC6UG0IBDCWGT28BPLDX87LPG7","A34SUZWGLXIWM8","33Q5P9PUSP8QOKKNNN5S19YACNVCZX","","","null","","","","","","","",""
"716.5","","image-keyboard-response","317","227717","0.0-246.0","3B1NLC6UG0IBDCWGT28BPLDX87LPG7","A34SUZWGLXIWM8","33Q5P9PUSP8QOKKNNN5S19YACNVCZX","","img/set1/S2.jpg","68","2","structured_normal","68","true","structured_normal,random,structured_incentive","2,3,1,2","",""
"null","","html-keyboard-response","318","228069","0.0-247.0","3B1NLC6UG0IBDCWGT28BPLDX87LPG7","A34SUZWGLXIWM8","33Q5P9PUSP8QOKKNNN5S19YACNVCZX","","<img src=""img/set1/S2.jpg"" width=""540"" height = ""360"" style=""border:16px solid orange"">","null","","","","","","","",""
"null","","html-keyboard-response","319","228071","0.0-248.0","3B1NLC6UG0IBDCWGT28BPLDX87LPG7","A34SUZWGLXIWM8","33Q5P9PUSP8QOKKNNN5S19YACNVCZX","","","null","","","","","","","",""
"581.3999996185303","","image-keyboard-response","320","228653","0.0-249.0","3B1NLC6UG0IBDCWGT28BPLDX87LPG7","A34SUZWGLXIWM8","33Q5P9PUSP8QOKKNNN5S19YACNVCZX","","img/set1/S3.jpg","72","3","structured_normal","72","true","structured_normal,random,structured_incentive","2,3,1,2","",""
"null","","html-keyboard-response","321","229005","0.0-250.0","3B1NLC6UG0IBDCWGT28BPLDX87LPG7","A34SUZWGLXIWM8","33Q5P9PUSP8QOKKNNN5S19YACNVCZX","","<img src=""img/set1/S3.jpg"" width=""540"" height = ""360"" style=""border:16px solid orange"">","null","","","","","","","",""
"null","","html-keyboard-response","322","229007","0.0-251.0","3B1NLC6UG0IBDCWGT28BPLDX87LPG7","A34SUZWGLXIWM8","33Q5P9PUSP8QOKKNNN5S19YACNVCZX","","","null","","","","","","","",""
"590.3000001907349","","image-keyboard-response","323","229598","0.0-252.0","3B1NLC6UG0IBDCWGT28BPLDX87LPG7","A34SUZWGLXIWM8","33Q5P9PUSP8QOKKNNN5S19YACNVCZX","","img/set1/S4.jpg","74","4","structured_normal","74","true","structured_normal,random,structured_incentive","2,3,1,2","",""
"null","","html-keyboard-response","324","229950","0.0-253.0","3B1NLC6UG0IBDCWGT28BPLDX87LPG7","A34SUZWGLXIWM8","33Q5P9PUSP8QOKKNNN5S19YACNVCZX","","<img src=""img/set1/S4.jpg"" width=""540"" height = ""360"" style=""border:16px solid orange"">","null","","","","","","","",""
"null","","html-keyboard-response","325","229951","0.0-254.0","3B1NLC6UG0IBDCWGT28BPLDX87LPG7","A34SUZWGLXIWM8","33Q5P9PUSP8QOKKNNN5S19YACNVCZX","","","null","","","","","","","",""
"461.40000009536743","","image-keyboard-response","326","230414","0.0-255.0","3B1NLC6UG0IBDCWGT28BPLDX87LPG7","A34SUZWGLXIWM8","33Q5P9PUSP8QOKKNNN5S19YACNVCZX","","img/set1/S4.jpg","74","4","structured_normal","74","true","structured_normal,random,structured_incentive","2,3,1,2","",""
"null","","html-keyboard-response","327","230765","0.0-256.0","3B1NLC6UG0IBDCWGT28BPLDX87LPG7","A34SUZWGLXIWM8","33Q5P9PUSP8QOKKNNN5S19YACNVCZX","","<img src=""img/set1/S4.jpg"" width=""540"" height = ""360"" style=""border:16px solid orange"">","null","","","","","","","",""
"null","","html-keyboard-response","328","230767","0.0-257.0","3B1NLC6UG0IBDCWGT28BPLDX87LPG7","A34SUZWGLXIWM8","33Q5P9PUSP8QOKKNNN5S19YACNVCZX","","","null","","","","","","","",""
"589.5","","image-keyboard-response","329","231357","0.0-258.0","3B1NLC6UG0IBDCWGT28BPLDX87LPG7","A34SUZWGLXIWM8","33Q5P9PUSP8QOKKNNN5S19YACNVCZX","","img/set1/S2.jpg","68","2","structured_normal","68","true","structured_normal,random,structured_incentive","2,3,1,2","",""
"null","","html-keyboard-response","330","231710","0.0-259.0","3B1NLC6UG0IBDCWGT28BPLDX87LPG7","A34SUZWGLXIWM8","33Q5P9PUSP8QOKKNNN5S19YACNVCZX","","<img src=""img/set1/S2.jpg"" width=""540"" height = ""360"" style=""border:16px solid orange"">","null","","","","","","","",""
"null","","html-keyboard-response","331","231712","0.0-260.0","3B1NLC6UG0IBDCWGT28BPLDX87LPG7","A34SUZWGLXIWM8","33Q5P9PUSP8QOKKNNN5S19YACNVCZX","","","null","","","","","","","",""
"692.5","","image-keyboard-response","332","232405","0.0-261.0","3B1NLC6UG0IBDCWGT28BPLDX87LPG7","A34SUZWGLXIWM8","33Q5P9PUSP8QOKKNNN5S19YACNVCZX","","img/set1/S3.jpg","72","3","structured_normal","72","true","structured_normal,random,structured_incentive","2,3,1,2","",""
"null","","html-keyboard-response","333","232757","0.0-262.0","3B1NLC6UG0IBDCWGT28BPLDX87LPG7","A34SUZWGLXIWM8","33Q5P9PUSP8QOKKNNN5S19YACNVCZX","","<img src=""img/set1/S3.jpg"" width=""540"" height = ""360"" style=""border:16px solid orange"">","null","","","","","","","",""
"null","","html-keyboard-response","334","232759","0.0-263.0","3B1NLC6UG0IBDCWGT28BPLDX87LPG7","A34SUZWGLXIWM8","33Q5P9PUSP8QOKKNNN5S19YACNVCZX","","","null","","","","","","","",""
"581.6999998092651","","image-keyboard-response","335","233341","0.0-264.0","3B1NLC6UG0IBDCWGT28BPLDX87LPG7","A34SUZWGLXIWM8","33Q5P9PUSP8QOKKNNN5S19YACNVCZX","","img/set1/S1.jpg","83","1","structured_normal","83","true","structured_normal,random,structured_incentive","2,3,1,2","",""
"null","","html-keyboard-response","336","233693","0.0-265.0","3B1NLC6UG0IBDCWGT28BPLDX87LPG7","A34SUZWGLXIWM8","33Q5P9PUSP8QOKKNNN5S19YACNVCZX","","<img src=""img/set1/S1.jpg"" width=""540"" height = ""360"" style=""border:16px solid orange"">","null","","","","","","","",""
"null","","html-keyboard-response","337","233696","0.0-266.0","3B1NLC6UG0IBDCWGT28BPLDX87LPG7","A34SUZWGLXIWM8","33Q5P9PUSP8QOKKNNN5S19YACNVCZX","","","null","","","","","","","",""
"436","","image-keyboard-response","338","234133","0.0-267.0","3B1NLC6UG0IBDCWGT28BPLDX87LPG7","A34SUZWGLXIWM8","33Q5P9PUSP8QOKKNNN5S19YACNVCZX","","img/set1/S1.jpg","83","1","structured_normal","83","true","structured_normal,random,structured_incentive","2,3,1,2","",""
"null","","html-keyboard-response","339","234485","0.0-268.0","3B1NLC6UG0IBDCWGT28BPLDX87LPG7","A34SUZWGLXIWM8","33Q5P9PUSP8QOKKNNN5S19YACNVCZX","","<img src=""img/set1/S1.jpg"" width=""540"" height = ""360"" style=""border:16px solid orange"">","null","","","","","","","",""
"null","","html-keyboard-response","340","234487","0.0-269.0","3B1NLC6UG0IBDCWGT28BPLDX87LPG7","A34SUZWGLXIWM8","33Q5P9PUSP8QOKKNNN5S19YACNVCZX","","","null","","","","","","","",""
"566.3000001907349","","image-keyboard-response","341","235054","0.0-270.0","3B1NLC6UG0IBDCWGT28BPLDX87LPG7","A34SUZWGLXIWM8","33Q5P9PUSP8QOKKNNN5S19YACNVCZX","","img/set1/S3.jpg","72","3","structured_normal","72","true","structured_normal,random,structured_incentive","2,3,1,2","",""
"null","","html-keyboard-response","342","235406","0.0-271.0","3B1NLC6UG0IBDCWGT28BPLDX87LPG7","A34SUZWGLXIWM8","33Q5P9PUSP8QOKKNNN5S19YACNVCZX","","<img src=""img/set1/S3.jpg"" width=""540"" height = ""360"" style=""border:16px solid orange"">","null","","","","","","","",""
"null","","html-keyboard-response","343","235408","0.0-272.0","3B1NLC6UG0IBDCWGT28BPLDX87LPG7","A34SUZWGLXIWM8","33Q5P9PUSP8QOKKNNN5S19YACNVCZX","","","null","","","","","","","",""
"732.5999999046326","","image-keyboard-response","344","236141","0.0-273.0","3B1NLC6UG0IBDCWGT28BPLDX87LPG7","A34SUZWGLXIWM8","33Q5P9PUSP8QOKKNNN5S19YACNVCZX","","img/set1/S4.jpg","74","4","structured_normal","74","true","structured_normal,random,structured_incentive","2,3,1,2","",""
"null","","html-keyboard-response","345","236493","0.0-274.0","3B1NLC6UG0IBDCWGT28BPLDX87LPG7","A34SUZWGLXIWM8","33Q5P9PUSP8QOKKNNN5S19YACNVCZX","","<img src=""img/set1/S4.jpg"" width=""540"" height = ""360"" style=""border:16px solid orange"">","null","","","","","","","",""
"null","","html-keyboard-response","346","236494","0.0-275.0","3B1NLC6UG0IBDCWGT28BPLDX87LPG7","A34SUZWGLXIWM8","33Q5P9PUSP8QOKKNNN5S19YACNVCZX","","","null","","","","","","","",""
"486.09999990463257","","image-keyboard-response","347","236981","0.0-276.0","3B1NLC6UG0IBDCWGT28BPLDX87LPG7","A34SUZWGLXIWM8","33Q5P9PUSP8QOKKNNN5S19YACNVCZX","","img/set1/S4.jpg","74","4","structured_normal","74","true","structured_normal,random,structured_incentive","2,3,1,2","",""
"null","","html-keyboard-response","348","237333","0.0-277.0","3B1NLC6UG0IBDCWGT28BPLDX87LPG7","A34SUZWGLXIWM8","33Q5P9PUSP8QOKKNNN5S19YACNVCZX","","<img src=""img/set1/S4.jpg"" width=""540"" height = ""360"" style=""border:16px solid orange"">","null","","","","","","","",""
"null","","html-keyboard-response","349","237336","0.0-278.0","3B1NLC6UG0IBDCWGT28BPLDX87LPG7","A34SUZWGLXIWM8","33Q5P9PUSP8QOKKNNN5S19YACNVCZX","","","null","","","","","","","",""
"476","","image-keyboard-response","350","237813","0.0-279.0","3B1NLC6UG0IBDCWGT28BPLDX87LPG7","A34SUZWGLXIWM8","33Q5P9PUSP8QOKKNNN5S19YACNVCZX","","img/set1/S4.jpg","74","4","structured_normal","74","true","structured_normal,random,structured_incentive","2,3,1,2","",""
"null","","html-keyboard-response","351","238164","0.0-280.0","3B1NLC6UG0IBDCWGT28BPLDX87LPG7","A34SUZWGLXIWM8","33Q5P9PUSP8QOKKNNN5S19YACNVCZX","","<img src=""img/set1/S4.jpg"" width=""540"" height = ""360"" style=""border:16px solid orange"">","null","","","","","","","",""
"null","","html-keyboard-response","352","238166","0.0-281.0","3B1NLC6UG0IBDCWGT28BPLDX87LPG7","A34SUZWGLXIWM8","33Q5P9PUSP8QOKKNNN5S19YACNVCZX","","","null","","","","","","","",""
"646.1999998092651","","image-keyboard-response","353","238813","0.0-282.0","3B1NLC6UG0IBDCWGT28BPLDX87LPG7","A34SUZWGLXIWM8","33Q5P9PUSP8QOKKNNN5S19YACNVCZX","","img/set1/S2.jpg","68","2","structured_normal","68","true","structured_normal,random,structured_incentive","2,3,1,2","",""
"null","","html-keyboard-response","354","239164","0.0-283.0","3B1NLC6UG0IBDCWGT28BPLDX87LPG7","A34SUZWGLXIWM8","33Q5P9PUSP8QOKKNNN5S19YACNVCZX","","<img src=""img/set1/S2.jpg"" width=""540"" height = ""360"" style=""border:16px solid orange"">","null","","","","","","","",""
"null","","html-keyboard-response","355","239167","0.0-284.0","3B1NLC6UG0IBDCWGT28BPLDX87LPG7","A34SUZWGLXIWM8","33Q5P9PUSP8QOKKNNN5S19YACNVCZX","","","null","","","","","","","",""
"741.2999997138977","","image-keyboard-response","356","239909","0.0-285.0","3B1NLC6UG0IBDCWGT28BPLDX87LPG7","A34SUZWGLXIWM8","33Q5P9PUSP8QOKKNNN5S19YACNVCZX","","img/set1/S3.jpg","72","3","structured_normal","72","true","structured_normal,random,structured_incentive","2,3,1,2","",""
"null","","html-keyboard-response","357","240261","0.0-286.0","3B1NLC6UG0IBDCWGT28BPLDX87LPG7","A34SUZWGLXIWM8","33Q5P9PUSP8QOKKNNN5S19YACNVCZX","","<img src=""img/set1/S3.jpg"" width=""540"" height = ""360"" style=""border:16px solid orange"">","null","","","","","","","",""
"null","","html-keyboard-response","358","240264","0.0-287.0","3B1NLC6UG0IBDCWGT28BPLDX87LPG7","A34SUZWGLXIWM8","33Q5P9PUSP8QOKKNNN5S19YACNVCZX","","","null","","","","","","","",""
"716.3999996185303","","image-keyboard-response","359","240981","0.0-288.0","3B1NLC6UG0IBDCWGT28BPLDX87LPG7","A34SUZWGLXIWM8","33Q5P9PUSP8QOKKNNN5S19YACNVCZX","","img/set1/S2.jpg","83","2","structured_normal","68","false","structured_normal,random,structured_incentive","2,3,1,2","",""
"null","","html-keyboard-response","360","241332","0.0-289.0","3B1NLC6UG0IBDCWGT28BPLDX87LPG7","A34SUZWGLXIWM8","33Q5P9PUSP8QOKKNNN5S19YACNVCZX","","<img src=""img/set1/S2.jpg"" width=""540"" height = ""360"">","null","","","","","","","",""
"null","","html-keyboard-response","361","241334","0.0-290.0","3B1NLC6UG0IBDCWGT28BPLDX87LPG7","A34SUZWGLXIWM8","33Q5P9PUSP8QOKKNNN5S19YACNVCZX","","","null","","","","","","","",""
"222","","image-keyboard-response","362","241557","0.0-291.0","3B1NLC6UG0IBDCWGT28BPLDX87LPG7","A34SUZWGLXIWM8","33Q5P9PUSP8QOKKNNN5S19YACNVCZX","","img/set1/S3.jpg","68","3","structured_normal","72","false","structured_normal,random,structured_incentive","2,3,1,2","",""
"null","","html-keyboard-response","363","241908","0.0-292.0","3B1NLC6UG0IBDCWGT28BPLDX87LPG7","A34SUZWGLXIWM8","33Q5P9PUSP8QOKKNNN5S19YACNVCZX","","<img src=""img/set1/S3.jpg"" width=""540"" height = ""360"">","null","","","","","","","",""
"null","","html-keyboard-response","364","241910","0.0-293.0","3B1NLC6UG0IBDCWGT28BPLDX87LPG7","A34SUZWGLXIWM8","33Q5P9PUSP8QOKKNNN5S19YACNVCZX","","","null","","","","","","","",""
"678.0999999046326","","image-keyboard-response","365","242589","0.0-294.0","3B1NLC6UG0IBDCWGT28BPLDX87LPG7","A34SUZWGLXIWM8","33Q5P9PUSP8QOKKNNN5S19YACNVCZX","","img/set1/S1.jpg","72","1","structured_normal","83","false","structured_normal,random,structured_incentive","2,3,1,2","",""
"null","","html-keyboard-response","366","242940","0.0-295.0","3B1NLC6UG0IBDCWGT28BPLDX87LPG7","A34SUZWGLXIWM8","33Q5P9PUSP8QOKKNNN5S19YACNVCZX","","<img src=""img/set1/S1.jpg"" width=""540"" height = ""360"">","null","","","","","","","",""
"null","","html-keyboard-response","367","242942","0.0-296.0","3B1NLC6UG0IBDCWGT28BPLDX87LPG7","A34SUZWGLXIWM8","33Q5P9PUSP8QOKKNNN5S19YACNVCZX","","","null","","","","","","","",""
"142.40000009536743","","image-keyboard-response","368","243085","0.0-297.0","3B1NLC6UG0IBDCWGT28BPLDX87LPG7","A34SUZWGLXIWM8","33Q5P9PUSP8QOKKNNN5S19YACNVCZX","","img/set1/S4.jpg","83","4","structured_normal","74","false","structured_normal,random,structured_incentive","2,3,1,2","",""
"null","","html-keyboard-response","369","243437","0.0-298.0","3B1NLC6UG0IBDCWGT28BPLDX87LPG7","A34SUZWGLXIWM8","33Q5P9PUSP8QOKKNNN5S19YACNVCZX","","<img src=""img/set1/S4.jpg"" width=""540"" height = ""360"">","null","","","","","","","",""
"null","","html-keyboard-response","370","243439","0.0-299.0","3B1NLC6UG0IBDCWGT28BPLDX87LPG7","A34SUZWGLXIWM8","33Q5P9PUSP8QOKKNNN5S19YACNVCZX","","","null","","","","","","","",""
"773.4000000953674","","image-keyboard-response","371","244213","0.0-300.0","3B1NLC6UG0IBDCWGT28BPLDX87LPG7","A34SUZWGLXIWM8","33Q5P9PUSP8QOKKNNN5S19YACNVCZX","","img/set1/S4.jpg","74","4","structured_normal","74","true","structured_normal,random,structured_incentive","2,3,1,2","",""
"null","","html-keyboard-response","372","244564","0.0-301.0","3B1NLC6UG0IBDCWGT28BPLDX87LPG7","A34SUZWGLXIWM8","33Q5P9PUSP8QOKKNNN5S19YACNVCZX","","<img src=""img/set1/S4.jpg"" width=""540"" height = ""360"" style=""border:16px solid orange"">","null","","","","","","","",""
"null","","html-keyboard-response","373","244567","0.0-302.0","3B1NLC6UG0IBDCWGT28BPLDX87LPG7","A34SUZWGLXIWM8","33Q5P9PUSP8QOKKNNN5S19YACNVCZX","","","null","","","","","","","",""
"661.3000001907349","","image-keyboard-response","374","245229","0.0-303.0","3B1NLC6UG0IBDCWGT28BPLDX87LPG7","A34SUZWGLXIWM8","33Q5P9PUSP8QOKKNNN5S19YACNVCZX","","img/set1/S1.jpg","83","1","structured_normal","83","true","structured_normal,random,structured_incentive","2,3,1,2","",""
"null","","html-keyboard-response","375","245581","0.0-304.0","3B1NLC6UG0IBDCWGT28BPLDX87LPG7","A34SUZWGLXIWM8","33Q5P9PUSP8QOKKNNN5S19YACNVCZX","","<img src=""img/set1/S1.jpg"" width=""540"" height = ""360"" style=""border:16px solid orange"">","null","","","","","","","",""
"null","","html-keyboard-response","376","245584","0.0-305.0","3B1NLC6UG0IBDCWGT28BPLDX87LPG7","A34SUZWGLXIWM8","33Q5P9PUSP8QOKKNNN5S19YACNVCZX","","","null","","","","","","","",""
"444.69999980926514","","image-keyboard-response","377","246029","0.0-306.0","3B1NLC6UG0IBDCWGT28BPLDX87LPG7","A34SUZWGLXIWM8","33Q5P9PUSP8QOKKNNN5S19YACNVCZX","","img/set1/S1.jpg","83","1","structured_normal","83","true","structured_normal,random,structured_incentive","2,3,1,2","",""
"null","","html-keyboard-response","378","246380","0.0-307.0","3B1NLC6UG0IBDCWGT28BPLDX87LPG7","A34SUZWGLXIWM8","33Q5P9PUSP8QOKKNNN5S19YACNVCZX","","<img src=""img/set1/S1.jpg"" width=""540"" height = ""360"" style=""border:16px solid orange"">","null","","","","","","","",""
"null","","html-keyboard-response","379","246382","0.0-308.0","3B1NLC6UG0IBDCWGT28BPLDX87LPG7","A34SUZWGLXIWM8","33Q5P9PUSP8QOKKNNN5S19YACNVCZX","","","null","","","","","","","",""
"566.1999998092651","","image-keyboard-response","380","246949","0.0-309.0","3B1NLC6UG0IBDCWGT28BPLDX87LPG7","A34SUZWGLXIWM8","33Q5P9PUSP8QOKKNNN5S19YACNVCZX","","img/set1/S2.jpg","68","2","structured_normal","68","true","structured_normal,random,structured_incentive","2,3,1,2","",""
"null","","html-keyboard-response","381","247301","0.0-310.0","3B1NLC6UG0IBDCWGT28BPLDX87LPG7","A34SUZWGLXIWM8","33Q5P9PUSP8QOKKNNN5S19YACNVCZX","","<img src=""img/set1/S2.jpg"" width=""540"" height = ""360"" style=""border:16px solid orange"">","null","","","","","","","",""
"null","","html-keyboard-response","382","247303","0.0-311.0","3B1NLC6UG0IBDCWGT28BPLDX87LPG7","A34SUZWGLXIWM8","33Q5P9PUSP8QOKKNNN5S19YACNVCZX","","","null","","","","","","","",""
"853","","image-keyboard-response","383","248157","0.0-312.0","3B1NLC6UG0IBDCWGT28BPLDX87LPG7","A34SUZWGLXIWM8","33Q5P9PUSP8QOKKNNN5S19YACNVCZX","","img/set1/S3.jpg","72","3","structured_normal","72","true","structured_normal,random,structured_incentive","2,3,1,2","",""
"null","","html-keyboard-response","384","248508","0.0-313.0","3B1NLC6UG0IBDCWGT28BPLDX87LPG7","A34SUZWGLXIWM8","33Q5P9PUSP8QOKKNNN5S19YACNVCZX","","<img src=""img/set1/S3.jpg"" width=""540"" height = ""360"" style=""border:16px solid orange"">","null","","","","","","","",""
"null","","html-keyboard-response","385","248511","0.0-314.0","3B1NLC6UG0IBDCWGT28BPLDX87LPG7","A34SUZWGLXIWM8","33Q5P9PUSP8QOKKNNN5S19YACNVCZX","","","null","","","","","","","",""
"590.3000001907349","","image-keyboard-response","386","249102","0.0-315.0","3B1NLC6UG0IBDCWGT28BPLDX87LPG7","A34SUZWGLXIWM8","33Q5P9PUSP8QOKKNNN5S19YACNVCZX","","img/set1/S4.jpg","74","4","structured_normal","74","true","structured_normal,random,structured_incentive","2,3,1,2","",""
"null","","html-keyboard-response","387","249454","0.0-316.0","3B1NLC6UG0IBDCWGT28BPLDX87LPG7","A34SUZWGLXIWM8","33Q5P9PUSP8QOKKNNN5S19YACNVCZX","","<img src=""img/set1/S4.jpg"" width=""540"" height = ""360"" style=""border:16px solid orange"">","null","","","","","","","",""
"null","","html-keyboard-response","388","249456","0.0-317.0","3B1NLC6UG0IBDCWGT28BPLDX87LPG7","A34SUZWGLXIWM8","33Q5P9PUSP8QOKKNNN5S19YACNVCZX","","","null","","","","","","","",""
"652","","image-keyboard-response","389","250109","0.0-318.0","3B1NLC6UG0IBDCWGT28BPLDX87LPG7","A34SUZWGLXIWM8","33Q5P9PUSP8QOKKNNN5S19YACNVCZX","","img/set1/S2.jpg","68","2","structured_normal","68","true","structured_normal,random,structured_incentive","2,3,1,2","",""
"null","","html-keyboard-response","390","250461","0.0-319.0","3B1NLC6UG0IBDCWGT28BPLDX87LPG7","A34SUZWGLXIWM8","33Q5P9PUSP8QOKKNNN5S19YACNVCZX","","<img src=""img/set1/S2.jpg"" width=""540"" height = ""360"" style=""border:16px solid orange"">","null","","","","","","","",""
"null","","html-keyboard-response","391","250463","0.0-320.0","3B1NLC6UG0IBDCWGT28BPLDX87LPG7","A34SUZWGLXIWM8","33Q5P9PUSP8QOKKNNN5S19YACNVCZX","","","null","","","","","","","",""
"749.6999998092651","","image-keyboard-response","392","251213","0.0-321.0","3B1NLC6UG0IBDCWGT28BPLDX87LPG7","A34SUZWGLXIWM8","33Q5P9PUSP8QOKKNNN5S19YACNVCZX","","img/set1/S3.jpg","72","3","structured_normal","72","true","structured_normal,random,structured_incentive","2,3,1,2","",""
"null","","html-keyboard-response","393","251564","0.0-322.0","3B1NLC6UG0IBDCWGT28BPLDX87LPG7","A34SUZWGLXIWM8","33Q5P9PUSP8QOKKNNN5S19YACNVCZX","","<img src=""img/set1/S3.jpg"" width=""540"" height = ""360"" style=""border:16px solid orange"">","null","","","","","","","",""
"null","","html-keyboard-response","394","251567","0.0-323.0","3B1NLC6UG0IBDCWGT28BPLDX87LPG7","A34SUZWGLXIWM8","33Q5P9PUSP8QOKKNNN5S19YACNVCZX","","","null","","","","","","","",""
"653.2999997138977","","image-keyboard-response","395","252221","0.0-324.0","3B1NLC6UG0IBDCWGT28BPLDX87LPG7","A34SUZWGLXIWM8","33Q5P9PUSP8QOKKNNN5S19YACNVCZX","","img/set1/S1.jpg","83","1","structured_normal","83","true","structured_normal,random,structured_incentive","2,3,1,2","",""
"null","","html-keyboard-response","396","252572","0.0-325.0","3B1NLC6UG0IBDCWGT28BPLDX87LPG7","A34SUZWGLXIWM8","33Q5P9PUSP8QOKKNNN5S19YACNVCZX","","<img src=""img/set1/S1.jpg"" width=""540"" height = ""360"" style=""border:16px solid orange"">","null","","","","","","","",""
"null","","html-keyboard-response","397","252574","0.0-326.0","3B1NLC6UG0IBDCWGT28BPLDX87LPG7","A34SUZWGLXIWM8","33Q5P9PUSP8QOKKNNN5S19YACNVCZX","","","null","","","","","","","",""
"814.1999998092651","","image-keyboard-response","398","253389","0.0-327.0","3B1NLC6UG0IBDCWGT28BPLDX87LPG7","A34SUZWGLXIWM8","33Q5P9PUSP8QOKKNNN5S19YACNVCZX","","img/set1/S4.jpg","68","4","structured_normal","74","false","structured_normal,random,structured_incentive","2,3,1,2","",""
"null","","html-keyboard-response","399","253740","0.0-328.0","3B1NLC6UG0IBDCWGT28BPLDX87LPG7","A34SUZWGLXIWM8","33Q5P9PUSP8QOKKNNN5S19YACNVCZX","","<img src=""img/set1/S4.jpg"" width=""540"" height = ""360"">","null","","","","","","","",""
"null","","html-keyboard-response","400","253743","0.0-329.0","3B1NLC6UG0IBDCWGT28BPLDX87LPG7","A34SUZWGLXIWM8","33Q5P9PUSP8QOKKNNN5S19YACNVCZX","","","null","","","","","","","",""
"22","","image-keyboard-response","401","253766","0.0-330.0","3B1NLC6UG0IBDCWGT28BPLDX87LPG7","A34SUZWGLXIWM8","33Q5P9PUSP8QOKKNNN5S19YACNVCZX","","img/set1/S2.jpg","72","2","structured_normal","68","false","structured_normal,random,structured_incentive","2,3,1,2","",""
"null","","html-keyboard-response","402","254117","0.0-331.0","3B1NLC6UG0IBDCWGT28BPLDX87LPG7","A34SUZWGLXIWM8","33Q5P9PUSP8QOKKNNN5S19YACNVCZX","","<img src=""img/set1/S2.jpg"" width=""540"" height = ""360"">","null","","","","","","","",""
"null","","html-keyboard-response","403","254119","0.0-332.0","3B1NLC6UG0IBDCWGT28BPLDX87LPG7","A34SUZWGLXIWM8","33Q5P9PUSP8QOKKNNN5S19YACNVCZX","","","null","","","","","","","",""
"421.5","","image-keyboard-response","404","254541","0.0-333.0","3B1NLC6UG0IBDCWGT28BPLDX87LPG7","A34SUZWGLXIWM8","33Q5P9PUSP8QOKKNNN5S19YACNVCZX","","img/set1/S3.jpg","68","3","structured_normal","72","false","structured_normal,random,structured_incentive","2,3,1,2","",""
"null","","html-keyboard-response","405","254893","0.0-334.0","3B1NLC6UG0IBDCWGT28BPLDX87LPG7","A34SUZWGLXIWM8","33Q5P9PUSP8QOKKNNN5S19YACNVCZX","","<img src=""img/set1/S3.jpg"" width=""540"" height = ""360"">","null","","","","","","","",""
"null","","html-keyboard-response","406","254895","0.0-335.0","3B1NLC6UG0IBDCWGT28BPLDX87LPG7","A34SUZWGLXIWM8","33Q5P9PUSP8QOKKNNN5S19YACNVCZX","","","null","","","","","","","",""
"694","","image-keyboard-response","407","255589","0.0-336.0","3B1NLC6UG0IBDCWGT28BPLDX87LPG7","A34SUZWGLXIWM8","33Q5P9PUSP8QOKKNNN5S19YACNVCZX","","img/set1/S1.jpg","83","1","structured_normal","83","true","structured_normal,random,structured_incentive","2,3,1,2","",""
"null","","html-keyboard-response","408","255941","0.0-337.0","3B1NLC6UG0IBDCWGT28BPLDX87LPG7","A34SUZWGLXIWM8","33Q5P9PUSP8QOKKNNN5S19YACNVCZX","","<img src=""img/set1/S1.jpg"" width=""540"" height = ""360"" style=""border:16px solid orange"">","null","","","","","","","",""
"null","","html-keyboard-response","409","255944","0.0-338.0","3B1NLC6UG0IBDCWGT28BPLDX87LPG7","A34SUZWGLXIWM8","33Q5P9PUSP8QOKKNNN5S19YACNVCZX","","","null","","","","","","","",""
"516.7999997138977","","image-keyboard-response","410","256461","0.0-339.0","3B1NLC6UG0IBDCWGT28BPLDX87LPG7","A34SUZWGLXIWM8","33Q5P9PUSP8QOKKNNN5S19YACNVCZX","","img/set1/S1.jpg","83","1","structured_normal","83","true","structured_normal,random,structured_incentive","2,3,1,2","",""
"null","","html-keyboard-response","411","256814","0.0-340.0","3B1NLC6UG0IBDCWGT28BPLDX87LPG7","A34SUZWGLXIWM8","33Q5P9PUSP8QOKKNNN5S19YACNVCZX","","<img src=""img/set1/S1.jpg"" width=""540"" height = ""360"" style=""border:16px solid orange"">","null","","","","","","","",""
"null","","html-keyboard-response","412","256817","0.0-341.0","3B1NLC6UG0IBDCWGT28BPLDX87LPG7","A34SUZWGLXIWM8","33Q5P9PUSP8QOKKNNN5S19YACNVCZX","","","null","","","","","","","",""
