"rt","url","trial_type","trial_index","time_elapsed","internal_node_id","assignmentID","mturkID","hitID","view_history","stimulus","key_press","state","test_part","correct_response","correct","order_block","order_chunk","bonus","responses"
"7863.100000023842","consent.html","external-html","0","7993","0.0-0.0","3TMFV4NEP90M46NZMQAIP24VDLZ8WT","A36470UBRH28GO","3R5LWXWHR0UE010DORDQUF3E2FPGXE","","","","","","","","","","",""
"105728.29999995232","","instructions","1","113725","0.0-1.0","3TMFV4NEP90M46NZMQAIP24VDLZ8WT","A36470UBRH28GO","3R5LWXWHR0UE010DORDQUF3E2FPGXE","[{""page_index"":0,""viewing_time"":2979.2999999523163},{""page_index"":1,""viewing_time"":27295.800000071526},{""page_index"":2,""viewing_time"":9731.899999976158},{""page_index"":3,""viewing_time"":7890.299999952316},{""page_index"":4,""viewing_time"":6673.300000071526},{""page_index"":5,""viewing_time"":17048.399999976158},{""page_index"":6,""viewing_time"":7255.5},{""page_index"":7,""viewing_time"":26852.899999976158}]","","","","","","","","","",""
"2078.7000000476837","","image-keyboard-response","2","115806","0.0-2.0-0.0","3TMFV4NEP90M46NZMQAIP24VDLZ8WT","A36470UBRH28GO","3R5LWXWHR0UE010DORDQUF3E2FPGXE","","img/practice/S1.jpg","83","1","practice","83","true","","","",""
"null","","html-keyboard-response","3","116109","0.0-2.0-1.0","3TMFV4NEP90M46NZMQAIP24VDLZ8WT","A36470UBRH28GO","3R5LWXWHR0UE010DORDQUF3E2FPGXE","","<img src=""img/practice/S1.jpg"" width=""540"" height = ""360"" style=""border:16px solid orange"">","null","","","","","","","",""
"null","","html-keyboard-response","4","116112","0.0-2.0-2.0","3TMFV4NEP90M46NZMQAIP24VDLZ8WT","A36470UBRH28GO","3R5LWXWHR0UE010DORDQUF3E2FPGXE","","","null","","","","","","","",""
"1106.9000000953674","","image-keyboard-response","5","117221","0.0-2.0-0.1","3TMFV4NEP90M46NZMQAIP24VDLZ8WT","A36470UBRH28GO","3R5LWXWHR0UE010DORDQUF3E2FPGXE","","img/practice/S2.jpg","83","2","practice","68","false","","","",""
"null","","html-keyboard-response","6","117523","0.0-2.0-1.1","3TMFV4NEP90M46NZMQAIP24VDLZ8WT","A36470UBRH28GO","3R5LWXWHR0UE010DORDQUF3E2FPGXE","","<img src=""img/practice/S2.jpg"" width=""540"" height = ""360"">","null","","","","","","","",""
"null","","html-keyboard-response","7","117526","0.0-2.0-2.1","3TMFV4NEP90M46NZMQAIP24VDLZ8WT","A36470UBRH28GO","3R5LWXWHR0UE010DORDQUF3E2FPGXE","","","null","","","","","","","",""
"159.10000002384186","","image-keyboard-response","8","117686","0.0-2.0-0.2","3TMFV4NEP90M46NZMQAIP24VDLZ8WT","A36470UBRH28GO","3R5LWXWHR0UE010DORDQUF3E2FPGXE","","img/practice/S4.jpg","83","4","practice","74","false","","","",""
"null","","html-keyboard-response","9","117989","0.0-2.0-1.2","3TMFV4NEP90M46NZMQAIP24VDLZ8WT","A36470UBRH28GO","3R5LWXWHR0UE010DORDQUF3E2FPGXE","","<img src=""img/practice/S4.jpg"" width=""540"" height = ""360"">","null","","","","","","","",""
"null","","html-keyboard-response","10","117992","0.0-2.0-2.2","3TMFV4NEP90M46NZMQAIP24VDLZ8WT","A36470UBRH28GO","3R5LWXWHR0UE010DORDQUF3E2FPGXE","","","null","","","","","","","",""
"1186.5","","image-keyboard-response","11","119180","0.0-2.0-0.3","3TMFV4NEP90M46NZMQAIP24VDLZ8WT","A36470UBRH28GO","3R5LWXWHR0UE010DORDQUF3E2FPGXE","","img/practice/S3.jpg","83","3","practice","72","false","","","",""
"null","","html-keyboard-response","12","119482","0.0-2.0-1.3","3TMFV4NEP90M46NZMQAIP24VDLZ8WT","A36470UBRH28GO","3R5LWXWHR0UE010DORDQUF3E2FPGXE","","<img src=""img/practice/S3.jpg"" width=""540"" height = ""360"">","null","","","","","","","",""
"null","","html-keyboard-response","13","119485","0.0-2.0-2.3","3TMFV4NEP90M46NZMQAIP24VDLZ8WT","A36470UBRH28GO","3R5LWXWHR0UE010DORDQUF3E2FPGXE","","","null","","","","","","","",""
"1111.3999999761581","","image-keyboard-response","14","120598","0.0-2.0-0.4","3TMFV4NEP90M46NZMQAIP24VDLZ8WT","A36470UBRH28GO","3R5LWXWHR0UE010DORDQUF3E2FPGXE","","img/practice/S2.jpg","68","2","practice","68","true","","","",""
"null","","html-keyboard-response","15","120901","0.0-2.0-1.4","3TMFV4NEP90M46NZMQAIP24VDLZ8WT","A36470UBRH28GO","3R5LWXWHR0UE010DORDQUF3E2FPGXE","","<img src=""img/practice/S2.jpg"" width=""540"" height = ""360"" style=""border:16px solid orange"">","null","","","","","","","",""
"null","","html-keyboard-response","16","120903","0.0-2.0-2.4","3TMFV4NEP90M46NZMQAIP24VDLZ8WT","A36470UBRH28GO","3R5LWXWHR0UE010DORDQUF3E2FPGXE","","","null","","","","","","","",""
"2207.100000023842","","image-keyboard-response","17","123111","0.0-2.0-0.5","3TMFV4NEP90M46NZMQAIP24VDLZ8WT","A36470UBRH28GO","3R5LWXWHR0UE010DORDQUF3E2FPGXE","","img/practice/S4.jpg","72","4","practice","74","false","","","",""
"null","","html-keyboard-response","18","123413","0.0-2.0-1.5","3TMFV4NEP90M46NZMQAIP24VDLZ8WT","A36470UBRH28GO","3R5LWXWHR0UE010DORDQUF3E2FPGXE","","<img src=""img/practice/S4.jpg"" width=""540"" height = ""360"">","null","","","","","","","",""
"null","","html-keyboard-response","19","123416","0.0-2.0-2.5","3TMFV4NEP90M46NZMQAIP24VDLZ8WT","A36470UBRH28GO","3R5LWXWHR0UE010DORDQUF3E2FPGXE","","","null","","","","","","","",""
"946.0999999046326","","image-keyboard-response","20","124364","0.0-2.0-0.6","3TMFV4NEP90M46NZMQAIP24VDLZ8WT","A36470UBRH28GO","3R5LWXWHR0UE010DORDQUF3E2FPGXE","","img/practice/S3.jpg","68","3","practice","72","false","","","",""
"null","","html-keyboard-response","21","124666","0.0-2.0-1.6","3TMFV4NEP90M46NZMQAIP24VDLZ8WT","A36470UBRH28GO","3R5LWXWHR0UE010DORDQUF3E2FPGXE","","<img src=""img/practice/S3.jpg"" width=""540"" height = ""360"">","null","","","","","","","",""
"null","","html-keyboard-response","22","124668","0.0-2.0-2.6","3TMFV4NEP90M46NZMQAIP24VDLZ8WT","A36470UBRH28GO","3R5LWXWHR0UE010DORDQUF3E2FPGXE","","","null","","","","","","","",""
"992.7999999523163","","image-keyboard-response","23","125663","0.0-2.0-0.7","3TMFV4NEP90M46NZMQAIP24VDLZ8WT","A36470UBRH28GO","3R5LWXWHR0UE010DORDQUF3E2FPGXE","","img/practice/S1.jpg","83","1","practice","83","true","","","",""
"null","","html-keyboard-response","24","125965","0.0-2.0-1.7","3TMFV4NEP90M46NZMQAIP24VDLZ8WT","A36470UBRH28GO","3R5LWXWHR0UE010DORDQUF3E2FPGXE","","<img src=""img/practice/S1.jpg"" width=""540"" height = ""360"" style=""border:16px solid orange"">","null","","","","","","","",""
"null","","html-keyboard-response","25","125968","0.0-2.0-2.7","3TMFV4NEP90M46NZMQAIP24VDLZ8WT","A36470UBRH28GO","3R5LWXWHR0UE010DORDQUF3E2FPGXE","","","null","","","","","","","",""
"995","","image-keyboard-response","26","126964","0.0-2.0-0.8","3TMFV4NEP90M46NZMQAIP24VDLZ8WT","A36470UBRH28GO","3R5LWXWHR0UE010DORDQUF3E2FPGXE","","img/practice/S4.jpg","74","4","practice","74","true","","","",""
"null","","html-keyboard-response","27","127267","0.0-2.0-1.8","3TMFV4NEP90M46NZMQAIP24VDLZ8WT","A36470UBRH28GO","3R5LWXWHR0UE010DORDQUF3E2FPGXE","","<img src=""img/practice/S4.jpg"" width=""540"" height = ""360"" style=""border:16px solid orange"">","null","","","","","","","",""
"null","","html-keyboard-response","28","127269","0.0-2.0-2.8","3TMFV4NEP90M46NZMQAIP24VDLZ8WT","A36470UBRH28GO","3R5LWXWHR0UE010DORDQUF3E2FPGXE","","","null","","","","","","","",""
"1348","","image-keyboard-response","29","128618","0.0-2.0-0.9","3TMFV4NEP90M46NZMQAIP24VDLZ8WT","A36470UBRH28GO","3R5LWXWHR0UE010DORDQUF3E2FPGXE","","img/practice/S3.jpg","72","3","practice","72","true","","","",""
"null","","html-keyboard-response","30","128922","0.0-2.0-1.9","3TMFV4NEP90M46NZMQAIP24VDLZ8WT","A36470UBRH28GO","3R5LWXWHR0UE010DORDQUF3E2FPGXE","","<img src=""img/practice/S3.jpg"" width=""540"" height = ""360"" style=""border:16px solid orange"">","null","","","","","","","",""
"null","","html-keyboard-response","31","128924","0.0-2.0-2.9","3TMFV4NEP90M46NZMQAIP24VDLZ8WT","A36470UBRH28GO","3R5LWXWHR0UE010DORDQUF3E2FPGXE","","","null","","","","","","","",""
"1551.8999999761581","","image-keyboard-response","32","130478","0.0-2.0-0.10","3TMFV4NEP90M46NZMQAIP24VDLZ8WT","A36470UBRH28GO","3R5LWXWHR0UE010DORDQUF3E2FPGXE","","img/practice/S2.jpg","68","2","practice","68","true","","","",""
"null","","html-keyboard-response","33","130780","0.0-2.0-1.10","3TMFV4NEP90M46NZMQAIP24VDLZ8WT","A36470UBRH28GO","3R5LWXWHR0UE010DORDQUF3E2FPGXE","","<img src=""img/practice/S2.jpg"" width=""540"" height = ""360"" style=""border:16px solid orange"">","null","","","","","","","",""
"null","","html-keyboard-response","34","130782","0.0-2.0-2.10","3TMFV4NEP90M46NZMQAIP24VDLZ8WT","A36470UBRH28GO","3R5LWXWHR0UE010DORDQUF3E2FPGXE","","","null","","","","","","","",""
"1223.7000000476837","","image-keyboard-response","35","132008","0.0-2.0-0.11","3TMFV4NEP90M46NZMQAIP24VDLZ8WT","A36470UBRH28GO","3R5LWXWHR0UE010DORDQUF3E2FPGXE","","img/practice/S1.jpg","83","1","practice","83","true","","","",""
"null","","html-keyboard-response","36","132311","0.0-2.0-1.11","3TMFV4NEP90M46NZMQAIP24VDLZ8WT","A36470UBRH28GO","3R5LWXWHR0UE010DORDQUF3E2FPGXE","","<img src=""img/practice/S1.jpg"" width=""540"" height = ""360"" style=""border:16px solid orange"">","null","","","","","","","",""
"null","","html-keyboard-response","37","132313","0.0-2.0-2.11","3TMFV4NEP90M46NZMQAIP24VDLZ8WT","A36470UBRH28GO","3R5LWXWHR0UE010DORDQUF3E2FPGXE","","","null","","","","","","","",""
"1262.1000000238419","","image-keyboard-response","38","133576","0.0-2.0-0.12","3TMFV4NEP90M46NZMQAIP24VDLZ8WT","A36470UBRH28GO","3R5LWXWHR0UE010DORDQUF3E2FPGXE","","img/practice/S3.jpg","68","3","practice","72","false","","","",""
"null","","html-keyboard-response","39","133878","0.0-2.0-1.12","3TMFV4NEP90M46NZMQAIP24VDLZ8WT","A36470UBRH28GO","3R5LWXWHR0UE010DORDQUF3E2FPGXE","","<img src=""img/practice/S3.jpg"" width=""540"" height = ""360"">","null","","","","","","","",""
"null","","html-keyboard-response","40","133880","0.0-2.0-2.12","3TMFV4NEP90M46NZMQAIP24VDLZ8WT","A36470UBRH28GO","3R5LWXWHR0UE010DORDQUF3E2FPGXE","","","null","","","","","","","",""
"1294.2999999523163","","image-keyboard-response","41","135176","0.0-2.0-0.13","3TMFV4NEP90M46NZMQAIP24VDLZ8WT","A36470UBRH28GO","3R5LWXWHR0UE010DORDQUF3E2FPGXE","","img/practice/S1.jpg","74","1","practice","83","false","","","",""
"null","","html-keyboard-response","42","135478","0.0-2.0-1.13","3TMFV4NEP90M46NZMQAIP24VDLZ8WT","A36470UBRH28GO","3R5LWXWHR0UE010DORDQUF3E2FPGXE","","<img src=""img/practice/S1.jpg"" width=""540"" height = ""360"">","null","","","","","","","",""
"null","","html-keyboard-response","43","135480","0.0-2.0-2.13","3TMFV4NEP90M46NZMQAIP24VDLZ8WT","A36470UBRH28GO","3R5LWXWHR0UE010DORDQUF3E2FPGXE","","","null","","","","","","","",""
"1565.5","","image-keyboard-response","44","137047","0.0-2.0-0.14","3TMFV4NEP90M46NZMQAIP24VDLZ8WT","A36470UBRH28GO","3R5LWXWHR0UE010DORDQUF3E2FPGXE","","img/practice/S4.jpg","72","4","practice","74","false","","","",""
"null","","html-keyboard-response","45","137350","0.0-2.0-1.14","3TMFV4NEP90M46NZMQAIP24VDLZ8WT","A36470UBRH28GO","3R5LWXWHR0UE010DORDQUF3E2FPGXE","","<img src=""img/practice/S4.jpg"" width=""540"" height = ""360"">","null","","","","","","","",""
"null","","html-keyboard-response","46","137352","0.0-2.0-2.14","3TMFV4NEP90M46NZMQAIP24VDLZ8WT","A36470UBRH28GO","3R5LWXWHR0UE010DORDQUF3E2FPGXE","","","null","","","","","","","",""
"1266.6999999284744","","image-keyboard-response","47","138620","0.0-2.0-0.15","3TMFV4NEP90M46NZMQAIP24VDLZ8WT","A36470UBRH28GO","3R5LWXWHR0UE010DORDQUF3E2FPGXE","","img/practice/S2.jpg","74","2","practice","68","false","","","",""
"null","","html-keyboard-response","48","138923","0.0-2.0-1.15","3TMFV4NEP90M46NZMQAIP24VDLZ8WT","A36470UBRH28GO","3R5LWXWHR0UE010DORDQUF3E2FPGXE","","<img src=""img/practice/S2.jpg"" width=""540"" height = ""360"">","null","","","","","","","",""
"null","","html-keyboard-response","49","138925","0.0-2.0-2.15","3TMFV4NEP90M46NZMQAIP24VDLZ8WT","A36470UBRH28GO","3R5LWXWHR0UE010DORDQUF3E2FPGXE","","","null","","","","","","","",""
"1433","","image-keyboard-response","50","140360","0.0-2.0-0.16","3TMFV4NEP90M46NZMQAIP24VDLZ8WT","A36470UBRH28GO","3R5LWXWHR0UE010DORDQUF3E2FPGXE","","img/practice/S3.jpg","72","3","practice","72","true","","","",""
"null","","html-keyboard-response","51","140662","0.0-2.0-1.16","3TMFV4NEP90M46NZMQAIP24VDLZ8WT","A36470UBRH28GO","3R5LWXWHR0UE010DORDQUF3E2FPGXE","","<img src=""img/practice/S3.jpg"" width=""540"" height = ""360"" style=""border:16px solid orange"">","null","","","","","","","",""
"null","","html-keyboard-response","52","140666","0.0-2.0-2.16","3TMFV4NEP90M46NZMQAIP24VDLZ8WT","A36470UBRH28GO","3R5LWXWHR0UE010DORDQUF3E2FPGXE","","","null","","","","","","","",""
"1143.3999999761581","","image-keyboard-response","53","141810","0.0-2.0-0.17","3TMFV4NEP90M46NZMQAIP24VDLZ8WT","A36470UBRH28GO","3R5LWXWHR0UE010DORDQUF3E2FPGXE","","img/practice/S4.jpg","74","4","practice","74","true","","","",""
"null","","html-keyboard-response","54","142112","0.0-2.0-1.17","3TMFV4NEP90M46NZMQAIP24VDLZ8WT","A36470UBRH28GO","3R5LWXWHR0UE010DORDQUF3E2FPGXE","","<img src=""img/practice/S4.jpg"" width=""540"" height = ""360"" style=""border:16px solid orange"">","null","","","","","","","",""
"null","","html-keyboard-response","55","142114","0.0-2.0-2.17","3TMFV4NEP90M46NZMQAIP24VDLZ8WT","A36470UBRH28GO","3R5LWXWHR0UE010DORDQUF3E2FPGXE","","","null","","","","","","","",""
"1460.7999999523163","","image-keyboard-response","56","143576","0.0-2.0-0.18","3TMFV4NEP90M46NZMQAIP24VDLZ8WT","A36470UBRH28GO","3R5LWXWHR0UE010DORDQUF3E2FPGXE","","img/practice/S1.jpg","68","1","practice","83","false","","","",""
"null","","html-keyboard-response","57","143878","0.0-2.0-1.18","3TMFV4NEP90M46NZMQAIP24VDLZ8WT","A36470UBRH28GO","3R5LWXWHR0UE010DORDQUF3E2FPGXE","","<img src=""img/practice/S1.jpg"" width=""540"" height = ""360"">","null","","","","","","","",""
"null","","html-keyboard-response","58","143881","0.0-2.0-2.18","3TMFV4NEP90M46NZMQAIP24VDLZ8WT","A36470UBRH28GO","3R5LWXWHR0UE010DORDQUF3E2FPGXE","","","null","","","","","","","",""
"1130.3000000715256","","image-keyboard-response","59","145013","0.0-2.0-0.19","3TMFV4NEP90M46NZMQAIP24VDLZ8WT","A36470UBRH28GO","3R5LWXWHR0UE010DORDQUF3E2FPGXE","","img/practice/S2.jpg","74","2","practice","68","false","","","",""
"null","","html-keyboard-response","60","145315","0.0-2.0-1.19","3TMFV4NEP90M46NZMQAIP24VDLZ8WT","A36470UBRH28GO","3R5LWXWHR0UE010DORDQUF3E2FPGXE","","<img src=""img/practice/S2.jpg"" width=""540"" height = ""360"">","null","","","","","","","",""
"null","","html-keyboard-response","61","145317","0.0-2.0-2.19","3TMFV4NEP90M46NZMQAIP24VDLZ8WT","A36470UBRH28GO","3R5LWXWHR0UE010DORDQUF3E2FPGXE","","","null","","","","","","","",""
"876.1999999284744","","image-keyboard-response","62","146195","0.0-2.0-0.20","3TMFV4NEP90M46NZMQAIP24VDLZ8WT","A36470UBRH28GO","3R5LWXWHR0UE010DORDQUF3E2FPGXE","","img/practice/S1.jpg","83","1","practice","83","true","","","",""
"null","","html-keyboard-response","63","146497","0.0-2.0-1.20","3TMFV4NEP90M46NZMQAIP24VDLZ8WT","A36470UBRH28GO","3R5LWXWHR0UE010DORDQUF3E2FPGXE","","<img src=""img/practice/S1.jpg"" width=""540"" height = ""360"" style=""border:16px solid orange"">","null","","","","","","","",""
"null","","html-keyboard-response","64","146499","0.0-2.0-2.20","3TMFV4NEP90M46NZMQAIP24VDLZ8WT","A36470UBRH28GO","3R5LWXWHR0UE010DORDQUF3E2FPGXE","","","null","","","","","","","",""
"1471.6999999284744","","image-keyboard-response","65","147972","0.0-2.0-0.21","3TMFV4NEP90M46NZMQAIP24VDLZ8WT","A36470UBRH28GO","3R5LWXWHR0UE010DORDQUF3E2FPGXE","","img/practice/S3.jpg","68","3","practice","72","false","","","",""
"null","","html-keyboard-response","66","148274","0.0-2.0-1.21","3TMFV4NEP90M46NZMQAIP24VDLZ8WT","A36470UBRH28GO","3R5LWXWHR0UE010DORDQUF3E2FPGXE","","<img src=""img/practice/S3.jpg"" width=""540"" height = ""360"">","null","","","","","","","",""
"null","","html-keyboard-response","67","148276","0.0-2.0-2.21","3TMFV4NEP90M46NZMQAIP24VDLZ8WT","A36470UBRH28GO","3R5LWXWHR0UE010DORDQUF3E2FPGXE","","","null","","","","","","","",""
"1162.5","","image-keyboard-response","68","149440","0.0-2.0-0.22","3TMFV4NEP90M46NZMQAIP24VDLZ8WT","A36470UBRH28GO","3R5LWXWHR0UE010DORDQUF3E2FPGXE","","img/practice/S4.jpg","74","4","practice","74","true","","","",""
"null","","html-keyboard-response","69","149743","0.0-2.0-1.22","3TMFV4NEP90M46NZMQAIP24VDLZ8WT","A36470UBRH28GO","3R5LWXWHR0UE010DORDQUF3E2FPGXE","","<img src=""img/practice/S4.jpg"" width=""540"" height = ""360"" style=""border:16px solid orange"">","null","","","","","","","",""
"null","","html-keyboard-response","70","149750","0.0-2.0-2.22","3TMFV4NEP90M46NZMQAIP24VDLZ8WT","A36470UBRH28GO","3R5LWXWHR0UE010DORDQUF3E2FPGXE","","","null","","","","","","","",""
"1475.2999999523163","","image-keyboard-response","71","151226","0.0-2.0-0.23","3TMFV4NEP90M46NZMQAIP24VDLZ8WT","A36470UBRH28GO","3R5LWXWHR0UE010DORDQUF3E2FPGXE","","img/practice/S2.jpg","68","2","practice","68","true","","","",""
"null","","html-keyboard-response","72","151529","0.0-2.0-1.23","3TMFV4NEP90M46NZMQAIP24VDLZ8WT","A36470UBRH28GO","3R5LWXWHR0UE010DORDQUF3E2FPGXE","","<img src=""img/practice/S2.jpg"" width=""540"" height = ""360"" style=""border:16px solid orange"">","null","","","","","","","",""
"null","","html-keyboard-response","73","151532","0.0-2.0-2.23","3TMFV4NEP90M46NZMQAIP24VDLZ8WT","A36470UBRH28GO","3R5LWXWHR0UE010DORDQUF3E2FPGXE","","","null","","","","","","","",""
"10609.5","","instructions","74","162142","0.0-3.0","3TMFV4NEP90M46NZMQAIP24VDLZ8WT","A36470UBRH28GO","3R5LWXWHR0UE010DORDQUF3E2FPGXE","[{""page_index"":0,""viewing_time"":10609.199999928474}]","","","","","","","","","",""
"4157.5","","instructions","75","166300","0.0-4.0","3TMFV4NEP90M46NZMQAIP24VDLZ8WT","A36470UBRH28GO","3R5LWXWHR0UE010DORDQUF3E2FPGXE","[{""page_index"":0,""viewing_time"":4157.199999928474}]","","","","","","","","","",""
"19412.100000023842","","instructions","76","185712","0.0-5.0","3TMFV4NEP90M46NZMQAIP24VDLZ8WT","A36470UBRH28GO","3R5LWXWHR0UE010DORDQUF3E2FPGXE","[{""page_index"":0,""viewing_time"":11189.900000095367},{""page_index"":1,""viewing_time"":8221.899999976158}]","","","","","","","","","",""
"1246.6999999284744","","image-keyboard-response","77","186960","0.0-6.0","3TMFV4NEP90M46NZMQAIP24VDLZ8WT","A36470UBRH28GO","3R5LWXWHR0UE010DORDQUF3E2FPGXE","","img/set1/S1.jpg","83","1","structured_incentive","83","true","structured_incentive,random,structured_normal","1,2,2,3","",""
"null","","html-keyboard-response","78","187314","0.0-7.0","3TMFV4NEP90M46NZMQAIP24VDLZ8WT","A36470UBRH28GO","3R5LWXWHR0UE010DORDQUF3E2FPGXE","","<img src=""img/set1/S1.jpg"" width=""540"" height = ""360"" style=""border:16px solid orange"">","null","","","","","","","",""
"null","","html-keyboard-response","79","187317","0.0-8.0","3TMFV4NEP90M46NZMQAIP24VDLZ8WT","A36470UBRH28GO","3R5LWXWHR0UE010DORDQUF3E2FPGXE","","","null","","","","","","","",""
"null","","image-keyboard-response","80","189820","0.0-9.0","3TMFV4NEP90M46NZMQAIP24VDLZ8WT","A36470UBRH28GO","3R5LWXWHR0UE010DORDQUF3E2FPGXE","","img/set1/S2.jpg","null","2","structured_incentive","68","false","structured_incentive,random,structured_normal","1,2,2,3","",""
"null","","html-keyboard-response","81","190173","0.0-10.0","3TMFV4NEP90M46NZMQAIP24VDLZ8WT","A36470UBRH28GO","3R5LWXWHR0UE010DORDQUF3E2FPGXE","","<img src=""img/set1/S2.jpg"" width=""540"" height = ""360"">","null","","","","","","","",""
"null","","html-keyboard-response","82","190179","0.0-11.0","3TMFV4NEP90M46NZMQAIP24VDLZ8WT","A36470UBRH28GO","3R5LWXWHR0UE010DORDQUF3E2FPGXE","","","null","","","","","","","",""
"23.199999928474426","","image-keyboard-response","83","190202","0.0-12.0","3TMFV4NEP90M46NZMQAIP24VDLZ8WT","A36470UBRH28GO","3R5LWXWHR0UE010DORDQUF3E2FPGXE","","img/set1/S4.jpg","74","4","structured_incentive","74","true","structured_incentive,random,structured_normal","1,2,2,3","",""
"null","","html-keyboard-response","84","190554","0.0-13.0","3TMFV4NEP90M46NZMQAIP24VDLZ8WT","A36470UBRH28GO","3R5LWXWHR0UE010DORDQUF3E2FPGXE","","<img src=""img/set1/S4.jpg"" width=""540"" height = ""360"" style=""border:16px solid orange"">","null","","","","","","","",""
"null","","html-keyboard-response","85","190556","0.0-14.0","3TMFV4NEP90M46NZMQAIP24VDLZ8WT","A36470UBRH28GO","3R5LWXWHR0UE010DORDQUF3E2FPGXE","","","null","","","","","","","",""
"1247","","image-keyboard-response","86","191805","0.0-15.0","3TMFV4NEP90M46NZMQAIP24VDLZ8WT","A36470UBRH28GO","3R5LWXWHR0UE010DORDQUF3E2FPGXE","","img/set1/S3.jpg","68","3","structured_incentive","72","false","structured_incentive,random,structured_normal","1,2,2,3","",""
"null","","html-keyboard-response","87","192157","0.0-16.0","3TMFV4NEP90M46NZMQAIP24VDLZ8WT","A36470UBRH28GO","3R5LWXWHR0UE010DORDQUF3E2FPGXE","","<img src=""img/set1/S3.jpg"" width=""540"" height = ""360"">","null","","","","","","","",""
"null","","html-keyboard-response","88","192159","0.0-17.0","3TMFV4NEP90M46NZMQAIP24VDLZ8WT","A36470UBRH28GO","3R5LWXWHR0UE010DORDQUF3E2FPGXE","","","null","","","","","","","",""
"713.3000000715256","","image-keyboard-response","89","192874","0.0-18.0","3TMFV4NEP90M46NZMQAIP24VDLZ8WT","A36470UBRH28GO","3R5LWXWHR0UE010DORDQUF3E2FPGXE","","img/set1/S2.jpg","83","2","structured_incentive","68","false","structured_incentive,random,structured_normal","1,2,2,3","",""
"null","","html-keyboard-response","90","193228","0.0-19.0","3TMFV4NEP90M46NZMQAIP24VDLZ8WT","A36470UBRH28GO","3R5LWXWHR0UE010DORDQUF3E2FPGXE","","<img src=""img/set1/S2.jpg"" width=""540"" height = ""360"">","null","","","","","","","",""
"null","","html-keyboard-response","91","193230","0.0-20.0","3TMFV4NEP90M46NZMQAIP24VDLZ8WT","A36470UBRH28GO","3R5LWXWHR0UE010DORDQUF3E2FPGXE","","","null","","","","","","","",""
"2426.2999999523163","","image-keyboard-response","92","195658","0.0-21.0","3TMFV4NEP90M46NZMQAIP24VDLZ8WT","A36470UBRH28GO","3R5LWXWHR0UE010DORDQUF3E2FPGXE","","img/set1/S4.jpg","74","4","structured_incentive","74","true","structured_incentive,random,structured_normal","1,2,2,3","",""
"null","","html-keyboard-response","93","196010","0.0-22.0","3TMFV4NEP90M46NZMQAIP24VDLZ8WT","A36470UBRH28GO","3R5LWXWHR0UE010DORDQUF3E2FPGXE","","<img src=""img/set1/S4.jpg"" width=""540"" height = ""360"" style=""border:16px solid orange"">","null","","","","","","","",""
"null","","html-keyboard-response","94","196012","0.0-23.0","3TMFV4NEP90M46NZMQAIP24VDLZ8WT","A36470UBRH28GO","3R5LWXWHR0UE010DORDQUF3E2FPGXE","","","null","","","","","","","",""
"1506.3999999761581","","image-keyboard-response","95","197520","0.0-24.0","3TMFV4NEP90M46NZMQAIP24VDLZ8WT","A36470UBRH28GO","3R5LWXWHR0UE010DORDQUF3E2FPGXE","","img/set1/S3.jpg","68","3","structured_incentive","72","false","structured_incentive,random,structured_normal","1,2,2,3","",""
"null","","html-keyboard-response","96","197874","0.0-25.0","3TMFV4NEP90M46NZMQAIP24VDLZ8WT","A36470UBRH28GO","3R5LWXWHR0UE010DORDQUF3E2FPGXE","","<img src=""img/set1/S3.jpg"" width=""540"" height = ""360"">","null","","","","","","","",""
"null","","html-keyboard-response","97","197876","0.0-26.0","3TMFV4NEP90M46NZMQAIP24VDLZ8WT","A36470UBRH28GO","3R5LWXWHR0UE010DORDQUF3E2FPGXE","","","null","","","","","","","",""
"1981.3999999761581","","image-keyboard-response","98","199859","0.0-27.0","3TMFV4NEP90M46NZMQAIP24VDLZ8WT","A36470UBRH28GO","3R5LWXWHR0UE010DORDQUF3E2FPGXE","","img/set1/S3.jpg","83","3","structured_incentive","72","false","structured_incentive,random,structured_normal","1,2,2,3","",""
"null","","html-keyboard-response","99","200213","0.0-28.0","3TMFV4NEP90M46NZMQAIP24VDLZ8WT","A36470UBRH28GO","3R5LWXWHR0UE010DORDQUF3E2FPGXE","","<img src=""img/set1/S3.jpg"" width=""540"" height = ""360"">","null","","","","","","","",""
"null","","html-keyboard-response","100","200215","0.0-29.0","3TMFV4NEP90M46NZMQAIP24VDLZ8WT","A36470UBRH28GO","3R5LWXWHR0UE010DORDQUF3E2FPGXE","","","null","","","","","","","",""
"1174.8000000715256","","image-keyboard-response","101","201391","0.0-30.0","3TMFV4NEP90M46NZMQAIP24VDLZ8WT","A36470UBRH28GO","3R5LWXWHR0UE010DORDQUF3E2FPGXE","","img/set1/S4.jpg","74","4","structured_incentive","74","true","structured_incentive,random,structured_normal","1,2,2,3","",""
"null","","html-keyboard-response","102","201742","0.0-31.0","3TMFV4NEP90M46NZMQAIP24VDLZ8WT","A36470UBRH28GO","3R5LWXWHR0UE010DORDQUF3E2FPGXE","","<img src=""img/set1/S4.jpg"" width=""540"" height = ""360"" style=""border:16px solid orange"">","null","","","","","","","",""
"null","","html-keyboard-response","103","201745","0.0-32.0","3TMFV4NEP90M46NZMQAIP24VDLZ8WT","A36470UBRH28GO","3R5LWXWHR0UE010DORDQUF3E2FPGXE","","","null","","","","","","","",""
"961.8000000715256","","image-keyboard-response","104","202708","0.0-33.0","3TMFV4NEP90M46NZMQAIP24VDLZ8WT","A36470UBRH28GO","3R5LWXWHR0UE010DORDQUF3E2FPGXE","","img/set1/S3.jpg","68","3","structured_incentive","72","false","structured_incentive,random,structured_normal","1,2,2,3","",""
"null","","html-keyboard-response","105","203062","0.0-34.0","3TMFV4NEP90M46NZMQAIP24VDLZ8WT","A36470UBRH28GO","3R5LWXWHR0UE010DORDQUF3E2FPGXE","","<img src=""img/set1/S3.jpg"" width=""540"" height = ""360"">","null","","","","","","","",""
"null","","html-keyboard-response","106","203064","0.0-35.0","3TMFV4NEP90M46NZMQAIP24VDLZ8WT","A36470UBRH28GO","3R5LWXWHR0UE010DORDQUF3E2FPGXE","","","null","","","","","","","",""
"1749.6000000238419","","image-keyboard-response","107","204815","0.0-36.0","3TMFV4NEP90M46NZMQAIP24VDLZ8WT","A36470UBRH28GO","3R5LWXWHR0UE010DORDQUF3E2FPGXE","","img/set1/S2.jpg","83","2","structured_incentive","68","false","structured_incentive,random,structured_normal","1,2,2,3","",""
"null","","html-keyboard-response","108","205167","0.0-37.0","3TMFV4NEP90M46NZMQAIP24VDLZ8WT","A36470UBRH28GO","3R5LWXWHR0UE010DORDQUF3E2FPGXE","","<img src=""img/set1/S2.jpg"" width=""540"" height = ""360"">","null","","","","","","","",""
"null","","html-keyboard-response","109","205170","0.0-38.0","3TMFV4NEP90M46NZMQAIP24VDLZ8WT","A36470UBRH28GO","3R5LWXWHR0UE010DORDQUF3E2FPGXE","","","null","","","","","","","",""
"1347.6000000238419","","image-keyboard-response","110","206519","0.0-39.0","3TMFV4NEP90M46NZMQAIP24VDLZ8WT","A36470UBRH28GO","3R5LWXWHR0UE010DORDQUF3E2FPGXE","","img/set1/S3.jpg","83","3","structured_incentive","72","false","structured_incentive,random,structured_normal","1,2,2,3","",""
"null","","html-keyboard-response","111","206872","0.0-40.0","3TMFV4NEP90M46NZMQAIP24VDLZ8WT","A36470UBRH28GO","3R5LWXWHR0UE010DORDQUF3E2FPGXE","","<img src=""img/set1/S3.jpg"" width=""540"" height = ""360"">","null","","","","","","","",""
"null","","html-keyboard-response","112","206874","0.0-41.0","3TMFV4NEP90M46NZMQAIP24VDLZ8WT","A36470UBRH28GO","3R5LWXWHR0UE010DORDQUF3E2FPGXE","","","null","","","","","","","",""
"1470.4000000953674","","image-keyboard-response","113","208346","0.0-42.0","3TMFV4NEP90M46NZMQAIP24VDLZ8WT","A36470UBRH28GO","3R5LWXWHR0UE010DORDQUF3E2FPGXE","","img/set1/S1.jpg","83","1","structured_incentive","83","true","structured_incentive,random,structured_normal","1,2,2,3","",""
"null","","html-keyboard-response","114","208702","0.0-43.0","3TMFV4NEP90M46NZMQAIP24VDLZ8WT","A36470UBRH28GO","3R5LWXWHR0UE010DORDQUF3E2FPGXE","","<img src=""img/set1/S1.jpg"" width=""540"" height = ""360"" style=""border:16px solid orange"">","null","","","","","","","",""
"null","","html-keyboard-response","115","208704","0.0-44.0","3TMFV4NEP90M46NZMQAIP24VDLZ8WT","A36470UBRH28GO","3R5LWXWHR0UE010DORDQUF3E2FPGXE","","","null","","","","","","","",""
"null","","image-keyboard-response","116","211207","0.0-45.0","3TMFV4NEP90M46NZMQAIP24VDLZ8WT","A36470UBRH28GO","3R5LWXWHR0UE010DORDQUF3E2FPGXE","","img/set1/S2.jpg","null","2","structured_incentive","68","false","structured_incentive,random,structured_normal","1,2,2,3","",""
"null","","html-keyboard-response","117","211561","0.0-46.0","3TMFV4NEP90M46NZMQAIP24VDLZ8WT","A36470UBRH28GO","3R5LWXWHR0UE010DORDQUF3E2FPGXE","","<img src=""img/set1/S2.jpg"" width=""540"" height = ""360"">","null","","","","","","","",""
"null","","html-keyboard-response","118","211566","0.0-47.0","3TMFV4NEP90M46NZMQAIP24VDLZ8WT","A36470UBRH28GO","3R5LWXWHR0UE010DORDQUF3E2FPGXE","","","null","","","","","","","",""
"854.6999999284744","","image-keyboard-response","119","212422","0.0-48.0","3TMFV4NEP90M46NZMQAIP24VDLZ8WT","A36470UBRH28GO","3R5LWXWHR0UE010DORDQUF3E2FPGXE","","img/set1/S3.jpg","74","3","structured_incentive","72","false","structured_incentive,random,structured_normal","1,2,2,3","",""
"null","","html-keyboard-response","120","212775","0.0-49.0","3TMFV4NEP90M46NZMQAIP24VDLZ8WT","A36470UBRH28GO","3R5LWXWHR0UE010DORDQUF3E2FPGXE","","<img src=""img/set1/S3.jpg"" width=""540"" height = ""360"">","null","","","","","","","",""
"null","","html-keyboard-response","121","212777","0.0-50.0","3TMFV4NEP90M46NZMQAIP24VDLZ8WT","A36470UBRH28GO","3R5LWXWHR0UE010DORDQUF3E2FPGXE","","","null","","","","","","","",""
"787.2999999523163","","image-keyboard-response","122","213565","0.0-51.0","3TMFV4NEP90M46NZMQAIP24VDLZ8WT","A36470UBRH28GO","3R5LWXWHR0UE010DORDQUF3E2FPGXE","","img/set1/S3.jpg","68","3","structured_incentive","72","false","structured_incentive,random,structured_normal","1,2,2,3","",""
"null","","html-keyboard-response","123","213917","0.0-52.0","3TMFV4NEP90M46NZMQAIP24VDLZ8WT","A36470UBRH28GO","3R5LWXWHR0UE010DORDQUF3E2FPGXE","","<img src=""img/set1/S3.jpg"" width=""540"" height = ""360"">","null","","","","","","","",""
"null","","html-keyboard-response","124","213919","0.0-53.0","3TMFV4NEP90M46NZMQAIP24VDLZ8WT","A36470UBRH28GO","3R5LWXWHR0UE010DORDQUF3E2FPGXE","","","null","","","","","","","",""
"null","","image-keyboard-response","125","216422","0.0-54.0","3TMFV4NEP90M46NZMQAIP24VDLZ8WT","A36470UBRH28GO","3R5LWXWHR0UE010DORDQUF3E2FPGXE","","img/set1/S4.jpg","null","4","structured_incentive","74","false","structured_incentive,random,structured_normal","1,2,2,3","",""
"null","","html-keyboard-response","126","216774","0.0-55.0","3TMFV4NEP90M46NZMQAIP24VDLZ8WT","A36470UBRH28GO","3R5LWXWHR0UE010DORDQUF3E2FPGXE","","<img src=""img/set1/S4.jpg"" width=""540"" height = ""360"">","null","","","","","","","",""
"null","","html-keyboard-response","127","216780","0.0-56.0","3TMFV4NEP90M46NZMQAIP24VDLZ8WT","A36470UBRH28GO","3R5LWXWHR0UE010DORDQUF3E2FPGXE","","","null","","","","","","","",""
"1445.1000000238419","","image-keyboard-response","128","218226","0.0-57.0","3TMFV4NEP90M46NZMQAIP24VDLZ8WT","A36470UBRH28GO","3R5LWXWHR0UE010DORDQUF3E2FPGXE","","img/set1/S3.jpg","83","3","structured_incentive","72","false","structured_incentive,random,structured_normal","1,2,2,3","",""
"null","","html-keyboard-response","129","218578","0.0-58.0","3TMFV4NEP90M46NZMQAIP24VDLZ8WT","A36470UBRH28GO","3R5LWXWHR0UE010DORDQUF3E2FPGXE","","<img src=""img/set1/S3.jpg"" width=""540"" height = ""360"">","null","","","","","","","",""
"null","","html-keyboard-response","130","218580","0.0-59.0","3TMFV4NEP90M46NZMQAIP24VDLZ8WT","A36470UBRH28GO","3R5LWXWHR0UE010DORDQUF3E2FPGXE","","","null","","","","","","","",""
"899.8999999761581","","image-keyboard-response","131","219480","0.0-60.0","3TMFV4NEP90M46NZMQAIP24VDLZ8WT","A36470UBRH28GO","3R5LWXWHR0UE010DORDQUF3E2FPGXE","","img/set1/S1.jpg","83","1","structured_incentive","83","true","structured_incentive,random,structured_normal","1,2,2,3","",""
"null","","html-keyboard-response","132","219832","0.0-61.0","3TMFV4NEP90M46NZMQAIP24VDLZ8WT","A36470UBRH28GO","3R5LWXWHR0UE010DORDQUF3E2FPGXE","","<img src=""img/set1/S1.jpg"" width=""540"" height = ""360"" style=""border:16px solid orange"">","null","","","","","","","",""
"null","","html-keyboard-response","133","219835","0.0-62.0","3TMFV4NEP90M46NZMQAIP24VDLZ8WT","A36470UBRH28GO","3R5LWXWHR0UE010DORDQUF3E2FPGXE","","","null","","","","","","","",""
"1619","","image-keyboard-response","134","221455","0.0-63.0","3TMFV4NEP90M46NZMQAIP24VDLZ8WT","A36470UBRH28GO","3R5LWXWHR0UE010DORDQUF3E2FPGXE","","img/set1/S2.jpg","74","2","structured_incentive","68","false","structured_incentive,random,structured_normal","1,2,2,3","",""
"null","","html-keyboard-response","135","221807","0.0-64.0","3TMFV4NEP90M46NZMQAIP24VDLZ8WT","A36470UBRH28GO","3R5LWXWHR0UE010DORDQUF3E2FPGXE","","<img src=""img/set1/S2.jpg"" width=""540"" height = ""360"">","null","","","","","","","",""
"null","","html-keyboard-response","136","221809","0.0-65.0","3TMFV4NEP90M46NZMQAIP24VDLZ8WT","A36470UBRH28GO","3R5LWXWHR0UE010DORDQUF3E2FPGXE","","","null","","","","","","","",""
"2128.0999999046326","","image-keyboard-response","137","223939","0.0-66.0","3TMFV4NEP90M46NZMQAIP24VDLZ8WT","A36470UBRH28GO","3R5LWXWHR0UE010DORDQUF3E2FPGXE","","img/set1/S2.jpg","68","2","structured_incentive","68","true","structured_incentive,random,structured_normal","1,2,2,3","",""
"null","","html-keyboard-response","138","224292","0.0-67.0","3TMFV4NEP90M46NZMQAIP24VDLZ8WT","A36470UBRH28GO","3R5LWXWHR0UE010DORDQUF3E2FPGXE","","<img src=""img/set1/S2.jpg"" width=""540"" height = ""360"" style=""border:16px solid orange"">","null","","","","","","","",""
"null","","html-keyboard-response","139","224295","0.0-68.0","3TMFV4NEP90M46NZMQAIP24VDLZ8WT","A36470UBRH28GO","3R5LWXWHR0UE010DORDQUF3E2FPGXE","","","null","","","","","","","",""
"1312.6000000238419","","image-keyboard-response","140","225609","0.0-69.0","3TMFV4NEP90M46NZMQAIP24VDLZ8WT","A36470UBRH28GO","3R5LWXWHR0UE010DORDQUF3E2FPGXE","","img/set1/S3.jpg","74","3","structured_incentive","72","false","structured_incentive,random,structured_normal","1,2,2,3","",""
"null","","html-keyboard-response","141","225962","0.0-70.0","3TMFV4NEP90M46NZMQAIP24VDLZ8WT","A36470UBRH28GO","3R5LWXWHR0UE010DORDQUF3E2FPGXE","","<img src=""img/set1/S3.jpg"" width=""540"" height = ""360"">","null","","","","","","","",""
"null","","html-keyboard-response","142","225964","0.0-71.0","3TMFV4NEP90M46NZMQAIP24VDLZ8WT","A36470UBRH28GO","3R5LWXWHR0UE010DORDQUF3E2FPGXE","","","null","","","","","","","",""
"958.6000000238419","","image-keyboard-response","143","226924","0.0-72.0","3TMFV4NEP90M46NZMQAIP24VDLZ8WT","A36470UBRH28GO","3R5LWXWHR0UE010DORDQUF3E2FPGXE","","img/set1/S2.jpg","68","2","structured_incentive","68","true","structured_incentive,random,structured_normal","1,2,2,3","",""
"null","","html-keyboard-response","144","227278","0.0-73.0","3TMFV4NEP90M46NZMQAIP24VDLZ8WT","A36470UBRH28GO","3R5LWXWHR0UE010DORDQUF3E2FPGXE","","<img src=""img/set1/S2.jpg"" width=""540"" height = ""360"" style=""border:16px solid orange"">","null","","","","","","","",""
"null","","html-keyboard-response","145","227280","0.0-74.0","3TMFV4NEP90M46NZMQAIP24VDLZ8WT","A36470UBRH28GO","3R5LWXWHR0UE010DORDQUF3E2FPGXE","","","null","","","","","","","",""
"null","","image-keyboard-response","146","229782","0.0-75.0","3TMFV4NEP90M46NZMQAIP24VDLZ8WT","A36470UBRH28GO","3R5LWXWHR0UE010DORDQUF3E2FPGXE","","img/set1/S3.jpg","null","3","structured_incentive","72","false","structured_incentive,random,structured_normal","1,2,2,3","",""
"null","","html-keyboard-response","147","230135","0.0-76.0","3TMFV4NEP90M46NZMQAIP24VDLZ8WT","A36470UBRH28GO","3R5LWXWHR0UE010DORDQUF3E2FPGXE","","<img src=""img/set1/S3.jpg"" width=""540"" height = ""360"">","null","","","","","","","",""
"null","","html-keyboard-response","148","230142","0.0-77.0","3TMFV4NEP90M46NZMQAIP24VDLZ8WT","A36470UBRH28GO","3R5LWXWHR0UE010DORDQUF3E2FPGXE","","","null","","","","","","","",""
"1044.1999999284744","","image-keyboard-response","149","231188","0.0-78.0","3TMFV4NEP90M46NZMQAIP24VDLZ8WT","A36470UBRH28GO","3R5LWXWHR0UE010DORDQUF3E2FPGXE","","img/set1/S2.jpg","68","2","structured_incentive","68","true","structured_incentive,random,structured_normal","1,2,2,3","",""
"null","","html-keyboard-response","150","231540","0.0-79.0","3TMFV4NEP90M46NZMQAIP24VDLZ8WT","A36470UBRH28GO","3R5LWXWHR0UE010DORDQUF3E2FPGXE","","<img src=""img/set1/S2.jpg"" width=""540"" height = ""360"" style=""border:16px solid orange"">","null","","","","","","","",""
"null","","html-keyboard-response","151","231542","0.0-80.0","3TMFV4NEP90M46NZMQAIP24VDLZ8WT","A36470UBRH28GO","3R5LWXWHR0UE010DORDQUF3E2FPGXE","","","null","","","","","","","",""
"1527.5","","image-keyboard-response","152","233072","0.0-81.0","3TMFV4NEP90M46NZMQAIP24VDLZ8WT","A36470UBRH28GO","3R5LWXWHR0UE010DORDQUF3E2FPGXE","","img/set1/S1.jpg","83","1","structured_incentive","83","true","structured_incentive,random,structured_normal","1,2,2,3","",""
"null","","html-keyboard-response","153","233424","0.0-82.0","3TMFV4NEP90M46NZMQAIP24VDLZ8WT","A36470UBRH28GO","3R5LWXWHR0UE010DORDQUF3E2FPGXE","","<img src=""img/set1/S1.jpg"" width=""540"" height = ""360"" style=""border:16px solid orange"">","null","","","","","","","",""
"null","","html-keyboard-response","154","233426","0.0-83.0","3TMFV4NEP90M46NZMQAIP24VDLZ8WT","A36470UBRH28GO","3R5LWXWHR0UE010DORDQUF3E2FPGXE","","","null","","","","","","","",""
"871.6999999284744","","image-keyboard-response","155","234298","0.0-84.0","3TMFV4NEP90M46NZMQAIP24VDLZ8WT","A36470UBRH28GO","3R5LWXWHR0UE010DORDQUF3E2FPGXE","","img/set1/S2.jpg","68","2","structured_incentive","68","true","structured_incentive,random,structured_normal","1,2,2,3","",""
"null","","html-keyboard-response","156","234653","0.0-85.0","3TMFV4NEP90M46NZMQAIP24VDLZ8WT","A36470UBRH28GO","3R5LWXWHR0UE010DORDQUF3E2FPGXE","","<img src=""img/set1/S2.jpg"" width=""540"" height = ""360"" style=""border:16px solid orange"">","null","","","","","","","",""
"null","","html-keyboard-response","157","234655","0.0-86.0","3TMFV4NEP90M46NZMQAIP24VDLZ8WT","A36470UBRH28GO","3R5LWXWHR0UE010DORDQUF3E2FPGXE","","","null","","","","","","","",""
"null","","image-keyboard-response","158","237158","0.0-87.0","3TMFV4NEP90M46NZMQAIP24VDLZ8WT","A36470UBRH28GO","3R5LWXWHR0UE010DORDQUF3E2FPGXE","","img/set1/S4.jpg","null","4","structured_incentive","74","false","structured_incentive,random,structured_normal","1,2,2,3","",""
"null","","html-keyboard-response","159","237512","0.0-88.0","3TMFV4NEP90M46NZMQAIP24VDLZ8WT","A36470UBRH28GO","3R5LWXWHR0UE010DORDQUF3E2FPGXE","","<img src=""img/set1/S4.jpg"" width=""540"" height = ""360"">","null","","","","","","","",""
"null","","html-keyboard-response","160","237518","0.0-89.0","3TMFV4NEP90M46NZMQAIP24VDLZ8WT","A36470UBRH28GO","3R5LWXWHR0UE010DORDQUF3E2FPGXE","","","null","","","","","","","",""
"1018.6000000238419","","image-keyboard-response","161","238538","0.0-90.0","3TMFV4NEP90M46NZMQAIP24VDLZ8WT","A36470UBRH28GO","3R5LWXWHR0UE010DORDQUF3E2FPGXE","","img/set1/S1.jpg","83","1","structured_incentive","83","true","structured_incentive,random,structured_normal","1,2,2,3","",""
"null","","html-keyboard-response","162","238890","0.0-91.0","3TMFV4NEP90M46NZMQAIP24VDLZ8WT","A36470UBRH28GO","3R5LWXWHR0UE010DORDQUF3E2FPGXE","","<img src=""img/set1/S1.jpg"" width=""540"" height = ""360"" style=""border:16px solid orange"">","null","","","","","","","",""
"null","","html-keyboard-response","163","238893","0.0-92.0","3TMFV4NEP90M46NZMQAIP24VDLZ8WT","A36470UBRH28GO","3R5LWXWHR0UE010DORDQUF3E2FPGXE","","","null","","","","","","","",""
"839.5","","image-keyboard-response","164","239734","0.0-93.0","3TMFV4NEP90M46NZMQAIP24VDLZ8WT","A36470UBRH28GO","3R5LWXWHR0UE010DORDQUF3E2FPGXE","","img/set1/S2.jpg","68","2","structured_incentive","68","true","structured_incentive,random,structured_normal","1,2,2,3","",""
"null","","html-keyboard-response","165","240085","0.0-94.0","3TMFV4NEP90M46NZMQAIP24VDLZ8WT","A36470UBRH28GO","3R5LWXWHR0UE010DORDQUF3E2FPGXE","","<img src=""img/set1/S2.jpg"" width=""540"" height = ""360"" style=""border:16px solid orange"">","null","","","","","","","",""
"null","","html-keyboard-response","166","240087","0.0-95.0","3TMFV4NEP90M46NZMQAIP24VDLZ8WT","A36470UBRH28GO","3R5LWXWHR0UE010DORDQUF3E2FPGXE","","","null","","","","","","","",""
"1142.5999999046326","","image-keyboard-response","167","241232","0.0-96.0","3TMFV4NEP90M46NZMQAIP24VDLZ8WT","A36470UBRH28GO","3R5LWXWHR0UE010DORDQUF3E2FPGXE","","img/set1/S4.jpg","74","4","structured_incentive","74","true","structured_incentive,random,structured_normal","1,2,2,3","",""
"null","","html-keyboard-response","168","241584","0.0-97.0","3TMFV4NEP90M46NZMQAIP24VDLZ8WT","A36470UBRH28GO","3R5LWXWHR0UE010DORDQUF3E2FPGXE","","<img src=""img/set1/S4.jpg"" width=""540"" height = ""360"" style=""border:16px solid orange"">","null","","","","","","","",""
"null","","html-keyboard-response","169","241586","0.0-98.0","3TMFV4NEP90M46NZMQAIP24VDLZ8WT","A36470UBRH28GO","3R5LWXWHR0UE010DORDQUF3E2FPGXE","","","null","","","","","","","",""
"null","","image-keyboard-response","170","244089","0.0-99.0","3TMFV4NEP90M46NZMQAIP24VDLZ8WT","A36470UBRH28GO","3R5LWXWHR0UE010DORDQUF3E2FPGXE","","img/set1/S3.jpg","null","3","structured_incentive","72","false","structured_incentive,random,structured_normal","1,2,2,3","",""
"null","","html-keyboard-response","171","244442","0.0-100.0","3TMFV4NEP90M46NZMQAIP24VDLZ8WT","A36470UBRH28GO","3R5LWXWHR0UE010DORDQUF3E2FPGXE","","<img src=""img/set1/S3.jpg"" width=""540"" height = ""360"">","null","","","","","","","",""
"null","","html-keyboard-response","172","244449","0.0-101.0","3TMFV4NEP90M46NZMQAIP24VDLZ8WT","A36470UBRH28GO","3R5LWXWHR0UE010DORDQUF3E2FPGXE","","","null","","","","","","","",""
"728.2000000476837","","image-keyboard-response","173","245179","0.0-102.0","3TMFV4NEP90M46NZMQAIP24VDLZ8WT","A36470UBRH28GO","3R5LWXWHR0UE010DORDQUF3E2FPGXE","","img/set1/S1.jpg","83","1","structured_incentive","83","true","structured_incentive,random,structured_normal","1,2,2,3","",""
"null","","html-keyboard-response","174","245532","0.0-103.0","3TMFV4NEP90M46NZMQAIP24VDLZ8WT","A36470UBRH28GO","3R5LWXWHR0UE010DORDQUF3E2FPGXE","","<img src=""img/set1/S1.jpg"" width=""540"" height = ""360"" style=""border:16px solid orange"">","null","","","","","","","",""
"null","","html-keyboard-response","175","245534","0.0-104.0","3TMFV4NEP90M46NZMQAIP24VDLZ8WT","A36470UBRH28GO","3R5LWXWHR0UE010DORDQUF3E2FPGXE","","","null","","","","","","","",""
"751.6000000238419","","image-keyboard-response","176","246287","0.0-105.0","3TMFV4NEP90M46NZMQAIP24VDLZ8WT","A36470UBRH28GO","3R5LWXWHR0UE010DORDQUF3E2FPGXE","","img/set1/S2.jpg","68","2","structured_incentive","68","true","structured_incentive,random,structured_normal","1,2,2,3","",""
"null","","html-keyboard-response","177","246641","0.0-106.0","3TMFV4NEP90M46NZMQAIP24VDLZ8WT","A36470UBRH28GO","3R5LWXWHR0UE010DORDQUF3E2FPGXE","","<img src=""img/set1/S2.jpg"" width=""540"" height = ""360"" style=""border:16px solid orange"">","null","","","","","","","",""
"null","","html-keyboard-response","178","246643","0.0-107.0","3TMFV4NEP90M46NZMQAIP24VDLZ8WT","A36470UBRH28GO","3R5LWXWHR0UE010DORDQUF3E2FPGXE","","","null","","","","","","","",""
"1624.5999999046326","","image-keyboard-response","179","248269","0.0-108.0","3TMFV4NEP90M46NZMQAIP24VDLZ8WT","A36470UBRH28GO","3R5LWXWHR0UE010DORDQUF3E2FPGXE","","img/set1/S1.jpg","83","1","structured_incentive","83","true","structured_incentive,random,structured_normal","1,2,2,3","",""
"null","","html-keyboard-response","180","248633","0.0-109.0","3TMFV4NEP90M46NZMQAIP24VDLZ8WT","A36470UBRH28GO","3R5LWXWHR0UE010DORDQUF3E2FPGXE","","<img src=""img/set1/S1.jpg"" width=""540"" height = ""360"" style=""border:16px solid orange"">","null","","","","","","","",""
"null","","html-keyboard-response","181","248635","0.0-110.0","3TMFV4NEP90M46NZMQAIP24VDLZ8WT","A36470UBRH28GO","3R5LWXWHR0UE010DORDQUF3E2FPGXE","","","null","","","","","","","",""
"1720.7000000476837","","image-keyboard-response","182","250357","0.0-111.0","3TMFV4NEP90M46NZMQAIP24VDLZ8WT","A36470UBRH28GO","3R5LWXWHR0UE010DORDQUF3E2FPGXE","","img/set1/S3.jpg","83","3","structured_incentive","72","false","structured_incentive,random,structured_normal","1,2,2,3","",""
"null","","html-keyboard-response","183","250710","0.0-112.0","3TMFV4NEP90M46NZMQAIP24VDLZ8WT","A36470UBRH28GO","3R5LWXWHR0UE010DORDQUF3E2FPGXE","","<img src=""img/set1/S3.jpg"" width=""540"" height = ""360"">","null","","","","","","","",""
"null","","html-keyboard-response","184","250712","0.0-113.0","3TMFV4NEP90M46NZMQAIP24VDLZ8WT","A36470UBRH28GO","3R5LWXWHR0UE010DORDQUF3E2FPGXE","","","null","","","","","","","",""
"702.3999999761581","","image-keyboard-response","185","251415","0.0-114.0","3TMFV4NEP90M46NZMQAIP24VDLZ8WT","A36470UBRH28GO","3R5LWXWHR0UE010DORDQUF3E2FPGXE","","img/set1/S3.jpg","68","3","structured_incentive","72","false","structured_incentive,random,structured_normal","1,2,2,3","",""
"null","","html-keyboard-response","186","251767","0.0-115.0","3TMFV4NEP90M46NZMQAIP24VDLZ8WT","A36470UBRH28GO","3R5LWXWHR0UE010DORDQUF3E2FPGXE","","<img src=""img/set1/S3.jpg"" width=""540"" height = ""360"">","null","","","","","","","",""
"null","","html-keyboard-response","187","251770","0.0-116.0","3TMFV4NEP90M46NZMQAIP24VDLZ8WT","A36470UBRH28GO","3R5LWXWHR0UE010DORDQUF3E2FPGXE","","","null","","","","","","","",""
"947.3000000715256","","image-keyboard-response","188","252719","0.0-117.0","3TMFV4NEP90M46NZMQAIP24VDLZ8WT","A36470UBRH28GO","3R5LWXWHR0UE010DORDQUF3E2FPGXE","","img/set1/S1.jpg","83","1","structured_incentive","83","true","structured_incentive,random,structured_normal","1,2,2,3","",""
"null","","html-keyboard-response","189","253071","0.0-118.0","3TMFV4NEP90M46NZMQAIP24VDLZ8WT","A36470UBRH28GO","3R5LWXWHR0UE010DORDQUF3E2FPGXE","","<img src=""img/set1/S1.jpg"" width=""540"" height = ""360"" style=""border:16px solid orange"">","null","","","","","","","",""
"null","","html-keyboard-response","190","253073","0.0-119.0","3TMFV4NEP90M46NZMQAIP24VDLZ8WT","A36470UBRH28GO","3R5LWXWHR0UE010DORDQUF3E2FPGXE","","","null","","","","","","","",""
"727","","image-keyboard-response","191","253802","0.0-120.0","3TMFV4NEP90M46NZMQAIP24VDLZ8WT","A36470UBRH28GO","3R5LWXWHR0UE010DORDQUF3E2FPGXE","","img/set1/S2.jpg","68","2","structured_incentive","68","true","structured_incentive,random,structured_normal","1,2,2,3","",""
"null","","html-keyboard-response","192","254154","0.0-121.0","3TMFV4NEP90M46NZMQAIP24VDLZ8WT","A36470UBRH28GO","3R5LWXWHR0UE010DORDQUF3E2FPGXE","","<img src=""img/set1/S2.jpg"" width=""540"" height = ""360"" style=""border:16px solid orange"">","null","","","","","","","",""
"null","","html-keyboard-response","193","254156","0.0-122.0","3TMFV4NEP90M46NZMQAIP24VDLZ8WT","A36470UBRH28GO","3R5LWXWHR0UE010DORDQUF3E2FPGXE","","","null","","","","","","","",""
"1426.5","","image-keyboard-response","194","255584","0.0-123.0","3TMFV4NEP90M46NZMQAIP24VDLZ8WT","A36470UBRH28GO","3R5LWXWHR0UE010DORDQUF3E2FPGXE","","img/set1/S4.jpg","74","4","structured_incentive","74","true","structured_incentive,random,structured_normal","1,2,2,3","",""
"null","","html-keyboard-response","195","255936","0.0-124.0","3TMFV4NEP90M46NZMQAIP24VDLZ8WT","A36470UBRH28GO","3R5LWXWHR0UE010DORDQUF3E2FPGXE","","<img src=""img/set1/S4.jpg"" width=""540"" height = ""360"" style=""border:16px solid orange"">","null","","","","","","","",""
"null","","html-keyboard-response","196","255938","0.0-125.0","3TMFV4NEP90M46NZMQAIP24VDLZ8WT","A36470UBRH28GO","3R5LWXWHR0UE010DORDQUF3E2FPGXE","","","null","","","","","","","",""
"1064.5","","image-keyboard-response","197","257004","0.0-126.0","3TMFV4NEP90M46NZMQAIP24VDLZ8WT","A36470UBRH28GO","3R5LWXWHR0UE010DORDQUF3E2FPGXE","","img/set1/S1.jpg","83","1","structured_incentive","83","true","structured_incentive,random,structured_normal","1,2,2,3","",""
"null","","html-keyboard-response","198","257357","0.0-127.0","3TMFV4NEP90M46NZMQAIP24VDLZ8WT","A36470UBRH28GO","3R5LWXWHR0UE010DORDQUF3E2FPGXE","","<img src=""img/set1/S1.jpg"" width=""540"" height = ""360"" style=""border:16px solid orange"">","null","","","","","","","",""
"null","","html-keyboard-response","199","257359","0.0-128.0","3TMFV4NEP90M46NZMQAIP24VDLZ8WT","A36470UBRH28GO","3R5LWXWHR0UE010DORDQUF3E2FPGXE","","","null","","","","","","","",""
"929.5999999046326","","image-keyboard-response","200","258290","0.0-129.0","3TMFV4NEP90M46NZMQAIP24VDLZ8WT","A36470UBRH28GO","3R5LWXWHR0UE010DORDQUF3E2FPGXE","","img/set1/S2.jpg","68","2","structured_incentive","68","true","structured_incentive,random,structured_normal","1,2,2,3","",""
"null","","html-keyboard-response","201","258642","0.0-130.0","3TMFV4NEP90M46NZMQAIP24VDLZ8WT","A36470UBRH28GO","3R5LWXWHR0UE010DORDQUF3E2FPGXE","","<img src=""img/set1/S2.jpg"" width=""540"" height = ""360"" style=""border:16px solid orange"">","null","","","","","","","",""
"null","","html-keyboard-response","202","258645","0.0-131.0","3TMFV4NEP90M46NZMQAIP24VDLZ8WT","A36470UBRH28GO","3R5LWXWHR0UE010DORDQUF3E2FPGXE","","","null","","","","","","","",""
"919.3999999761581","","image-keyboard-response","203","259565","0.0-132.0","3TMFV4NEP90M46NZMQAIP24VDLZ8WT","A36470UBRH28GO","3R5LWXWHR0UE010DORDQUF3E2FPGXE","","img/set1/S2.jpg","68","2","structured_incentive","68","true","structured_incentive,random,structured_normal","1,2,2,3","",""
"null","","html-keyboard-response","204","259917","0.0-133.0","3TMFV4NEP90M46NZMQAIP24VDLZ8WT","A36470UBRH28GO","3R5LWXWHR0UE010DORDQUF3E2FPGXE","","<img src=""img/set1/S2.jpg"" width=""540"" height = ""360"" style=""border:16px solid orange"">","null","","","","","","","",""
"null","","html-keyboard-response","205","259919","0.0-134.0","3TMFV4NEP90M46NZMQAIP24VDLZ8WT","A36470UBRH28GO","3R5LWXWHR0UE010DORDQUF3E2FPGXE","","","null","","","","","","","",""
"1046.7000000476837","","image-keyboard-response","206","260967","0.0-135.0","3TMFV4NEP90M46NZMQAIP24VDLZ8WT","A36470UBRH28GO","3R5LWXWHR0UE010DORDQUF3E2FPGXE","","img/set1/S1.jpg","83","1","structured_incentive","83","true","structured_incentive,random,structured_normal","1,2,2,3","",""
"null","","html-keyboard-response","207","261321","0.0-136.0","3TMFV4NEP90M46NZMQAIP24VDLZ8WT","A36470UBRH28GO","3R5LWXWHR0UE010DORDQUF3E2FPGXE","","<img src=""img/set1/S1.jpg"" width=""540"" height = ""360"" style=""border:16px solid orange"">","null","","","","","","","",""
"null","","html-keyboard-response","208","261323","0.0-137.0","3TMFV4NEP90M46NZMQAIP24VDLZ8WT","A36470UBRH28GO","3R5LWXWHR0UE010DORDQUF3E2FPGXE","","","null","","","","","","","",""
"629.6000000238419","","image-keyboard-response","209","261954","0.0-138.0","3TMFV4NEP90M46NZMQAIP24VDLZ8WT","A36470UBRH28GO","3R5LWXWHR0UE010DORDQUF3E2FPGXE","","img/set1/S2.jpg","68","2","structured_incentive","68","true","structured_incentive,random,structured_normal","1,2,2,3","",""
"null","","html-keyboard-response","210","262307","0.0-139.0","3TMFV4NEP90M46NZMQAIP24VDLZ8WT","A36470UBRH28GO","3R5LWXWHR0UE010DORDQUF3E2FPGXE","","<img src=""img/set1/S2.jpg"" width=""540"" height = ""360"" style=""border:16px solid orange"">","null","","","","","","","",""
"null","","html-keyboard-response","211","262309","0.0-140.0","3TMFV4NEP90M46NZMQAIP24VDLZ8WT","A36470UBRH28GO","3R5LWXWHR0UE010DORDQUF3E2FPGXE","","","null","","","","","","","",""
"1018","","image-keyboard-response","212","263328","0.0-141.0","3TMFV4NEP90M46NZMQAIP24VDLZ8WT","A36470UBRH28GO","3R5LWXWHR0UE010DORDQUF3E2FPGXE","","img/set1/S4.jpg","74","4","structured_incentive","74","true","structured_incentive,random,structured_normal","1,2,2,3","",""
"null","","html-keyboard-response","213","263680","0.0-142.0","3TMFV4NEP90M46NZMQAIP24VDLZ8WT","A36470UBRH28GO","3R5LWXWHR0UE010DORDQUF3E2FPGXE","","<img src=""img/set1/S4.jpg"" width=""540"" height = ""360"" style=""border:16px solid orange"">","null","","","","","","","",""
"null","","html-keyboard-response","214","263683","0.0-143.0","3TMFV4NEP90M46NZMQAIP24VDLZ8WT","A36470UBRH28GO","3R5LWXWHR0UE010DORDQUF3E2FPGXE","","","null","","","","","","","",""
"640","","image-keyboard-response","215","264324","0.0-144.0","3TMFV4NEP90M46NZMQAIP24VDLZ8WT","A36470UBRH28GO","3R5LWXWHR0UE010DORDQUF3E2FPGXE","","img/set1/S4.jpg","74","4","structured_incentive","74","true","structured_incentive,random,structured_normal","1,2,2,3","",""
"null","","html-keyboard-response","216","264677","0.0-145.0","3TMFV4NEP90M46NZMQAIP24VDLZ8WT","A36470UBRH28GO","3R5LWXWHR0UE010DORDQUF3E2FPGXE","","<img src=""img/set1/S4.jpg"" width=""540"" height = ""360"" style=""border:16px solid orange"">","null","","","","","","","",""
"null","","html-keyboard-response","217","264680","0.0-146.0","3TMFV4NEP90M46NZMQAIP24VDLZ8WT","A36470UBRH28GO","3R5LWXWHR0UE010DORDQUF3E2FPGXE","","","null","","","","","","","",""
"619.9000000953674","","image-keyboard-response","218","265301","0.0-147.0","3TMFV4NEP90M46NZMQAIP24VDLZ8WT","A36470UBRH28GO","3R5LWXWHR0UE010DORDQUF3E2FPGXE","","img/set1/S4.jpg","74","4","structured_incentive","74","true","structured_incentive,random,structured_normal","1,2,2,3","",""
"null","","html-keyboard-response","219","265654","0.0-148.0","3TMFV4NEP90M46NZMQAIP24VDLZ8WT","A36470UBRH28GO","3R5LWXWHR0UE010DORDQUF3E2FPGXE","","<img src=""img/set1/S4.jpg"" width=""540"" height = ""360"" style=""border:16px solid orange"">","null","","","","","","","",""
"null","","html-keyboard-response","220","265656","0.0-149.0","3TMFV4NEP90M46NZMQAIP24VDLZ8WT","A36470UBRH28GO","3R5LWXWHR0UE010DORDQUF3E2FPGXE","","","null","","","","","","","",""
"765","","image-keyboard-response","221","266422","0.0-150.0","3TMFV4NEP90M46NZMQAIP24VDLZ8WT","A36470UBRH28GO","3R5LWXWHR0UE010DORDQUF3E2FPGXE","","img/set1/S1.jpg","83","1","structured_incentive","83","true","structured_incentive,random,structured_normal","1,2,2,3","",""
"null","","html-keyboard-response","222","266774","0.0-151.0","3TMFV4NEP90M46NZMQAIP24VDLZ8WT","A36470UBRH28GO","3R5LWXWHR0UE010DORDQUF3E2FPGXE","","<img src=""img/set1/S1.jpg"" width=""540"" height = ""360"" style=""border:16px solid orange"">","null","","","","","","","",""
"null","","html-keyboard-response","223","266776","0.0-152.0","3TMFV4NEP90M46NZMQAIP24VDLZ8WT","A36470UBRH28GO","3R5LWXWHR0UE010DORDQUF3E2FPGXE","","","null","","","","","","","",""
"593.1999999284744","","image-keyboard-response","224","267371","0.0-153.0","3TMFV4NEP90M46NZMQAIP24VDLZ8WT","A36470UBRH28GO","3R5LWXWHR0UE010DORDQUF3E2FPGXE","","img/set1/S2.jpg","68","2","structured_incentive","68","true","structured_incentive,random,structured_normal","1,2,2,3","",""
"null","","html-keyboard-response","225","267723","0.0-154.0","3TMFV4NEP90M46NZMQAIP24VDLZ8WT","A36470UBRH28GO","3R5LWXWHR0UE010DORDQUF3E2FPGXE","","<img src=""img/set1/S2.jpg"" width=""540"" height = ""360"" style=""border:16px solid orange"">","null","","","","","","","",""
"null","","html-keyboard-response","226","267725","0.0-155.0","3TMFV4NEP90M46NZMQAIP24VDLZ8WT","A36470UBRH28GO","3R5LWXWHR0UE010DORDQUF3E2FPGXE","","","null","","","","","","","",""
"1142.6999999284744","","image-keyboard-response","227","268868","0.0-156.0","3TMFV4NEP90M46NZMQAIP24VDLZ8WT","A36470UBRH28GO","3R5LWXWHR0UE010DORDQUF3E2FPGXE","","img/set1/S4.jpg","74","4","structured_incentive","74","true","structured_incentive,random,structured_normal","1,2,2,3","",""
"null","","html-keyboard-response","228","269220","0.0-157.0","3TMFV4NEP90M46NZMQAIP24VDLZ8WT","A36470UBRH28GO","3R5LWXWHR0UE010DORDQUF3E2FPGXE","","<img src=""img/set1/S4.jpg"" width=""540"" height = ""360"" style=""border:16px solid orange"">","null","","","","","","","",""
"null","","html-keyboard-response","229","269222","0.0-158.0","3TMFV4NEP90M46NZMQAIP24VDLZ8WT","A36470UBRH28GO","3R5LWXWHR0UE010DORDQUF3E2FPGXE","","","null","","","","","","","",""
"451.1999999284744","","image-keyboard-response","230","269675","0.0-159.0","3TMFV4NEP90M46NZMQAIP24VDLZ8WT","A36470UBRH28GO","3R5LWXWHR0UE010DORDQUF3E2FPGXE","","img/set1/S4.jpg","74","4","structured_incentive","74","true","structured_incentive,random,structured_normal","1,2,2,3","",""
"null","","html-keyboard-response","231","270028","0.0-160.0","3TMFV4NEP90M46NZMQAIP24VDLZ8WT","A36470UBRH28GO","3R5LWXWHR0UE010DORDQUF3E2FPGXE","","<img src=""img/set1/S4.jpg"" width=""540"" height = ""360"" style=""border:16px solid orange"">","null","","","","","","","",""
"null","","html-keyboard-response","232","270031","0.0-161.0","3TMFV4NEP90M46NZMQAIP24VDLZ8WT","A36470UBRH28GO","3R5LWXWHR0UE010DORDQUF3E2FPGXE","","","null","","","","","","","",""
"651.5","","image-keyboard-response","233","270683","0.0-162.0","3TMFV4NEP90M46NZMQAIP24VDLZ8WT","A36470UBRH28GO","3R5LWXWHR0UE010DORDQUF3E2FPGXE","","img/set1/S2.jpg","83","2","structured_incentive","68","false","structured_incentive,random,structured_normal","1,2,2,3","",""
"null","","html-keyboard-response","234","271035","0.0-163.0","3TMFV4NEP90M46NZMQAIP24VDLZ8WT","A36470UBRH28GO","3R5LWXWHR0UE010DORDQUF3E2FPGXE","","<img src=""img/set1/S2.jpg"" width=""540"" height = ""360"">","null","","","","","","","",""
"null","","html-keyboard-response","235","271038","0.0-164.0","3TMFV4NEP90M46NZMQAIP24VDLZ8WT","A36470UBRH28GO","3R5LWXWHR0UE010DORDQUF3E2FPGXE","","","null","","","","","","","",""
"null","","image-keyboard-response","236","273540","0.0-165.0","3TMFV4NEP90M46NZMQAIP24VDLZ8WT","A36470UBRH28GO","3R5LWXWHR0UE010DORDQUF3E2FPGXE","","img/set1/S3.jpg","null","3","structured_incentive","72","false","structured_incentive,random,structured_normal","1,2,2,3","",""
"null","","html-keyboard-response","237","273892","0.0-166.0","3TMFV4NEP90M46NZMQAIP24VDLZ8WT","A36470UBRH28GO","3R5LWXWHR0UE010DORDQUF3E2FPGXE","","<img src=""img/set1/S3.jpg"" width=""540"" height = ""360"">","null","","","","","","","",""
"null","","html-keyboard-response","238","273899","0.0-167.0","3TMFV4NEP90M46NZMQAIP24VDLZ8WT","A36470UBRH28GO","3R5LWXWHR0UE010DORDQUF3E2FPGXE","","","null","","","","","","","",""
"56.40000009536743","","image-keyboard-response","239","273957","0.0-168.0","3TMFV4NEP90M46NZMQAIP24VDLZ8WT","A36470UBRH28GO","3R5LWXWHR0UE010DORDQUF3E2FPGXE","","img/set1/S3.jpg","74","3","structured_incentive","72","false","structured_incentive,random,structured_normal","1,2,2,3","",""
"null","","html-keyboard-response","240","274310","0.0-169.0","3TMFV4NEP90M46NZMQAIP24VDLZ8WT","A36470UBRH28GO","3R5LWXWHR0UE010DORDQUF3E2FPGXE","","<img src=""img/set1/S3.jpg"" width=""540"" height = ""360"">","null","","","","","","","",""
"null","","html-keyboard-response","241","274313","0.0-170.0","3TMFV4NEP90M46NZMQAIP24VDLZ8WT","A36470UBRH28GO","3R5LWXWHR0UE010DORDQUF3E2FPGXE","","","null","","","","","","","",""
"1369.8000000715256","","image-keyboard-response","242","275684","0.0-171.0","3TMFV4NEP90M46NZMQAIP24VDLZ8WT","A36470UBRH28GO","3R5LWXWHR0UE010DORDQUF3E2FPGXE","","img/set1/S3.jpg","83","3","structured_incentive","72","false","structured_incentive,random,structured_normal","1,2,2,3","",""
"null","","html-keyboard-response","243","276036","0.0-172.0","3TMFV4NEP90M46NZMQAIP24VDLZ8WT","A36470UBRH28GO","3R5LWXWHR0UE010DORDQUF3E2FPGXE","","<img src=""img/set1/S3.jpg"" width=""540"" height = ""360"">","null","","","","","","","",""
"null","","html-keyboard-response","244","276038","0.0-173.0","3TMFV4NEP90M46NZMQAIP24VDLZ8WT","A36470UBRH28GO","3R5LWXWHR0UE010DORDQUF3E2FPGXE","","","null","","","","","","","",""
"1192.5999999046326","","image-keyboard-response","245","277233","0.0-174.0","3TMFV4NEP90M46NZMQAIP24VDLZ8WT","A36470UBRH28GO","3R5LWXWHR0UE010DORDQUF3E2FPGXE","","img/set1/S4.jpg","74","4","structured_incentive","74","true","structured_incentive,random,structured_normal","1,2,2,3","",""
"null","","html-keyboard-response","246","277586","0.0-175.0","3TMFV4NEP90M46NZMQAIP24VDLZ8WT","A36470UBRH28GO","3R5LWXWHR0UE010DORDQUF3E2FPGXE","","<img src=""img/set1/S4.jpg"" width=""540"" height = ""360"" style=""border:16px solid orange"">","null","","","","","","","",""
"null","","html-keyboard-response","247","277588","0.0-176.0","3TMFV4NEP90M46NZMQAIP24VDLZ8WT","A36470UBRH28GO","3R5LWXWHR0UE010DORDQUF3E2FPGXE","","","null","","","","","","","",""
"1493.3999999761581","","image-keyboard-response","248","279086","0.0-177.0","3TMFV4NEP90M46NZMQAIP24VDLZ8WT","A36470UBRH28GO","3R5LWXWHR0UE010DORDQUF3E2FPGXE","","img/set1/S2.jpg","83","2","structured_incentive","68","false","structured_incentive,random,structured_normal","1,2,2,3","",""
"null","","html-keyboard-response","249","279440","0.0-178.0","3TMFV4NEP90M46NZMQAIP24VDLZ8WT","A36470UBRH28GO","3R5LWXWHR0UE010DORDQUF3E2FPGXE","","<img src=""img/set1/S2.jpg"" width=""540"" height = ""360"">","null","","","","","","","",""
"null","","html-keyboard-response","250","279443","0.0-179.0","3TMFV4NEP90M46NZMQAIP24VDLZ8WT","A36470UBRH28GO","3R5LWXWHR0UE010DORDQUF3E2FPGXE","","","null","","","","","","","",""
"927.3999999761581","","image-keyboard-response","251","280370","0.0-180.0","3TMFV4NEP90M46NZMQAIP24VDLZ8WT","A36470UBRH28GO","3R5LWXWHR0UE010DORDQUF3E2FPGXE","","img/set1/S1.jpg","83","1","structured_incentive","83","true","structured_incentive,random,structured_normal","1,2,2,3","",""
"null","","html-keyboard-response","252","280722","0.0-181.0","3TMFV4NEP90M46NZMQAIP24VDLZ8WT","A36470UBRH28GO","3R5LWXWHR0UE010DORDQUF3E2FPGXE","","<img src=""img/set1/S1.jpg"" width=""540"" height = ""360"" style=""border:16px solid orange"">","null","","","","","","","",""
"null","","html-keyboard-response","253","280724","0.0-182.0","3TMFV4NEP90M46NZMQAIP24VDLZ8WT","A36470UBRH28GO","3R5LWXWHR0UE010DORDQUF3E2FPGXE","","","null","","","","","","","",""
"424.5","","image-keyboard-response","254","281149","0.0-183.0","3TMFV4NEP90M46NZMQAIP24VDLZ8WT","A36470UBRH28GO","3R5LWXWHR0UE010DORDQUF3E2FPGXE","","img/set1/S2.jpg","68","2","structured_incentive","68","true","structured_incentive,random,structured_normal","1,2,2,3","",""
"null","","html-keyboard-response","255","281502","0.0-184.0","3TMFV4NEP90M46NZMQAIP24VDLZ8WT","A36470UBRH28GO","3R5LWXWHR0UE010DORDQUF3E2FPGXE","","<img src=""img/set1/S2.jpg"" width=""540"" height = ""360"" style=""border:16px solid orange"">","null","","","","","","","",""
"null","","html-keyboard-response","256","281504","0.0-185.0","3TMFV4NEP90M46NZMQAIP24VDLZ8WT","A36470UBRH28GO","3R5LWXWHR0UE010DORDQUF3E2FPGXE","","","null","","","","","","","",""
"666.2999999523163","","image-keyboard-response","257","282172","0.0-186.0","3TMFV4NEP90M46NZMQAIP24VDLZ8WT","A36470UBRH28GO","3R5LWXWHR0UE010DORDQUF3E2FPGXE","","img/set1/S4.jpg","74","4","structured_incentive","74","true","structured_incentive,random,structured_normal","1,2,2,3","",""
"null","","html-keyboard-response","258","282525","0.0-187.0","3TMFV4NEP90M46NZMQAIP24VDLZ8WT","A36470UBRH28GO","3R5LWXWHR0UE010DORDQUF3E2FPGXE","","<img src=""img/set1/S4.jpg"" width=""540"" height = ""360"" style=""border:16px solid orange"">","null","","","","","","","",""
"null","","html-keyboard-response","259","282527","0.0-188.0","3TMFV4NEP90M46NZMQAIP24VDLZ8WT","A36470UBRH28GO","3R5LWXWHR0UE010DORDQUF3E2FPGXE","","","null","","","","","","","",""
"520.2000000476837","","image-keyboard-response","260","283049","0.0-189.0","3TMFV4NEP90M46NZMQAIP24VDLZ8WT","A36470UBRH28GO","3R5LWXWHR0UE010DORDQUF3E2FPGXE","","img/set1/S4.jpg","74","4","structured_incentive","74","true","structured_incentive,random,structured_normal","1,2,2,3","",""
"null","","html-keyboard-response","261","283402","0.0-190.0","3TMFV4NEP90M46NZMQAIP24VDLZ8WT","A36470UBRH28GO","3R5LWXWHR0UE010DORDQUF3E2FPGXE","","<img src=""img/set1/S4.jpg"" width=""540"" height = ""360"" style=""border:16px solid orange"">","null","","","","","","","",""
"null","","html-keyboard-response","262","283405","0.0-191.0","3TMFV4NEP90M46NZMQAIP24VDLZ8WT","A36470UBRH28GO","3R5LWXWHR0UE010DORDQUF3E2FPGXE","","","null","","","","","","","",""
"660.2000000476837","","image-keyboard-response","263","284067","0.0-192.0","3TMFV4NEP90M46NZMQAIP24VDLZ8WT","A36470UBRH28GO","3R5LWXWHR0UE010DORDQUF3E2FPGXE","","img/set1/S1.jpg","83","1","structured_incentive","83","true","structured_incentive,random,structured_normal","1,2,2,3","",""
"null","","html-keyboard-response","264","284420","0.0-193.0","3TMFV4NEP90M46NZMQAIP24VDLZ8WT","A36470UBRH28GO","3R5LWXWHR0UE010DORDQUF3E2FPGXE","","<img src=""img/set1/S1.jpg"" width=""540"" height = ""360"" style=""border:16px solid orange"">","null","","","","","","","",""
"null","","html-keyboard-response","265","284422","0.0-194.0","3TMFV4NEP90M46NZMQAIP24VDLZ8WT","A36470UBRH28GO","3R5LWXWHR0UE010DORDQUF3E2FPGXE","","","null","","","","","","","",""
"653","","image-keyboard-response","266","285077","0.0-195.0","3TMFV4NEP90M46NZMQAIP24VDLZ8WT","A36470UBRH28GO","3R5LWXWHR0UE010DORDQUF3E2FPGXE","","img/set1/S2.jpg","68","2","structured_incentive","68","true","structured_incentive,random,structured_normal","1,2,2,3","",""
"null","","html-keyboard-response","267","285429","0.0-196.0","3TMFV4NEP90M46NZMQAIP24VDLZ8WT","A36470UBRH28GO","3R5LWXWHR0UE010DORDQUF3E2FPGXE","","<img src=""img/set1/S2.jpg"" width=""540"" height = ""360"" style=""border:16px solid orange"">","null","","","","","","","",""
"null","","html-keyboard-response","268","285432","0.0-197.0","3TMFV4NEP90M46NZMQAIP24VDLZ8WT","A36470UBRH28GO","3R5LWXWHR0UE010DORDQUF3E2FPGXE","","","null","","","","","","","",""
"605.6000000238419","","image-keyboard-response","269","286038","0.0-198.0","3TMFV4NEP90M46NZMQAIP24VDLZ8WT","A36470UBRH28GO","3R5LWXWHR0UE010DORDQUF3E2FPGXE","","img/set1/S4.jpg","74","4","structured_incentive","74","true","structured_incentive,random,structured_normal","1,2,2,3","",""
"null","","html-keyboard-response","270","286390","0.0-199.0","3TMFV4NEP90M46NZMQAIP24VDLZ8WT","A36470UBRH28GO","3R5LWXWHR0UE010DORDQUF3E2FPGXE","","<img src=""img/set1/S4.jpg"" width=""540"" height = ""360"" style=""border:16px solid orange"">","null","","","","","","","",""
"null","","html-keyboard-response","271","286393","0.0-200.0","3TMFV4NEP90M46NZMQAIP24VDLZ8WT","A36470UBRH28GO","3R5LWXWHR0UE010DORDQUF3E2FPGXE","","","null","","","","","","","",""
"385.2000000476837","","image-keyboard-response","272","286779","0.0-201.0","3TMFV4NEP90M46NZMQAIP24VDLZ8WT","A36470UBRH28GO","3R5LWXWHR0UE010DORDQUF3E2FPGXE","","img/set1/S4.jpg","74","4","structured_incentive","74","true","structured_incentive,random,structured_normal","1,2,2,3","",""
"null","","html-keyboard-response","273","287133","0.0-202.0","3TMFV4NEP90M46NZMQAIP24VDLZ8WT","A36470UBRH28GO","3R5LWXWHR0UE010DORDQUF3E2FPGXE","","<img src=""img/set1/S4.jpg"" width=""540"" height = ""360"" style=""border:16px solid orange"">","null","","","","","","","",""
"null","","html-keyboard-response","274","287135","0.0-203.0","3TMFV4NEP90M46NZMQAIP24VDLZ8WT","A36470UBRH28GO","3R5LWXWHR0UE010DORDQUF3E2FPGXE","","","null","","","","","","","",""
"449.7000000476837","","image-keyboard-response","275","287586","0.0-204.0","3TMFV4NEP90M46NZMQAIP24VDLZ8WT","A36470UBRH28GO","3R5LWXWHR0UE010DORDQUF3E2FPGXE","","img/set1/S4.jpg","74","4","structured_incentive","74","true","structured_incentive,random,structured_normal","1,2,2,3","",""
"null","","html-keyboard-response","276","287940","0.0-205.0","3TMFV4NEP90M46NZMQAIP24VDLZ8WT","A36470UBRH28GO","3R5LWXWHR0UE010DORDQUF3E2FPGXE","","<img src=""img/set1/S4.jpg"" width=""540"" height = ""360"" style=""border:16px solid orange"">","null","","","","","","","",""
"null","","html-keyboard-response","277","287942","0.0-206.0","3TMFV4NEP90M46NZMQAIP24VDLZ8WT","A36470UBRH28GO","3R5LWXWHR0UE010DORDQUF3E2FPGXE","","","null","","","","","","","",""
"2474.2999999523163","","image-keyboard-response","278","290418","0.0-207.0","3TMFV4NEP90M46NZMQAIP24VDLZ8WT","A36470UBRH28GO","3R5LWXWHR0UE010DORDQUF3E2FPGXE","","img/set1/S3.jpg","83","3","structured_incentive","72","false","structured_incentive,random,structured_normal","1,2,2,3","",""
"null","","html-keyboard-response","279","290769","0.0-208.0","3TMFV4NEP90M46NZMQAIP24VDLZ8WT","A36470UBRH28GO","3R5LWXWHR0UE010DORDQUF3E2FPGXE","","<img src=""img/set1/S3.jpg"" width=""540"" height = ""360"">","null","","","","","","","",""
"null","","html-keyboard-response","280","290771","0.0-209.0","3TMFV4NEP90M46NZMQAIP24VDLZ8WT","A36470UBRH28GO","3R5LWXWHR0UE010DORDQUF3E2FPGXE","","","null","","","","","","","",""
"1801.8000000715256","","image-keyboard-response","281","292575","0.0-210.0","3TMFV4NEP90M46NZMQAIP24VDLZ8WT","A36470UBRH28GO","3R5LWXWHR0UE010DORDQUF3E2FPGXE","","img/set1/S1.jpg","83","1","structured_incentive","83","true","structured_incentive,random,structured_normal","1,2,2,3","",""
"null","","html-keyboard-response","282","292928","0.0-211.0","3TMFV4NEP90M46NZMQAIP24VDLZ8WT","A36470UBRH28GO","3R5LWXWHR0UE010DORDQUF3E2FPGXE","","<img src=""img/set1/S1.jpg"" width=""540"" height = ""360"" style=""border:16px solid orange"">","null","","","","","","","",""
"null","","html-keyboard-response","283","292930","0.0-212.0","3TMFV4NEP90M46NZMQAIP24VDLZ8WT","A36470UBRH28GO","3R5LWXWHR0UE010DORDQUF3E2FPGXE","","","null","","","","","","","",""
"567.5","","image-keyboard-response","284","293498","0.0-213.0","3TMFV4NEP90M46NZMQAIP24VDLZ8WT","A36470UBRH28GO","3R5LWXWHR0UE010DORDQUF3E2FPGXE","","img/set1/S2.jpg","68","2","structured_incentive","68","true","structured_incentive,random,structured_normal","1,2,2,3","",""
"null","","html-keyboard-response","285","293850","0.0-214.0","3TMFV4NEP90M46NZMQAIP24VDLZ8WT","A36470UBRH28GO","3R5LWXWHR0UE010DORDQUF3E2FPGXE","","<img src=""img/set1/S2.jpg"" width=""540"" height = ""360"" style=""border:16px solid orange"">","null","","","","","","","",""
"null","","html-keyboard-response","286","293852","0.0-215.0","3TMFV4NEP90M46NZMQAIP24VDLZ8WT","A36470UBRH28GO","3R5LWXWHR0UE010DORDQUF3E2FPGXE","","","null","","","","","","","",""
"640.6999999284744","","image-keyboard-response","287","294495","0.0-216.0","3TMFV4NEP90M46NZMQAIP24VDLZ8WT","A36470UBRH28GO","3R5LWXWHR0UE010DORDQUF3E2FPGXE","","img/set1/S1.jpg","83","1","structured_incentive","83","true","structured_incentive,random,structured_normal","1,2,2,3","",""
"null","","html-keyboard-response","288","294848","0.0-217.0","3TMFV4NEP90M46NZMQAIP24VDLZ8WT","A36470UBRH28GO","3R5LWXWHR0UE010DORDQUF3E2FPGXE","","<img src=""img/set1/S1.jpg"" width=""540"" height = ""360"" style=""border:16px solid orange"">","null","","","","","","","",""
"null","","html-keyboard-response","289","294851","0.0-218.0","3TMFV4NEP90M46NZMQAIP24VDLZ8WT","A36470UBRH28GO","3R5LWXWHR0UE010DORDQUF3E2FPGXE","","","null","","","","","","","",""
"488.5","","image-keyboard-response","290","295341","0.0-219.0","3TMFV4NEP90M46NZMQAIP24VDLZ8WT","A36470UBRH28GO","3R5LWXWHR0UE010DORDQUF3E2FPGXE","","img/set1/S2.jpg","83","2","structured_incentive","68","false","structured_incentive,random,structured_normal","1,2,2,3","",""
"null","","html-keyboard-response","291","295693","0.0-220.0","3TMFV4NEP90M46NZMQAIP24VDLZ8WT","A36470UBRH28GO","3R5LWXWHR0UE010DORDQUF3E2FPGXE","","<img src=""img/set1/S2.jpg"" width=""540"" height = ""360"">","null","","","","","","","",""
"null","","html-keyboard-response","292","295695","0.0-221.0","3TMFV4NEP90M46NZMQAIP24VDLZ8WT","A36470UBRH28GO","3R5LWXWHR0UE010DORDQUF3E2FPGXE","","","null","","","","","","","",""
"31.59999990463257","","image-keyboard-response","293","295729","0.0-222.0","3TMFV4NEP90M46NZMQAIP24VDLZ8WT","A36470UBRH28GO","3R5LWXWHR0UE010DORDQUF3E2FPGXE","","img/set1/S3.jpg","68","3","structured_incentive","72","false","structured_incentive,random,structured_normal","1,2,2,3","",""
"null","","html-keyboard-response","294","296083","0.0-223.0","3TMFV4NEP90M46NZMQAIP24VDLZ8WT","A36470UBRH28GO","3R5LWXWHR0UE010DORDQUF3E2FPGXE","","<img src=""img/set1/S3.jpg"" width=""540"" height = ""360"">","null","","","","","","","",""
"null","","html-keyboard-response","295","296085","0.0-224.0","3TMFV4NEP90M46NZMQAIP24VDLZ8WT","A36470UBRH28GO","3R5LWXWHR0UE010DORDQUF3E2FPGXE","","","null","","","","","","","",""
"808.7000000476837","","image-keyboard-response","296","296896","0.0-225.0","3TMFV4NEP90M46NZMQAIP24VDLZ8WT","A36470UBRH28GO","3R5LWXWHR0UE010DORDQUF3E2FPGXE","","img/set1/S1.jpg","83","1","structured_incentive","83","true","structured_incentive,random,structured_normal","1,2,2,3","",""
"null","","html-keyboard-response","297","297248","0.0-226.0","3TMFV4NEP90M46NZMQAIP24VDLZ8WT","A36470UBRH28GO","3R5LWXWHR0UE010DORDQUF3E2FPGXE","","<img src=""img/set1/S1.jpg"" width=""540"" height = ""360"" style=""border:16px solid orange"">","null","","","","","","","",""
"null","","html-keyboard-response","298","297251","0.0-227.0","3TMFV4NEP90M46NZMQAIP24VDLZ8WT","A36470UBRH28GO","3R5LWXWHR0UE010DORDQUF3E2FPGXE","","","null","","","","","","","",""
"923","","image-keyboard-response","299","298174","0.0-228.0","3TMFV4NEP90M46NZMQAIP24VDLZ8WT","A36470UBRH28GO","3R5LWXWHR0UE010DORDQUF3E2FPGXE","","img/set1/S2.jpg","68","2","structured_incentive","68","true","structured_incentive,random,structured_normal","1,2,2,3","",""
"null","","html-keyboard-response","300","298527","0.0-229.0","3TMFV4NEP90M46NZMQAIP24VDLZ8WT","A36470UBRH28GO","3R5LWXWHR0UE010DORDQUF3E2FPGXE","","<img src=""img/set1/S2.jpg"" width=""540"" height = ""360"" style=""border:16px solid orange"">","null","","","","","","","",""
"null","","html-keyboard-response","301","298529","0.0-230.0","3TMFV4NEP90M46NZMQAIP24VDLZ8WT","A36470UBRH28GO","3R5LWXWHR0UE010DORDQUF3E2FPGXE","","","null","","","","","","","",""
"624.2000000476837","","image-keyboard-response","302","299154","0.0-231.0","3TMFV4NEP90M46NZMQAIP24VDLZ8WT","A36470UBRH28GO","3R5LWXWHR0UE010DORDQUF3E2FPGXE","","img/set1/S1.jpg","83","1","structured_incentive","83","true","structured_incentive,random,structured_normal","1,2,2,3","",""
"null","","html-keyboard-response","303","299507","0.0-232.0","3TMFV4NEP90M46NZMQAIP24VDLZ8WT","A36470UBRH28GO","3R5LWXWHR0UE010DORDQUF3E2FPGXE","","<img src=""img/set1/S1.jpg"" width=""540"" height = ""360"" style=""border:16px solid orange"">","null","","","","","","","",""
"null","","html-keyboard-response","304","299510","0.0-233.0","3TMFV4NEP90M46NZMQAIP24VDLZ8WT","A36470UBRH28GO","3R5LWXWHR0UE010DORDQUF3E2FPGXE","","","null","","","","","","","",""
"464.60000002384186","","image-keyboard-response","305","299975","0.0-234.0","3TMFV4NEP90M46NZMQAIP24VDLZ8WT","A36470UBRH28GO","3R5LWXWHR0UE010DORDQUF3E2FPGXE","","img/set1/S2.jpg","68","2","structured_incentive","68","true","structured_incentive,random,structured_normal","1,2,2,3","",""
"null","","html-keyboard-response","306","300329","0.0-235.0","3TMFV4NEP90M46NZMQAIP24VDLZ8WT","A36470UBRH28GO","3R5LWXWHR0UE010DORDQUF3E2FPGXE","","<img src=""img/set1/S2.jpg"" width=""540"" height = ""360"" style=""border:16px solid orange"">","null","","","","","","","",""
"null","","html-keyboard-response","307","300331","0.0-236.0","3TMFV4NEP90M46NZMQAIP24VDLZ8WT","A36470UBRH28GO","3R5LWXWHR0UE010DORDQUF3E2FPGXE","","","null","","","","","","","",""
"1100.5","","image-keyboard-response","308","301433","0.0-237.0","3TMFV4NEP90M46NZMQAIP24VDLZ8WT","A36470UBRH28GO","3R5LWXWHR0UE010DORDQUF3E2FPGXE","","img/set1/S4.jpg","74","4","structured_incentive","74","true","structured_incentive,random,structured_normal","1,2,2,3","",""
"null","","html-keyboard-response","309","301784","0.0-238.0","3TMFV4NEP90M46NZMQAIP24VDLZ8WT","A36470UBRH28GO","3R5LWXWHR0UE010DORDQUF3E2FPGXE","","<img src=""img/set1/S4.jpg"" width=""540"" height = ""360"" style=""border:16px solid orange"">","null","","","","","","","",""
"null","","html-keyboard-response","310","301786","0.0-239.0","3TMFV4NEP90M46NZMQAIP24VDLZ8WT","A36470UBRH28GO","3R5LWXWHR0UE010DORDQUF3E2FPGXE","","","null","","","","","","","",""
"855","","image-keyboard-response","311","302643","0.0-240.0","3TMFV4NEP90M46NZMQAIP24VDLZ8WT","A36470UBRH28GO","3R5LWXWHR0UE010DORDQUF3E2FPGXE","","img/set1/S1.jpg","83","1","structured_incentive","83","true","structured_incentive,random,structured_normal","1,2,2,3","",""
"null","","html-keyboard-response","312","302995","0.0-241.0","3TMFV4NEP90M46NZMQAIP24VDLZ8WT","A36470UBRH28GO","3R5LWXWHR0UE010DORDQUF3E2FPGXE","","<img src=""img/set1/S1.jpg"" width=""540"" height = ""360"" style=""border:16px solid orange"">","null","","","","","","","",""
"null","","html-keyboard-response","313","302999","0.0-242.0","3TMFV4NEP90M46NZMQAIP24VDLZ8WT","A36470UBRH28GO","3R5LWXWHR0UE010DORDQUF3E2FPGXE","","","null","","","","","","","",""
"734","","image-keyboard-response","314","303734","0.0-243.0","3TMFV4NEP90M46NZMQAIP24VDLZ8WT","A36470UBRH28GO","3R5LWXWHR0UE010DORDQUF3E2FPGXE","","img/set1/S2.jpg","68","2","structured_incentive","68","true","structured_incentive,random,structured_normal","1,2,2,3","",""
"null","","html-keyboard-response","315","304087","0.0-244.0","3TMFV4NEP90M46NZMQAIP24VDLZ8WT","A36470UBRH28GO","3R5LWXWHR0UE010DORDQUF3E2FPGXE","","<img src=""img/set1/S2.jpg"" width=""540"" height = ""360"" style=""border:16px solid orange"">","null","","","","","","","",""
"null","","html-keyboard-response","316","304089","0.0-245.0","3TMFV4NEP90M46NZMQAIP24VDLZ8WT","A36470UBRH28GO","3R5LWXWHR0UE010DORDQUF3E2FPGXE","","","null","","","","","","","",""
"null","","image-keyboard-response","317","306590","0.0-246.0","3TMFV4NEP90M46NZMQAIP24VDLZ8WT","A36470UBRH28GO","3R5LWXWHR0UE010DORDQUF3E2FPGXE","","img/set1/S3.jpg","null","3","structured_incentive","72","false","structured_incentive,random,structured_normal","1,2,2,3","",""
"null","","html-keyboard-response","318","306943","0.0-247.0","3TMFV4NEP90M46NZMQAIP24VDLZ8WT","A36470UBRH28GO","3R5LWXWHR0UE010DORDQUF3E2FPGXE","","<img src=""img/set1/S3.jpg"" width=""540"" height = ""360"">","null","","","","","","","",""
"null","","html-keyboard-response","319","306950","0.0-248.0","3TMFV4NEP90M46NZMQAIP24VDLZ8WT","A36470UBRH28GO","3R5LWXWHR0UE010DORDQUF3E2FPGXE","","","null","","","","","","","",""
"1103.3999999761581","","image-keyboard-response","320","308056","0.0-249.0","3TMFV4NEP90M46NZMQAIP24VDLZ8WT","A36470UBRH28GO","3R5LWXWHR0UE010DORDQUF3E2FPGXE","","img/set1/S3.jpg","68","3","structured_incentive","72","false","structured_incentive,random,structured_normal","1,2,2,3","",""
"null","","html-keyboard-response","321","308408","0.0-250.0","3TMFV4NEP90M46NZMQAIP24VDLZ8WT","A36470UBRH28GO","3R5LWXWHR0UE010DORDQUF3E2FPGXE","","<img src=""img/set1/S3.jpg"" width=""540"" height = ""360"">","null","","","","","","","",""
"null","","html-keyboard-response","322","308411","0.0-251.0","3TMFV4NEP90M46NZMQAIP24VDLZ8WT","A36470UBRH28GO","3R5LWXWHR0UE010DORDQUF3E2FPGXE","","","null","","","","","","","",""
"1044.7999999523163","","image-keyboard-response","323","309457","0.0-252.0","3TMFV4NEP90M46NZMQAIP24VDLZ8WT","A36470UBRH28GO","3R5LWXWHR0UE010DORDQUF3E2FPGXE","","img/set1/S4.jpg","74","4","structured_incentive","74","true","structured_incentive,random,structured_normal","1,2,2,3","",""
"null","","html-keyboard-response","324","309810","0.0-253.0","3TMFV4NEP90M46NZMQAIP24VDLZ8WT","A36470UBRH28GO","3R5LWXWHR0UE010DORDQUF3E2FPGXE","","<img src=""img/set1/S4.jpg"" width=""540"" height = ""360"" style=""border:16px solid orange"">","null","","","","","","","",""
"null","","html-keyboard-response","325","309812","0.0-254.0","3TMFV4NEP90M46NZMQAIP24VDLZ8WT","A36470UBRH28GO","3R5LWXWHR0UE010DORDQUF3E2FPGXE","","","null","","","","","","","",""
"null","","image-keyboard-response","326","312315","0.0-255.0","3TMFV4NEP90M46NZMQAIP24VDLZ8WT","A36470UBRH28GO","3R5LWXWHR0UE010DORDQUF3E2FPGXE","","img/set1/S3.jpg","null","3","structured_incentive","72","false","structured_incentive,random,structured_normal","1,2,2,3","",""
"null","","html-keyboard-response","327","312667","0.0-256.0","3TMFV4NEP90M46NZMQAIP24VDLZ8WT","A36470UBRH28GO","3R5LWXWHR0UE010DORDQUF3E2FPGXE","","<img src=""img/set1/S3.jpg"" width=""540"" height = ""360"">","null","","","","","","","",""
"null","","html-keyboard-response","328","312673","0.0-257.0","3TMFV4NEP90M46NZMQAIP24VDLZ8WT","A36470UBRH28GO","3R5LWXWHR0UE010DORDQUF3E2FPGXE","","","null","","","","","","","",""
"707.1999999284744","","image-keyboard-response","329","313382","0.0-258.0","3TMFV4NEP90M46NZMQAIP24VDLZ8WT","A36470UBRH28GO","3R5LWXWHR0UE010DORDQUF3E2FPGXE","","img/set1/S1.jpg","83","1","structured_incentive","83","true","structured_incentive,random,structured_normal","1,2,2,3","",""
"null","","html-keyboard-response","330","313736","0.0-259.0","3TMFV4NEP90M46NZMQAIP24VDLZ8WT","A36470UBRH28GO","3R5LWXWHR0UE010DORDQUF3E2FPGXE","","<img src=""img/set1/S1.jpg"" width=""540"" height = ""360"" style=""border:16px solid orange"">","null","","","","","","","",""
"null","","html-keyboard-response","331","313738","0.0-260.0","3TMFV4NEP90M46NZMQAIP24VDLZ8WT","A36470UBRH28GO","3R5LWXWHR0UE010DORDQUF3E2FPGXE","","","null","","","","","","","",""
"557.6000000238419","","image-keyboard-response","332","314297","0.0-261.0","3TMFV4NEP90M46NZMQAIP24VDLZ8WT","A36470UBRH28GO","3R5LWXWHR0UE010DORDQUF3E2FPGXE","","img/set1/S2.jpg","68","2","structured_incentive","68","true","structured_incentive,random,structured_normal","1,2,2,3","",""
"null","","html-keyboard-response","333","314648","0.0-262.0","3TMFV4NEP90M46NZMQAIP24VDLZ8WT","A36470UBRH28GO","3R5LWXWHR0UE010DORDQUF3E2FPGXE","","<img src=""img/set1/S2.jpg"" width=""540"" height = ""360"" style=""border:16px solid orange"">","null","","","","","","","",""
"null","","html-keyboard-response","334","314650","0.0-263.0","3TMFV4NEP90M46NZMQAIP24VDLZ8WT","A36470UBRH28GO","3R5LWXWHR0UE010DORDQUF3E2FPGXE","","","null","","","","","","","",""
"905.5","","image-keyboard-response","335","315557","0.0-264.0","3TMFV4NEP90M46NZMQAIP24VDLZ8WT","A36470UBRH28GO","3R5LWXWHR0UE010DORDQUF3E2FPGXE","","img/set1/S1.jpg","83","1","structured_incentive","83","true","structured_incentive,random,structured_normal","1,2,2,3","",""
"null","","html-keyboard-response","336","315909","0.0-265.0","3TMFV4NEP90M46NZMQAIP24VDLZ8WT","A36470UBRH28GO","3R5LWXWHR0UE010DORDQUF3E2FPGXE","","<img src=""img/set1/S1.jpg"" width=""540"" height = ""360"" style=""border:16px solid orange"">","null","","","","","","","",""
"null","","html-keyboard-response","337","315912","0.0-266.0","3TMFV4NEP90M46NZMQAIP24VDLZ8WT","A36470UBRH28GO","3R5LWXWHR0UE010DORDQUF3E2FPGXE","","","null","","","","","","","",""
"null","","image-keyboard-response","338","318414","0.0-267.0","3TMFV4NEP90M46NZMQAIP24VDLZ8WT","A36470UBRH28GO","3R5LWXWHR0UE010DORDQUF3E2FPGXE","","img/set1/S3.jpg","null","3","structured_incentive","72","false","structured_incentive,random,structured_normal","1,2,2,3","",""
"null","","html-keyboard-response","339","318767","0.0-268.0","3TMFV4NEP90M46NZMQAIP24VDLZ8WT","A36470UBRH28GO","3R5LWXWHR0UE010DORDQUF3E2FPGXE","","<img src=""img/set1/S3.jpg"" width=""540"" height = ""360"">","null","","","","","","","",""
"null","","html-keyboard-response","340","318773","0.0-269.0","3TMFV4NEP90M46NZMQAIP24VDLZ8WT","A36470UBRH28GO","3R5LWXWHR0UE010DORDQUF3E2FPGXE","","","null","","","","","","","",""
"642.2000000476837","","image-keyboard-response","341","319416","0.0-270.0","3TMFV4NEP90M46NZMQAIP24VDLZ8WT","A36470UBRH28GO","3R5LWXWHR0UE010DORDQUF3E2FPGXE","","img/set1/S1.jpg","83","1","structured_incentive","83","true","structured_incentive,random,structured_normal","1,2,2,3","",""
"null","","html-keyboard-response","342","319768","0.0-271.0","3TMFV4NEP90M46NZMQAIP24VDLZ8WT","A36470UBRH28GO","3R5LWXWHR0UE010DORDQUF3E2FPGXE","","<img src=""img/set1/S1.jpg"" width=""540"" height = ""360"" style=""border:16px solid orange"">","null","","","","","","","",""
"null","","html-keyboard-response","343","319770","0.0-272.0","3TMFV4NEP90M46NZMQAIP24VDLZ8WT","A36470UBRH28GO","3R5LWXWHR0UE010DORDQUF3E2FPGXE","","","null","","","","","","","",""
"698.8000000715256","","image-keyboard-response","344","320470","0.0-273.0","3TMFV4NEP90M46NZMQAIP24VDLZ8WT","A36470UBRH28GO","3R5LWXWHR0UE010DORDQUF3E2FPGXE","","img/set1/S2.jpg","68","2","structured_incentive","68","true","structured_incentive,random,structured_normal","1,2,2,3","",""
"null","","html-keyboard-response","345","320822","0.0-274.0","3TMFV4NEP90M46NZMQAIP24VDLZ8WT","A36470UBRH28GO","3R5LWXWHR0UE010DORDQUF3E2FPGXE","","<img src=""img/set1/S2.jpg"" width=""540"" height = ""360"" style=""border:16px solid orange"">","null","","","","","","","",""
"null","","html-keyboard-response","346","320824","0.0-275.0","3TMFV4NEP90M46NZMQAIP24VDLZ8WT","A36470UBRH28GO","3R5LWXWHR0UE010DORDQUF3E2FPGXE","","","null","","","","","","","",""
"596.7000000476837","","image-keyboard-response","347","321423","0.0-276.0","3TMFV4NEP90M46NZMQAIP24VDLZ8WT","A36470UBRH28GO","3R5LWXWHR0UE010DORDQUF3E2FPGXE","","img/set1/S4.jpg","74","4","structured_incentive","74","true","structured_incentive,random,structured_normal","1,2,2,3","",""
"null","","html-keyboard-response","348","321776","0.0-277.0","3TMFV4NEP90M46NZMQAIP24VDLZ8WT","A36470UBRH28GO","3R5LWXWHR0UE010DORDQUF3E2FPGXE","","<img src=""img/set1/S4.jpg"" width=""540"" height = ""360"" style=""border:16px solid orange"">","null","","","","","","","",""
"null","","html-keyboard-response","349","321778","0.0-278.0","3TMFV4NEP90M46NZMQAIP24VDLZ8WT","A36470UBRH28GO","3R5LWXWHR0UE010DORDQUF3E2FPGXE","","","null","","","","","","","",""
"405.2000000476837","","image-keyboard-response","350","322185","0.0-279.0","3TMFV4NEP90M46NZMQAIP24VDLZ8WT","A36470UBRH28GO","3R5LWXWHR0UE010DORDQUF3E2FPGXE","","img/set1/S4.jpg","74","4","structured_incentive","74","true","structured_incentive,random,structured_normal","1,2,2,3","",""
"null","","html-keyboard-response","351","322537","0.0-280.0","3TMFV4NEP90M46NZMQAIP24VDLZ8WT","A36470UBRH28GO","3R5LWXWHR0UE010DORDQUF3E2FPGXE","","<img src=""img/set1/S4.jpg"" width=""540"" height = ""360"" style=""border:16px solid orange"">","null","","","","","","","",""
"null","","html-keyboard-response","352","322539","0.0-281.0","3TMFV4NEP90M46NZMQAIP24VDLZ8WT","A36470UBRH28GO","3R5LWXWHR0UE010DORDQUF3E2FPGXE","","","null","","","","","","","",""
"384.10000002384186","","image-keyboard-response","353","322924","0.0-282.0","3TMFV4NEP90M46NZMQAIP24VDLZ8WT","A36470UBRH28GO","3R5LWXWHR0UE010DORDQUF3E2FPGXE","","img/set1/S4.jpg","74","4","structured_incentive","74","true","structured_incentive,random,structured_normal","1,2,2,3","",""
"null","","html-keyboard-response","354","323276","0.0-283.0","3TMFV4NEP90M46NZMQAIP24VDLZ8WT","A36470UBRH28GO","3R5LWXWHR0UE010DORDQUF3E2FPGXE","","<img src=""img/set1/S4.jpg"" width=""540"" height = ""360"" style=""border:16px solid orange"">","null","","","","","","","",""
"null","","html-keyboard-response","355","323278","0.0-284.0","3TMFV4NEP90M46NZMQAIP24VDLZ8WT","A36470UBRH28GO","3R5LWXWHR0UE010DORDQUF3E2FPGXE","","","null","","","","","","","",""
"654.9000000953674","","image-keyboard-response","356","323934","0.0-285.0","3TMFV4NEP90M46NZMQAIP24VDLZ8WT","A36470UBRH28GO","3R5LWXWHR0UE010DORDQUF3E2FPGXE","","img/set1/S2.jpg","83","2","structured_incentive","68","false","structured_incentive,random,structured_normal","1,2,2,3","",""
"null","","html-keyboard-response","357","324287","0.0-286.0","3TMFV4NEP90M46NZMQAIP24VDLZ8WT","A36470UBRH28GO","3R5LWXWHR0UE010DORDQUF3E2FPGXE","","<img src=""img/set1/S2.jpg"" width=""540"" height = ""360"">","null","","","","","","","",""
"null","","html-keyboard-response","358","324290","0.0-287.0","3TMFV4NEP90M46NZMQAIP24VDLZ8WT","A36470UBRH28GO","3R5LWXWHR0UE010DORDQUF3E2FPGXE","","","null","","","","","","","",""
"1010","","image-keyboard-response","359","325301","0.0-288.0","3TMFV4NEP90M46NZMQAIP24VDLZ8WT","A36470UBRH28GO","3R5LWXWHR0UE010DORDQUF3E2FPGXE","","img/set1/S4.jpg","74","4","structured_incentive","74","true","structured_incentive,random,structured_normal","1,2,2,3","",""
"null","","html-keyboard-response","360","325654","0.0-289.0","3TMFV4NEP90M46NZMQAIP24VDLZ8WT","A36470UBRH28GO","3R5LWXWHR0UE010DORDQUF3E2FPGXE","","<img src=""img/set1/S4.jpg"" width=""540"" height = ""360"" style=""border:16px solid orange"">","null","","","","","","","",""
"null","","html-keyboard-response","361","325656","0.0-290.0","3TMFV4NEP90M46NZMQAIP24VDLZ8WT","A36470UBRH28GO","3R5LWXWHR0UE010DORDQUF3E2FPGXE","","","null","","","","","","","",""
"701","","image-keyboard-response","362","326358","0.0-291.0","3TMFV4NEP90M46NZMQAIP24VDLZ8WT","A36470UBRH28GO","3R5LWXWHR0UE010DORDQUF3E2FPGXE","","img/set1/S1.jpg","83","1","structured_incentive","83","true","structured_incentive,random,structured_normal","1,2,2,3","",""
"null","","html-keyboard-response","363","326711","0.0-292.0","3TMFV4NEP90M46NZMQAIP24VDLZ8WT","A36470UBRH28GO","3R5LWXWHR0UE010DORDQUF3E2FPGXE","","<img src=""img/set1/S1.jpg"" width=""540"" height = ""360"" style=""border:16px solid orange"">","null","","","","","","","",""
"null","","html-keyboard-response","364","326714","0.0-293.0","3TMFV4NEP90M46NZMQAIP24VDLZ8WT","A36470UBRH28GO","3R5LWXWHR0UE010DORDQUF3E2FPGXE","","","null","","","","","","","",""
"815.2999999523163","","image-keyboard-response","365","327531","0.0-294.0","3TMFV4NEP90M46NZMQAIP24VDLZ8WT","A36470UBRH28GO","3R5LWXWHR0UE010DORDQUF3E2FPGXE","","img/set1/S2.jpg","68","2","structured_incentive","68","true","structured_incentive,random,structured_normal","1,2,2,3","",""
"null","","html-keyboard-response","366","327884","0.0-295.0","3TMFV4NEP90M46NZMQAIP24VDLZ8WT","A36470UBRH28GO","3R5LWXWHR0UE010DORDQUF3E2FPGXE","","<img src=""img/set1/S2.jpg"" width=""540"" height = ""360"" style=""border:16px solid orange"">","null","","","","","","","",""
"null","","html-keyboard-response","367","327886","0.0-296.0","3TMFV4NEP90M46NZMQAIP24VDLZ8WT","A36470UBRH28GO","3R5LWXWHR0UE010DORDQUF3E2FPGXE","","","null","","","","","","","",""
"635.3999999761581","","image-keyboard-response","368","328523","0.0-297.0","3TMFV4NEP90M46NZMQAIP24VDLZ8WT","A36470UBRH28GO","3R5LWXWHR0UE010DORDQUF3E2FPGXE","","img/set1/S1.jpg","83","1","structured_incentive","83","true","structured_incentive,random,structured_normal","1,2,2,3","",""
"null","","html-keyboard-response","369","328875","0.0-298.0","3TMFV4NEP90M46NZMQAIP24VDLZ8WT","A36470UBRH28GO","3R5LWXWHR0UE010DORDQUF3E2FPGXE","","<img src=""img/set1/S1.jpg"" width=""540"" height = ""360"" style=""border:16px solid orange"">","null","","","","","","","",""
"null","","html-keyboard-response","370","328877","0.0-299.0","3TMFV4NEP90M46NZMQAIP24VDLZ8WT","A36470UBRH28GO","3R5LWXWHR0UE010DORDQUF3E2FPGXE","","","null","","","","","","","",""
"1349.5","","image-keyboard-response","371","330227","0.0-300.0","3TMFV4NEP90M46NZMQAIP24VDLZ8WT","A36470UBRH28GO","3R5LWXWHR0UE010DORDQUF3E2FPGXE","","img/set1/S2.jpg","68","2","structured_incentive","68","true","structured_incentive,random,structured_normal","1,2,2,3","",""
"null","","html-keyboard-response","372","330579","0.0-301.0","3TMFV4NEP90M46NZMQAIP24VDLZ8WT","A36470UBRH28GO","3R5LWXWHR0UE010DORDQUF3E2FPGXE","","<img src=""img/set1/S2.jpg"" width=""540"" height = ""360"" style=""border:16px solid orange"">","null","","","","","","","",""
"null","","html-keyboard-response","373","330581","0.0-302.0","3TMFV4NEP90M46NZMQAIP24VDLZ8WT","A36470UBRH28GO","3R5LWXWHR0UE010DORDQUF3E2FPGXE","","","null","","","","","","","",""
"581.1000000238419","","image-keyboard-response","374","331164","0.0-303.0","3TMFV4NEP90M46NZMQAIP24VDLZ8WT","A36470UBRH28GO","3R5LWXWHR0UE010DORDQUF3E2FPGXE","","img/set1/S4.jpg","74","4","structured_incentive","74","true","structured_incentive,random,structured_normal","1,2,2,3","",""
"null","","html-keyboard-response","375","331516","0.0-304.0","3TMFV4NEP90M46NZMQAIP24VDLZ8WT","A36470UBRH28GO","3R5LWXWHR0UE010DORDQUF3E2FPGXE","","<img src=""img/set1/S4.jpg"" width=""540"" height = ""360"" style=""border:16px solid orange"">","null","","","","","","","",""
"null","","html-keyboard-response","376","331519","0.0-305.0","3TMFV4NEP90M46NZMQAIP24VDLZ8WT","A36470UBRH28GO","3R5LWXWHR0UE010DORDQUF3E2FPGXE","","","null","","","","","","","",""
"690.0999999046326","","image-keyboard-response","377","332210","0.0-306.0","3TMFV4NEP90M46NZMQAIP24VDLZ8WT","A36470UBRH28GO","3R5LWXWHR0UE010DORDQUF3E2FPGXE","","img/set1/S1.jpg","83","1","structured_incentive","83","true","structured_incentive,random,structured_normal","1,2,2,3","",""
"null","","html-keyboard-response","378","332563","0.0-307.0","3TMFV4NEP90M46NZMQAIP24VDLZ8WT","A36470UBRH28GO","3R5LWXWHR0UE010DORDQUF3E2FPGXE","","<img src=""img/set1/S1.jpg"" width=""540"" height = ""360"" style=""border:16px solid orange"">","null","","","","","","","",""
"null","","html-keyboard-response","379","332565","0.0-308.0","3TMFV4NEP90M46NZMQAIP24VDLZ8WT","A36470UBRH28GO","3R5LWXWHR0UE010DORDQUF3E2FPGXE","","","null","","","","","","","",""
"null","","image-keyboard-response","380","335068","0.0-309.0","3TMFV4NEP90M46NZMQAIP24VDLZ8WT","A36470UBRH28GO","3R5LWXWHR0UE010DORDQUF3E2FPGXE","","img/set1/S3.jpg","null","3","structured_incentive","72","false","structured_incentive,random,structured_normal","1,2,2,3","",""
"null","","html-keyboard-response","381","335420","0.0-310.0","3TMFV4NEP90M46NZMQAIP24VDLZ8WT","A36470UBRH28GO","3R5LWXWHR0UE010DORDQUF3E2FPGXE","","<img src=""img/set1/S3.jpg"" width=""540"" height = ""360"">","null","","","","","","","",""
"null","","html-keyboard-response","382","335427","0.0-311.0","3TMFV4NEP90M46NZMQAIP24VDLZ8WT","A36470UBRH28GO","3R5LWXWHR0UE010DORDQUF3E2FPGXE","","","null","","","","","","","",""
"1199","","image-keyboard-response","383","336627","0.0-312.0","3TMFV4NEP90M46NZMQAIP24VDLZ8WT","A36470UBRH28GO","3R5LWXWHR0UE010DORDQUF3E2FPGXE","","img/set1/S1.jpg","83","1","structured_incentive","83","true","structured_incentive,random,structured_normal","1,2,2,3","",""
"null","","html-keyboard-response","384","336981","0.0-313.0","3TMFV4NEP90M46NZMQAIP24VDLZ8WT","A36470UBRH28GO","3R5LWXWHR0UE010DORDQUF3E2FPGXE","","<img src=""img/set1/S1.jpg"" width=""540"" height = ""360"" style=""border:16px solid orange"">","null","","","","","","","",""
"null","","html-keyboard-response","385","336983","0.0-314.0","3TMFV4NEP90M46NZMQAIP24VDLZ8WT","A36470UBRH28GO","3R5LWXWHR0UE010DORDQUF3E2FPGXE","","","null","","","","","","","",""
"877.3999999761581","","image-keyboard-response","386","337862","0.0-315.0","3TMFV4NEP90M46NZMQAIP24VDLZ8WT","A36470UBRH28GO","3R5LWXWHR0UE010DORDQUF3E2FPGXE","","img/set1/S2.jpg","68","2","structured_incentive","68","true","structured_incentive,random,structured_normal","1,2,2,3","",""
"null","","html-keyboard-response","387","338215","0.0-316.0","3TMFV4NEP90M46NZMQAIP24VDLZ8WT","A36470UBRH28GO","3R5LWXWHR0UE010DORDQUF3E2FPGXE","","<img src=""img/set1/S2.jpg"" width=""540"" height = ""360"" style=""border:16px solid orange"">","null","","","","","","","",""
"null","","html-keyboard-response","388","338217","0.0-317.0","3TMFV4NEP90M46NZMQAIP24VDLZ8WT","A36470UBRH28GO","3R5LWXWHR0UE010DORDQUF3E2FPGXE","","","null","","","","","","","",""
"481","","image-keyboard-response","389","338700","0.0-318.0","3TMFV4NEP90M46NZMQAIP24VDLZ8WT","A36470UBRH28GO","3R5LWXWHR0UE010DORDQUF3E2FPGXE","","img/set1/S4.jpg","74","4","structured_incentive","74","true","structured_incentive,random,structured_normal","1,2,2,3","",""
"null","","html-keyboard-response","390","339054","0.0-319.0","3TMFV4NEP90M46NZMQAIP24VDLZ8WT","A36470UBRH28GO","3R5LWXWHR0UE010DORDQUF3E2FPGXE","","<img src=""img/set1/S4.jpg"" width=""540"" height = ""360"" style=""border:16px solid orange"">","null","","","","","","","",""
"null","","html-keyboard-response","391","339056","0.0-320.0","3TMFV4NEP90M46NZMQAIP24VDLZ8WT","A36470UBRH28GO","3R5LWXWHR0UE010DORDQUF3E2FPGXE","","","null","","","","","","","",""
"552.3999999761581","","image-keyboard-response","392","339610","0.0-321.0","3TMFV4NEP90M46NZMQAIP24VDLZ8WT","A36470UBRH28GO","3R5LWXWHR0UE010DORDQUF3E2FPGXE","","img/set1/S4.jpg","74","4","structured_incentive","74","true","structured_incentive,random,structured_normal","1,2,2,3","",""
"null","","html-keyboard-response","393","339962","0.0-322.0","3TMFV4NEP90M46NZMQAIP24VDLZ8WT","A36470UBRH28GO","3R5LWXWHR0UE010DORDQUF3E2FPGXE","","<img src=""img/set1/S4.jpg"" width=""540"" height = ""360"" style=""border:16px solid orange"">","null","","","","","","","",""
"null","","html-keyboard-response","394","339967","0.0-323.0","3TMFV4NEP90M46NZMQAIP24VDLZ8WT","A36470UBRH28GO","3R5LWXWHR0UE010DORDQUF3E2FPGXE","","","null","","","","","","","",""
"668.7999999523163","","image-keyboard-response","395","340637","0.0-324.0","3TMFV4NEP90M46NZMQAIP24VDLZ8WT","A36470UBRH28GO","3R5LWXWHR0UE010DORDQUF3E2FPGXE","","img/set1/S4.jpg","74","4","structured_incentive","74","true","structured_incentive,random,structured_normal","1,2,2,3","",""
"null","","html-keyboard-response","396","340991","0.0-325.0","3TMFV4NEP90M46NZMQAIP24VDLZ8WT","A36470UBRH28GO","3R5LWXWHR0UE010DORDQUF3E2FPGXE","","<img src=""img/set1/S4.jpg"" width=""540"" height = ""360"" style=""border:16px solid orange"">","null","","","","","","","",""
"null","","html-keyboard-response","397","340993","0.0-326.0","3TMFV4NEP90M46NZMQAIP24VDLZ8WT","A36470UBRH28GO","3R5LWXWHR0UE010DORDQUF3E2FPGXE","","","null","","","","","","","",""
"672.3999999761581","","image-keyboard-response","398","341667","0.0-327.0","3TMFV4NEP90M46NZMQAIP24VDLZ8WT","A36470UBRH28GO","3R5LWXWHR0UE010DORDQUF3E2FPGXE","","img/set1/S1.jpg","83","1","structured_incentive","83","true","structured_incentive,random,structured_normal","1,2,2,3","",""
"null","","html-keyboard-response","399","342019","0.0-328.0","3TMFV4NEP90M46NZMQAIP24VDLZ8WT","A36470UBRH28GO","3R5LWXWHR0UE010DORDQUF3E2FPGXE","","<img src=""img/set1/S1.jpg"" width=""540"" height = ""360"" style=""border:16px solid orange"">","null","","","","","","","",""
"null","","html-keyboard-response","400","342021","0.0-329.0","3TMFV4NEP90M46NZMQAIP24VDLZ8WT","A36470UBRH28GO","3R5LWXWHR0UE010DORDQUF3E2FPGXE","","","null","","","","","","","",""
"null","","image-keyboard-response","401","344523","0.0-330.0","3TMFV4NEP90M46NZMQAIP24VDLZ8WT","A36470UBRH28GO","3R5LWXWHR0UE010DORDQUF3E2FPGXE","","img/set1/S3.jpg","null","3","structured_incentive","72","false","structured_incentive,random,structured_normal","1,2,2,3","",""
"null","","html-keyboard-response","402","344875","0.0-331.0","3TMFV4NEP90M46NZMQAIP24VDLZ8WT","A36470UBRH28GO","3R5LWXWHR0UE010DORDQUF3E2FPGXE","","<img src=""img/set1/S3.jpg"" width=""540"" height = ""360"">","null","","","","","","","",""
"null","","html-keyboard-response","403","344882","0.0-332.0","3TMFV4NEP90M46NZMQAIP24VDLZ8WT","A36470UBRH28GO","3R5LWXWHR0UE010DORDQUF3E2FPGXE","","","null","","","","","","","",""
"993.6000000238419","","image-keyboard-response","404","345877","0.0-333.0","3TMFV4NEP90M46NZMQAIP24VDLZ8WT","A36470UBRH28GO","3R5LWXWHR0UE010DORDQUF3E2FPGXE","","img/set1/S4.jpg","74","4","structured_incentive","74","true","structured_incentive,random,structured_normal","1,2,2,3","",""
"null","","html-keyboard-response","405","346230","0.0-334.0","3TMFV4NEP90M46NZMQAIP24VDLZ8WT","A36470UBRH28GO","3R5LWXWHR0UE010DORDQUF3E2FPGXE","","<img src=""img/set1/S4.jpg"" width=""540"" height = ""360"" style=""border:16px solid orange"">","null","","","","","","","",""
"null","","html-keyboard-response","406","346232","0.0-335.0","3TMFV4NEP90M46NZMQAIP24VDLZ8WT","A36470UBRH28GO","3R5LWXWHR0UE010DORDQUF3E2FPGXE","","","null","","","","","","","",""
"510.5","","image-keyboard-response","407","346745","0.0-336.0","3TMFV4NEP90M46NZMQAIP24VDLZ8WT","A36470UBRH28GO","3R5LWXWHR0UE010DORDQUF3E2FPGXE","","img/set1/S4.jpg","74","4","structured_incentive","74","true","structured_incentive,random,structured_normal","1,2,2,3","",""
"null","","html-keyboard-response","408","347097","0.0-337.0","3TMFV4NEP90M46NZMQAIP24VDLZ8WT","A36470UBRH28GO","3R5LWXWHR0UE010DORDQUF3E2FPGXE","","<img src=""img/set1/S4.jpg"" width=""540"" height = ""360"" style=""border:16px solid orange"">","null","","","","","","","",""
"null","","html-keyboard-response","409","347100","0.0-338.0","3TMFV4NEP90M46NZMQAIP24VDLZ8WT","A36470UBRH28GO","3R5LWXWHR0UE010DORDQUF3E2FPGXE","","","null","","","","","","","",""
"613.5","","image-keyboard-response","410","347715","0.0-339.0","3TMFV4NEP90M46NZMQAIP24VDLZ8WT","A36470UBRH28GO","3R5LWXWHR0UE010DORDQUF3E2FPGXE","","img/set1/S1.jpg","83","1","structured_incentive","83","true","structured_incentive,random,structured_normal","1,2,2,3","",""
