"rt","url","trial_type","trial_index","time_elapsed","internal_node_id","assignmentID","mturkID","hitID","view_history","stimulus","key_press","state","test_part","correct_response","correct","order_block","order_chunk","bonus","responses"
"19808.399999976158","consent.html","external-html","0","20027","0.0-0.0","3LOTDFNYA8LVJLXMU4GOZULH0OTWFD","A3DS5B06ZCD3E3","3XUSYT70ITN3RRKBJPNBFGD6FGOD06","","","","","","","","","","",""
"82322.89999997616","","instructions","1","102355","0.0-1.0","3LOTDFNYA8LVJLXMU4GOZULH0OTWFD","A3DS5B06ZCD3E3","3XUSYT70ITN3RRKBJPNBFGD6FGOD06","[{""page_index"":0,""viewing_time"":4984.399999976158},{""page_index"":1,""viewing_time"":7222.200000047684},{""page_index"":2,""viewing_time"":7740.899999976158},{""page_index"":3,""viewing_time"":10059.800000011921},{""page_index"":4,""viewing_time"":21810},{""page_index"":5,""viewing_time"":12249.599999964237},{""page_index"":6,""viewing_time"":5899.400000035763},{""page_index"":7,""viewing_time"":12356.300000011921}]","","","","","","","","","",""
"1602.5","","image-keyboard-response","2","103959","0.0-2.0-0.0","3LOTDFNYA8LVJLXMU4GOZULH0OTWFD","A3DS5B06ZCD3E3","3XUSYT70ITN3RRKBJPNBFGD6FGOD06","","img/practice/S1.jpg","83","1","practice","83","true","","","",""
"null","","html-keyboard-response","3","104268","0.0-2.0-1.0","3LOTDFNYA8LVJLXMU4GOZULH0OTWFD","A3DS5B06ZCD3E3","3XUSYT70ITN3RRKBJPNBFGD6FGOD06","","<img src=""img/practice/S1.jpg"" width=""540"" height = ""360"" style=""border:16px solid orange"">","null","","","","","","","",""
"null","","html-keyboard-response","4","104272","0.0-2.0-2.0","3LOTDFNYA8LVJLXMU4GOZULH0OTWFD","A3DS5B06ZCD3E3","3XUSYT70ITN3RRKBJPNBFGD6FGOD06","","","null","","","","","","","",""
"1219.2000000476837","","image-keyboard-response","5","105494","0.0-2.0-0.1","3LOTDFNYA8LVJLXMU4GOZULH0OTWFD","A3DS5B06ZCD3E3","3XUSYT70ITN3RRKBJPNBFGD6FGOD06","","img/practice/S3.jpg","68","3","practice","72","false","","","",""
"null","","html-keyboard-response","6","105796","0.0-2.0-1.1","3LOTDFNYA8LVJLXMU4GOZULH0OTWFD","A3DS5B06ZCD3E3","3XUSYT70ITN3RRKBJPNBFGD6FGOD06","","<img src=""img/practice/S3.jpg"" width=""540"" height = ""360"">","null","","","","","","","",""
"null","","html-keyboard-response","7","105801","0.0-2.0-2.1","3LOTDFNYA8LVJLXMU4GOZULH0OTWFD","A3DS5B06ZCD3E3","3XUSYT70ITN3RRKBJPNBFGD6FGOD06","","","null","","","","","","","",""
"1038.199999988079","","image-keyboard-response","8","106841","0.0-2.0-0.2","3LOTDFNYA8LVJLXMU4GOZULH0OTWFD","A3DS5B06ZCD3E3","3XUSYT70ITN3RRKBJPNBFGD6FGOD06","","img/practice/S4.jpg","72","4","practice","74","false","","","",""
"null","","html-keyboard-response","9","107148","0.0-2.0-1.2","3LOTDFNYA8LVJLXMU4GOZULH0OTWFD","A3DS5B06ZCD3E3","3XUSYT70ITN3RRKBJPNBFGD6FGOD06","","<img src=""img/practice/S4.jpg"" width=""540"" height = ""360"">","null","","","","","","","",""
"null","","html-keyboard-response","10","107150","0.0-2.0-2.2","3LOTDFNYA8LVJLXMU4GOZULH0OTWFD","A3DS5B06ZCD3E3","3XUSYT70ITN3RRKBJPNBFGD6FGOD06","","","null","","","","","","","",""
"727.0999999642372","","image-keyboard-response","11","107878","0.0-2.0-0.3","3LOTDFNYA8LVJLXMU4GOZULH0OTWFD","A3DS5B06ZCD3E3","3XUSYT70ITN3RRKBJPNBFGD6FGOD06","","img/practice/S2.jpg","74","2","practice","68","false","","","",""
"null","","html-keyboard-response","12","108192","0.0-2.0-1.3","3LOTDFNYA8LVJLXMU4GOZULH0OTWFD","A3DS5B06ZCD3E3","3XUSYT70ITN3RRKBJPNBFGD6FGOD06","","<img src=""img/practice/S2.jpg"" width=""540"" height = ""360"">","null","","","","","","","",""
"null","","html-keyboard-response","13","108195","0.0-2.0-2.3","3LOTDFNYA8LVJLXMU4GOZULH0OTWFD","A3DS5B06ZCD3E3","3XUSYT70ITN3RRKBJPNBFGD6FGOD06","","","null","","","","","","","",""
"738.6000000238419","","image-keyboard-response","14","108935","0.0-2.0-0.4","3LOTDFNYA8LVJLXMU4GOZULH0OTWFD","A3DS5B06ZCD3E3","3XUSYT70ITN3RRKBJPNBFGD6FGOD06","","img/practice/S2.jpg","83","2","practice","68","false","","","",""
"null","","html-keyboard-response","15","109252","0.0-2.0-1.4","3LOTDFNYA8LVJLXMU4GOZULH0OTWFD","A3DS5B06ZCD3E3","3XUSYT70ITN3RRKBJPNBFGD6FGOD06","","<img src=""img/practice/S2.jpg"" width=""540"" height = ""360"">","null","","","","","","","",""
"null","","html-keyboard-response","16","109254","0.0-2.0-2.4","3LOTDFNYA8LVJLXMU4GOZULH0OTWFD","A3DS5B06ZCD3E3","3XUSYT70ITN3RRKBJPNBFGD6FGOD06","","","null","","","","","","","",""
"928.1000000238419","","image-keyboard-response","17","110183","0.0-2.0-0.5","3LOTDFNYA8LVJLXMU4GOZULH0OTWFD","A3DS5B06ZCD3E3","3XUSYT70ITN3RRKBJPNBFGD6FGOD06","","img/practice/S4.jpg","83","4","practice","74","false","","","",""
"null","","html-keyboard-response","18","110495","0.0-2.0-1.5","3LOTDFNYA8LVJLXMU4GOZULH0OTWFD","A3DS5B06ZCD3E3","3XUSYT70ITN3RRKBJPNBFGD6FGOD06","","<img src=""img/practice/S4.jpg"" width=""540"" height = ""360"">","null","","","","","","","",""
"null","","html-keyboard-response","19","110498","0.0-2.0-2.5","3LOTDFNYA8LVJLXMU4GOZULH0OTWFD","A3DS5B06ZCD3E3","3XUSYT70ITN3RRKBJPNBFGD6FGOD06","","","null","","","","","","","",""
"1138.199999988079","","image-keyboard-response","20","111638","0.0-2.0-0.6","3LOTDFNYA8LVJLXMU4GOZULH0OTWFD","A3DS5B06ZCD3E3","3XUSYT70ITN3RRKBJPNBFGD6FGOD06","","img/practice/S3.jpg","74","3","practice","72","false","","","",""
"null","","html-keyboard-response","21","111947","0.0-2.0-1.6","3LOTDFNYA8LVJLXMU4GOZULH0OTWFD","A3DS5B06ZCD3E3","3XUSYT70ITN3RRKBJPNBFGD6FGOD06","","<img src=""img/practice/S3.jpg"" width=""540"" height = ""360"">","null","","","","","","","",""
"null","","html-keyboard-response","22","111950","0.0-2.0-2.6","3LOTDFNYA8LVJLXMU4GOZULH0OTWFD","A3DS5B06ZCD3E3","3XUSYT70ITN3RRKBJPNBFGD6FGOD06","","","null","","","","","","","",""
"711.3999999761581","","image-keyboard-response","23","112663","0.0-2.0-0.7","3LOTDFNYA8LVJLXMU4GOZULH0OTWFD","A3DS5B06ZCD3E3","3XUSYT70ITN3RRKBJPNBFGD6FGOD06","","img/practice/S1.jpg","83","1","practice","83","true","","","",""
"null","","html-keyboard-response","24","112967","0.0-2.0-1.7","3LOTDFNYA8LVJLXMU4GOZULH0OTWFD","A3DS5B06ZCD3E3","3XUSYT70ITN3RRKBJPNBFGD6FGOD06","","<img src=""img/practice/S1.jpg"" width=""540"" height = ""360"" style=""border:16px solid orange"">","null","","","","","","","",""
"null","","html-keyboard-response","25","112970","0.0-2.0-2.7","3LOTDFNYA8LVJLXMU4GOZULH0OTWFD","A3DS5B06ZCD3E3","3XUSYT70ITN3RRKBJPNBFGD6FGOD06","","","null","","","","","","","",""
"635.6000000238419","","image-keyboard-response","26","113608","0.0-2.0-0.8","3LOTDFNYA8LVJLXMU4GOZULH0OTWFD","A3DS5B06ZCD3E3","3XUSYT70ITN3RRKBJPNBFGD6FGOD06","","img/practice/S4.jpg","72","4","practice","74","false","","","",""
"null","","html-keyboard-response","27","113918","0.0-2.0-1.8","3LOTDFNYA8LVJLXMU4GOZULH0OTWFD","A3DS5B06ZCD3E3","3XUSYT70ITN3RRKBJPNBFGD6FGOD06","","<img src=""img/practice/S4.jpg"" width=""540"" height = ""360"">","null","","","","","","","",""
"null","","html-keyboard-response","28","113920","0.0-2.0-2.8","3LOTDFNYA8LVJLXMU4GOZULH0OTWFD","A3DS5B06ZCD3E3","3XUSYT70ITN3RRKBJPNBFGD6FGOD06","","","null","","","","","","","",""
"883.5999999642372","","image-keyboard-response","29","114807","0.0-2.0-0.9","3LOTDFNYA8LVJLXMU4GOZULH0OTWFD","A3DS5B06ZCD3E3","3XUSYT70ITN3RRKBJPNBFGD6FGOD06","","img/practice/S1.jpg","83","1","practice","83","true","","","",""
"null","","html-keyboard-response","30","115122","0.0-2.0-1.9","3LOTDFNYA8LVJLXMU4GOZULH0OTWFD","A3DS5B06ZCD3E3","3XUSYT70ITN3RRKBJPNBFGD6FGOD06","","<img src=""img/practice/S1.jpg"" width=""540"" height = ""360"" style=""border:16px solid orange"">","null","","","","","","","",""
"null","","html-keyboard-response","31","115132","0.0-2.0-2.9","3LOTDFNYA8LVJLXMU4GOZULH0OTWFD","A3DS5B06ZCD3E3","3XUSYT70ITN3RRKBJPNBFGD6FGOD06","","","null","","","","","","","",""
"474.0999999642372","","image-keyboard-response","32","115608","0.0-2.0-0.10","3LOTDFNYA8LVJLXMU4GOZULH0OTWFD","A3DS5B06ZCD3E3","3XUSYT70ITN3RRKBJPNBFGD6FGOD06","","img/practice/S2.jpg","74","2","practice","68","false","","","",""
"null","","html-keyboard-response","33","115926","0.0-2.0-1.10","3LOTDFNYA8LVJLXMU4GOZULH0OTWFD","A3DS5B06ZCD3E3","3XUSYT70ITN3RRKBJPNBFGD6FGOD06","","<img src=""img/practice/S2.jpg"" width=""540"" height = ""360"">","null","","","","","","","",""
"null","","html-keyboard-response","34","115929","0.0-2.0-2.10","3LOTDFNYA8LVJLXMU4GOZULH0OTWFD","A3DS5B06ZCD3E3","3XUSYT70ITN3RRKBJPNBFGD6FGOD06","","","null","","","","","","","",""
"924.9000000357628","","image-keyboard-response","35","116855","0.0-2.0-0.11","3LOTDFNYA8LVJLXMU4GOZULH0OTWFD","A3DS5B06ZCD3E3","3XUSYT70ITN3RRKBJPNBFGD6FGOD06","","img/practice/S3.jpg","68","3","practice","72","false","","","",""
"null","","html-keyboard-response","36","117177","0.0-2.0-1.11","3LOTDFNYA8LVJLXMU4GOZULH0OTWFD","A3DS5B06ZCD3E3","3XUSYT70ITN3RRKBJPNBFGD6FGOD06","","<img src=""img/practice/S3.jpg"" width=""540"" height = ""360"">","null","","","","","","","",""
"null","","html-keyboard-response","37","117180","0.0-2.0-2.11","3LOTDFNYA8LVJLXMU4GOZULH0OTWFD","A3DS5B06ZCD3E3","3XUSYT70ITN3RRKBJPNBFGD6FGOD06","","","null","","","","","","","",""
"649.6999999880791","","image-keyboard-response","38","117831","0.0-2.0-0.12","3LOTDFNYA8LVJLXMU4GOZULH0OTWFD","A3DS5B06ZCD3E3","3XUSYT70ITN3RRKBJPNBFGD6FGOD06","","img/practice/S2.jpg","68","2","practice","68","true","","","",""
"null","","html-keyboard-response","39","118147","0.0-2.0-1.12","3LOTDFNYA8LVJLXMU4GOZULH0OTWFD","A3DS5B06ZCD3E3","3XUSYT70ITN3RRKBJPNBFGD6FGOD06","","<img src=""img/practice/S2.jpg"" width=""540"" height = ""360"" style=""border:16px solid orange"">","null","","","","","","","",""
"null","","html-keyboard-response","40","118148","0.0-2.0-2.12","3LOTDFNYA8LVJLXMU4GOZULH0OTWFD","A3DS5B06ZCD3E3","3XUSYT70ITN3RRKBJPNBFGD6FGOD06","","","null","","","","","","","",""
"1233.3999999761581","","image-keyboard-response","41","119383","0.0-2.0-0.13","3LOTDFNYA8LVJLXMU4GOZULH0OTWFD","A3DS5B06ZCD3E3","3XUSYT70ITN3RRKBJPNBFGD6FGOD06","","img/practice/S4.jpg","72","4","practice","74","false","","","",""
"null","","html-keyboard-response","42","119690","0.0-2.0-1.13","3LOTDFNYA8LVJLXMU4GOZULH0OTWFD","A3DS5B06ZCD3E3","3XUSYT70ITN3RRKBJPNBFGD6FGOD06","","<img src=""img/practice/S4.jpg"" width=""540"" height = ""360"">","null","","","","","","","",""
"null","","html-keyboard-response","43","119693","0.0-2.0-2.13","3LOTDFNYA8LVJLXMU4GOZULH0OTWFD","A3DS5B06ZCD3E3","3XUSYT70ITN3RRKBJPNBFGD6FGOD06","","","null","","","","","","","",""
"744.3000000119209","","image-keyboard-response","44","120438","0.0-2.0-0.14","3LOTDFNYA8LVJLXMU4GOZULH0OTWFD","A3DS5B06ZCD3E3","3XUSYT70ITN3RRKBJPNBFGD6FGOD06","","img/practice/S1.jpg","83","1","practice","83","true","","","",""
"null","","html-keyboard-response","45","120757","0.0-2.0-1.14","3LOTDFNYA8LVJLXMU4GOZULH0OTWFD","A3DS5B06ZCD3E3","3XUSYT70ITN3RRKBJPNBFGD6FGOD06","","<img src=""img/practice/S1.jpg"" width=""540"" height = ""360"" style=""border:16px solid orange"">","null","","","","","","","",""
"null","","html-keyboard-response","46","120760","0.0-2.0-2.14","3LOTDFNYA8LVJLXMU4GOZULH0OTWFD","A3DS5B06ZCD3E3","3XUSYT70ITN3RRKBJPNBFGD6FGOD06","","","null","","","","","","","",""
"941","","image-keyboard-response","47","121702","0.0-2.0-0.15","3LOTDFNYA8LVJLXMU4GOZULH0OTWFD","A3DS5B06ZCD3E3","3XUSYT70ITN3RRKBJPNBFGD6FGOD06","","img/practice/S3.jpg","74","3","practice","72","false","","","",""
"null","","html-keyboard-response","48","122007","0.0-2.0-1.15","3LOTDFNYA8LVJLXMU4GOZULH0OTWFD","A3DS5B06ZCD3E3","3XUSYT70ITN3RRKBJPNBFGD6FGOD06","","<img src=""img/practice/S3.jpg"" width=""540"" height = ""360"">","null","","","","","","","",""
"null","","html-keyboard-response","49","122010","0.0-2.0-2.15","3LOTDFNYA8LVJLXMU4GOZULH0OTWFD","A3DS5B06ZCD3E3","3XUSYT70ITN3RRKBJPNBFGD6FGOD06","","","null","","","","","","","",""
"730.9000000357628","","image-keyboard-response","50","122742","0.0-2.0-0.16","3LOTDFNYA8LVJLXMU4GOZULH0OTWFD","A3DS5B06ZCD3E3","3XUSYT70ITN3RRKBJPNBFGD6FGOD06","","img/practice/S1.jpg","83","1","practice","83","true","","","",""
"null","","html-keyboard-response","51","123057","0.0-2.0-1.16","3LOTDFNYA8LVJLXMU4GOZULH0OTWFD","A3DS5B06ZCD3E3","3XUSYT70ITN3RRKBJPNBFGD6FGOD06","","<img src=""img/practice/S1.jpg"" width=""540"" height = ""360"" style=""border:16px solid orange"">","null","","","","","","","",""
"null","","html-keyboard-response","52","123059","0.0-2.0-2.16","3LOTDFNYA8LVJLXMU4GOZULH0OTWFD","A3DS5B06ZCD3E3","3XUSYT70ITN3RRKBJPNBFGD6FGOD06","","","null","","","","","","","",""
"851.7999999523163","","image-keyboard-response","53","123913","0.0-2.0-0.17","3LOTDFNYA8LVJLXMU4GOZULH0OTWFD","A3DS5B06ZCD3E3","3XUSYT70ITN3RRKBJPNBFGD6FGOD06","","img/practice/S2.jpg","74","2","practice","68","false","","","",""
"null","","html-keyboard-response","54","124218","0.0-2.0-1.17","3LOTDFNYA8LVJLXMU4GOZULH0OTWFD","A3DS5B06ZCD3E3","3XUSYT70ITN3RRKBJPNBFGD6FGOD06","","<img src=""img/practice/S2.jpg"" width=""540"" height = ""360"">","null","","","","","","","",""
"null","","html-keyboard-response","55","124221","0.0-2.0-2.17","3LOTDFNYA8LVJLXMU4GOZULH0OTWFD","A3DS5B06ZCD3E3","3XUSYT70ITN3RRKBJPNBFGD6FGOD06","","","null","","","","","","","",""
"1224.300000011921","","image-keyboard-response","56","125446","0.0-2.0-0.18","3LOTDFNYA8LVJLXMU4GOZULH0OTWFD","A3DS5B06ZCD3E3","3XUSYT70ITN3RRKBJPNBFGD6FGOD06","","img/practice/S4.jpg","72","4","practice","74","false","","","",""
"null","","html-keyboard-response","57","125757","0.0-2.0-1.18","3LOTDFNYA8LVJLXMU4GOZULH0OTWFD","A3DS5B06ZCD3E3","3XUSYT70ITN3RRKBJPNBFGD6FGOD06","","<img src=""img/practice/S4.jpg"" width=""540"" height = ""360"">","null","","","","","","","",""
"null","","html-keyboard-response","58","125759","0.0-2.0-2.18","3LOTDFNYA8LVJLXMU4GOZULH0OTWFD","A3DS5B06ZCD3E3","3XUSYT70ITN3RRKBJPNBFGD6FGOD06","","","null","","","","","","","",""
"1109.800000011921","","image-keyboard-response","59","126870","0.0-2.0-0.19","3LOTDFNYA8LVJLXMU4GOZULH0OTWFD","A3DS5B06ZCD3E3","3XUSYT70ITN3RRKBJPNBFGD6FGOD06","","img/practice/S3.jpg","74","3","practice","72","false","","","",""
"null","","html-keyboard-response","60","127179","0.0-2.0-1.19","3LOTDFNYA8LVJLXMU4GOZULH0OTWFD","A3DS5B06ZCD3E3","3XUSYT70ITN3RRKBJPNBFGD6FGOD06","","<img src=""img/practice/S3.jpg"" width=""540"" height = ""360"">","null","","","","","","","",""
"null","","html-keyboard-response","61","127182","0.0-2.0-2.19","3LOTDFNYA8LVJLXMU4GOZULH0OTWFD","A3DS5B06ZCD3E3","3XUSYT70ITN3RRKBJPNBFGD6FGOD06","","","null","","","","","","","",""
"1063.800000011921","","image-keyboard-response","62","128247","0.0-2.0-0.20","3LOTDFNYA8LVJLXMU4GOZULH0OTWFD","A3DS5B06ZCD3E3","3XUSYT70ITN3RRKBJPNBFGD6FGOD06","","img/practice/S4.jpg","68","4","practice","74","false","","","",""
"null","","html-keyboard-response","63","128553","0.0-2.0-1.20","3LOTDFNYA8LVJLXMU4GOZULH0OTWFD","A3DS5B06ZCD3E3","3XUSYT70ITN3RRKBJPNBFGD6FGOD06","","<img src=""img/practice/S4.jpg"" width=""540"" height = ""360"">","null","","","","","","","",""
"null","","html-keyboard-response","64","128558","0.0-2.0-2.20","3LOTDFNYA8LVJLXMU4GOZULH0OTWFD","A3DS5B06ZCD3E3","3XUSYT70ITN3RRKBJPNBFGD6FGOD06","","","null","","","","","","","",""
"518.1999999880791","","image-keyboard-response","65","129078","0.0-2.0-0.21","3LOTDFNYA8LVJLXMU4GOZULH0OTWFD","A3DS5B06ZCD3E3","3XUSYT70ITN3RRKBJPNBFGD6FGOD06","","img/practice/S3.jpg","68","3","practice","72","false","","","",""
"null","","html-keyboard-response","66","129394","0.0-2.0-1.21","3LOTDFNYA8LVJLXMU4GOZULH0OTWFD","A3DS5B06ZCD3E3","3XUSYT70ITN3RRKBJPNBFGD6FGOD06","","<img src=""img/practice/S3.jpg"" width=""540"" height = ""360"">","null","","","","","","","",""
"null","","html-keyboard-response","67","129396","0.0-2.0-2.21","3LOTDFNYA8LVJLXMU4GOZULH0OTWFD","A3DS5B06ZCD3E3","3XUSYT70ITN3RRKBJPNBFGD6FGOD06","","","null","","","","","","","",""
"561.1000000238419","","image-keyboard-response","68","129959","0.0-2.0-0.22","3LOTDFNYA8LVJLXMU4GOZULH0OTWFD","A3DS5B06ZCD3E3","3XUSYT70ITN3RRKBJPNBFGD6FGOD06","","img/practice/S1.jpg","83","1","practice","83","true","","","",""
"null","","html-keyboard-response","69","130266","0.0-2.0-1.22","3LOTDFNYA8LVJLXMU4GOZULH0OTWFD","A3DS5B06ZCD3E3","3XUSYT70ITN3RRKBJPNBFGD6FGOD06","","<img src=""img/practice/S1.jpg"" width=""540"" height = ""360"" style=""border:16px solid orange"">","null","","","","","","","",""
"null","","html-keyboard-response","70","130269","0.0-2.0-2.22","3LOTDFNYA8LVJLXMU4GOZULH0OTWFD","A3DS5B06ZCD3E3","3XUSYT70ITN3RRKBJPNBFGD6FGOD06","","","null","","","","","","","",""
"505.60000002384186","","image-keyboard-response","71","130776","0.0-2.0-0.23","3LOTDFNYA8LVJLXMU4GOZULH0OTWFD","A3DS5B06ZCD3E3","3XUSYT70ITN3RRKBJPNBFGD6FGOD06","","img/practice/S2.jpg","72","2","practice","68","false","","","",""
"null","","html-keyboard-response","72","131098","0.0-2.0-1.23","3LOTDFNYA8LVJLXMU4GOZULH0OTWFD","A3DS5B06ZCD3E3","3XUSYT70ITN3RRKBJPNBFGD6FGOD06","","<img src=""img/practice/S2.jpg"" width=""540"" height = ""360"">","null","","","","","","","",""
"null","","html-keyboard-response","73","131100","0.0-2.0-2.23","3LOTDFNYA8LVJLXMU4GOZULH0OTWFD","A3DS5B06ZCD3E3","3XUSYT70ITN3RRKBJPNBFGD6FGOD06","","","null","","","","","","","",""
"4161.399999976158","","instructions","74","135262","0.0-3.0","3LOTDFNYA8LVJLXMU4GOZULH0OTWFD","A3DS5B06ZCD3E3","3XUSYT70ITN3RRKBJPNBFGD6FGOD06","[{""page_index"":0,""viewing_time"":4161.300000011921}]","","","","","","","","","",""
"7579.699999988079","","instructions","75","142842","0.0-4.0","3LOTDFNYA8LVJLXMU4GOZULH0OTWFD","A3DS5B06ZCD3E3","3XUSYT70ITN3RRKBJPNBFGD6FGOD06","[{""page_index"":0,""viewing_time"":7579.400000035763}]","","","","","","","","","",""
"4437.600000023842","","instructions","76","147280","0.0-5.0","3LOTDFNYA8LVJLXMU4GOZULH0OTWFD","A3DS5B06ZCD3E3","3XUSYT70ITN3RRKBJPNBFGD6FGOD06","[{""page_index"":0,""viewing_time"":4437.300000011921}]","","","","","","","","","",""
"1652.800000011921","","image-keyboard-response","77","148934","0.0-6.0","3LOTDFNYA8LVJLXMU4GOZULH0OTWFD","A3DS5B06ZCD3E3","3XUSYT70ITN3RRKBJPNBFGD6FGOD06","","img/set1/S3.jpg","83","3","random","72","false","random,structured_incentive,structured_normal","1,2,2,3","",""
"null","","html-keyboard-response","78","149300","0.0-7.0","3LOTDFNYA8LVJLXMU4GOZULH0OTWFD","A3DS5B06ZCD3E3","3XUSYT70ITN3RRKBJPNBFGD6FGOD06","","<img src=""img/set1/S3.jpg"" width=""540"" height = ""360"">","null","","","","","","","",""
"null","","html-keyboard-response","79","149302","0.0-8.0","3LOTDFNYA8LVJLXMU4GOZULH0OTWFD","A3DS5B06ZCD3E3","3XUSYT70ITN3RRKBJPNBFGD6FGOD06","","","null","","","","","","","",""
"622.8000000119209","","image-keyboard-response","80","149926","0.0-9.0","3LOTDFNYA8LVJLXMU4GOZULH0OTWFD","A3DS5B06ZCD3E3","3XUSYT70ITN3RRKBJPNBFGD6FGOD06","","img/set1/S2.jpg","83","2","random","68","false","random,structured_incentive,structured_normal","1,2,2,3","",""
"null","","html-keyboard-response","81","150285","0.0-10.0","3LOTDFNYA8LVJLXMU4GOZULH0OTWFD","A3DS5B06ZCD3E3","3XUSYT70ITN3RRKBJPNBFGD6FGOD06","","<img src=""img/set1/S2.jpg"" width=""540"" height = ""360"">","null","","","","","","","",""
"null","","html-keyboard-response","82","150288","0.0-11.0","3LOTDFNYA8LVJLXMU4GOZULH0OTWFD","A3DS5B06ZCD3E3","3XUSYT70ITN3RRKBJPNBFGD6FGOD06","","","null","","","","","","","",""
"645.5","","image-keyboard-response","83","150934","0.0-12.0","3LOTDFNYA8LVJLXMU4GOZULH0OTWFD","A3DS5B06ZCD3E3","3XUSYT70ITN3RRKBJPNBFGD6FGOD06","","img/set1/S1.jpg","83","1","random","83","true","random,structured_incentive,structured_normal","1,2,2,3","",""
"null","","html-keyboard-response","84","151297","0.0-13.0","3LOTDFNYA8LVJLXMU4GOZULH0OTWFD","A3DS5B06ZCD3E3","3XUSYT70ITN3RRKBJPNBFGD6FGOD06","","<img src=""img/set1/S1.jpg"" width=""540"" height = ""360"" style=""border:16px solid orange"">","null","","","","","","","",""
"null","","html-keyboard-response","85","151300","0.0-14.0","3LOTDFNYA8LVJLXMU4GOZULH0OTWFD","A3DS5B06ZCD3E3","3XUSYT70ITN3RRKBJPNBFGD6FGOD06","","","null","","","","","","","",""
"977.7000000476837","","image-keyboard-response","86","152279","0.0-15.0","3LOTDFNYA8LVJLXMU4GOZULH0OTWFD","A3DS5B06ZCD3E3","3XUSYT70ITN3RRKBJPNBFGD6FGOD06","","img/set1/S3.jpg","83","3","random","72","false","random,structured_incentive,structured_normal","1,2,2,3","",""
"null","","html-keyboard-response","87","152633","0.0-16.0","3LOTDFNYA8LVJLXMU4GOZULH0OTWFD","A3DS5B06ZCD3E3","3XUSYT70ITN3RRKBJPNBFGD6FGOD06","","<img src=""img/set1/S3.jpg"" width=""540"" height = ""360"">","null","","","","","","","",""
"null","","html-keyboard-response","88","152635","0.0-17.0","3LOTDFNYA8LVJLXMU4GOZULH0OTWFD","A3DS5B06ZCD3E3","3XUSYT70ITN3RRKBJPNBFGD6FGOD06","","","null","","","","","","","",""
"794.8999999761581","","image-keyboard-response","89","153431","0.0-18.0","3LOTDFNYA8LVJLXMU4GOZULH0OTWFD","A3DS5B06ZCD3E3","3XUSYT70ITN3RRKBJPNBFGD6FGOD06","","img/set1/S1.jpg","68","1","random","83","false","random,structured_incentive,structured_normal","1,2,2,3","",""
"null","","html-keyboard-response","90","153784","0.0-19.0","3LOTDFNYA8LVJLXMU4GOZULH0OTWFD","A3DS5B06ZCD3E3","3XUSYT70ITN3RRKBJPNBFGD6FGOD06","","<img src=""img/set1/S1.jpg"" width=""540"" height = ""360"">","null","","","","","","","",""
"null","","html-keyboard-response","91","153787","0.0-20.0","3LOTDFNYA8LVJLXMU4GOZULH0OTWFD","A3DS5B06ZCD3E3","3XUSYT70ITN3RRKBJPNBFGD6FGOD06","","","null","","","","","","","",""
"730.5","","image-keyboard-response","92","154518","0.0-21.0","3LOTDFNYA8LVJLXMU4GOZULH0OTWFD","A3DS5B06ZCD3E3","3XUSYT70ITN3RRKBJPNBFGD6FGOD06","","img/set1/S2.jpg","68","2","random","68","true","random,structured_incentive,structured_normal","1,2,2,3","",""
"null","","html-keyboard-response","93","154884","0.0-22.0","3LOTDFNYA8LVJLXMU4GOZULH0OTWFD","A3DS5B06ZCD3E3","3XUSYT70ITN3RRKBJPNBFGD6FGOD06","","<img src=""img/set1/S2.jpg"" width=""540"" height = ""360"" style=""border:16px solid orange"">","null","","","","","","","",""
"null","","html-keyboard-response","94","154887","0.0-23.0","3LOTDFNYA8LVJLXMU4GOZULH0OTWFD","A3DS5B06ZCD3E3","3XUSYT70ITN3RRKBJPNBFGD6FGOD06","","","null","","","","","","","",""
"702.8999999761581","","image-keyboard-response","95","155591","0.0-24.0","3LOTDFNYA8LVJLXMU4GOZULH0OTWFD","A3DS5B06ZCD3E3","3XUSYT70ITN3RRKBJPNBFGD6FGOD06","","img/set1/S1.jpg","68","1","random","83","false","random,structured_incentive,structured_normal","1,2,2,3","",""
"null","","html-keyboard-response","96","155944","0.0-25.0","3LOTDFNYA8LVJLXMU4GOZULH0OTWFD","A3DS5B06ZCD3E3","3XUSYT70ITN3RRKBJPNBFGD6FGOD06","","<img src=""img/set1/S1.jpg"" width=""540"" height = ""360"">","null","","","","","","","",""
"null","","html-keyboard-response","97","155947","0.0-26.0","3LOTDFNYA8LVJLXMU4GOZULH0OTWFD","A3DS5B06ZCD3E3","3XUSYT70ITN3RRKBJPNBFGD6FGOD06","","","null","","","","","","","",""
"618.3000000119209","","image-keyboard-response","98","156566","0.0-27.0","3LOTDFNYA8LVJLXMU4GOZULH0OTWFD","A3DS5B06ZCD3E3","3XUSYT70ITN3RRKBJPNBFGD6FGOD06","","img/set1/S4.jpg","68","4","random","74","false","random,structured_incentive,structured_normal","1,2,2,3","",""
"null","","html-keyboard-response","99","156923","0.0-28.0","3LOTDFNYA8LVJLXMU4GOZULH0OTWFD","A3DS5B06ZCD3E3","3XUSYT70ITN3RRKBJPNBFGD6FGOD06","","<img src=""img/set1/S4.jpg"" width=""540"" height = ""360"">","null","","","","","","","",""
"null","","html-keyboard-response","100","156925","0.0-29.0","3LOTDFNYA8LVJLXMU4GOZULH0OTWFD","A3DS5B06ZCD3E3","3XUSYT70ITN3RRKBJPNBFGD6FGOD06","","","null","","","","","","","",""
"1095.9000000357628","","image-keyboard-response","101","158022","0.0-30.0","3LOTDFNYA8LVJLXMU4GOZULH0OTWFD","A3DS5B06ZCD3E3","3XUSYT70ITN3RRKBJPNBFGD6FGOD06","","img/set1/S3.jpg","68","3","random","72","false","random,structured_incentive,structured_normal","1,2,2,3","",""
"null","","html-keyboard-response","102","158378","0.0-31.0","3LOTDFNYA8LVJLXMU4GOZULH0OTWFD","A3DS5B06ZCD3E3","3XUSYT70ITN3RRKBJPNBFGD6FGOD06","","<img src=""img/set1/S3.jpg"" width=""540"" height = ""360"">","null","","","","","","","",""
"null","","html-keyboard-response","103","158381","0.0-32.0","3LOTDFNYA8LVJLXMU4GOZULH0OTWFD","A3DS5B06ZCD3E3","3XUSYT70ITN3RRKBJPNBFGD6FGOD06","","","null","","","","","","","",""
"600.3999999761581","","image-keyboard-response","104","158982","0.0-33.0","3LOTDFNYA8LVJLXMU4GOZULH0OTWFD","A3DS5B06ZCD3E3","3XUSYT70ITN3RRKBJPNBFGD6FGOD06","","img/set1/S4.jpg","68","4","random","74","false","random,structured_incentive,structured_normal","1,2,2,3","",""
"null","","html-keyboard-response","105","159339","0.0-34.0","3LOTDFNYA8LVJLXMU4GOZULH0OTWFD","A3DS5B06ZCD3E3","3XUSYT70ITN3RRKBJPNBFGD6FGOD06","","<img src=""img/set1/S4.jpg"" width=""540"" height = ""360"">","null","","","","","","","",""
"null","","html-keyboard-response","106","159341","0.0-35.0","3LOTDFNYA8LVJLXMU4GOZULH0OTWFD","A3DS5B06ZCD3E3","3XUSYT70ITN3RRKBJPNBFGD6FGOD06","","","null","","","","","","","",""
"536.6000000238419","","image-keyboard-response","107","159879","0.0-36.0","3LOTDFNYA8LVJLXMU4GOZULH0OTWFD","A3DS5B06ZCD3E3","3XUSYT70ITN3RRKBJPNBFGD6FGOD06","","img/set1/S4.jpg","83","4","random","74","false","random,structured_incentive,structured_normal","1,2,2,3","",""
"null","","html-keyboard-response","108","160236","0.0-37.0","3LOTDFNYA8LVJLXMU4GOZULH0OTWFD","A3DS5B06ZCD3E3","3XUSYT70ITN3RRKBJPNBFGD6FGOD06","","<img src=""img/set1/S4.jpg"" width=""540"" height = ""360"">","null","","","","","","","",""
"null","","html-keyboard-response","109","160238","0.0-38.0","3LOTDFNYA8LVJLXMU4GOZULH0OTWFD","A3DS5B06ZCD3E3","3XUSYT70ITN3RRKBJPNBFGD6FGOD06","","","null","","","","","","","",""
"854.9000000357628","","image-keyboard-response","110","161094","0.0-39.0","3LOTDFNYA8LVJLXMU4GOZULH0OTWFD","A3DS5B06ZCD3E3","3XUSYT70ITN3RRKBJPNBFGD6FGOD06","","img/set1/S1.jpg","68","1","random","83","false","random,structured_incentive,structured_normal","1,2,2,3","",""
"null","","html-keyboard-response","111","161454","0.0-40.0","3LOTDFNYA8LVJLXMU4GOZULH0OTWFD","A3DS5B06ZCD3E3","3XUSYT70ITN3RRKBJPNBFGD6FGOD06","","<img src=""img/set1/S1.jpg"" width=""540"" height = ""360"">","null","","","","","","","",""
"null","","html-keyboard-response","112","161456","0.0-41.0","3LOTDFNYA8LVJLXMU4GOZULH0OTWFD","A3DS5B06ZCD3E3","3XUSYT70ITN3RRKBJPNBFGD6FGOD06","","","null","","","","","","","",""
"613.1999999880791","","image-keyboard-response","113","162071","0.0-42.0","3LOTDFNYA8LVJLXMU4GOZULH0OTWFD","A3DS5B06ZCD3E3","3XUSYT70ITN3RRKBJPNBFGD6FGOD06","","img/set1/S2.jpg","72","2","random","68","false","random,structured_incentive,structured_normal","1,2,2,3","",""
"null","","html-keyboard-response","114","162426","0.0-43.0","3LOTDFNYA8LVJLXMU4GOZULH0OTWFD","A3DS5B06ZCD3E3","3XUSYT70ITN3RRKBJPNBFGD6FGOD06","","<img src=""img/set1/S2.jpg"" width=""540"" height = ""360"">","null","","","","","","","",""
"null","","html-keyboard-response","115","162428","0.0-44.0","3LOTDFNYA8LVJLXMU4GOZULH0OTWFD","A3DS5B06ZCD3E3","3XUSYT70ITN3RRKBJPNBFGD6FGOD06","","","null","","","","","","","",""
"457.69999998807907","","image-keyboard-response","116","162887","0.0-45.0","3LOTDFNYA8LVJLXMU4GOZULH0OTWFD","A3DS5B06ZCD3E3","3XUSYT70ITN3RRKBJPNBFGD6FGOD06","","img/set1/S1.jpg","74","1","random","83","false","random,structured_incentive,structured_normal","1,2,2,3","",""
"null","","html-keyboard-response","117","163243","0.0-46.0","3LOTDFNYA8LVJLXMU4GOZULH0OTWFD","A3DS5B06ZCD3E3","3XUSYT70ITN3RRKBJPNBFGD6FGOD06","","<img src=""img/set1/S1.jpg"" width=""540"" height = ""360"">","null","","","","","","","",""
"null","","html-keyboard-response","118","163246","0.0-47.0","3LOTDFNYA8LVJLXMU4GOZULH0OTWFD","A3DS5B06ZCD3E3","3XUSYT70ITN3RRKBJPNBFGD6FGOD06","","","null","","","","","","","",""
"600.3999999761581","","image-keyboard-response","119","163847","0.0-48.0","3LOTDFNYA8LVJLXMU4GOZULH0OTWFD","A3DS5B06ZCD3E3","3XUSYT70ITN3RRKBJPNBFGD6FGOD06","","img/set1/S3.jpg","74","3","random","72","false","random,structured_incentive,structured_normal","1,2,2,3","",""
"null","","html-keyboard-response","120","164217","0.0-49.0","3LOTDFNYA8LVJLXMU4GOZULH0OTWFD","A3DS5B06ZCD3E3","3XUSYT70ITN3RRKBJPNBFGD6FGOD06","","<img src=""img/set1/S3.jpg"" width=""540"" height = ""360"">","null","","","","","","","",""
"null","","html-keyboard-response","121","164220","0.0-50.0","3LOTDFNYA8LVJLXMU4GOZULH0OTWFD","A3DS5B06ZCD3E3","3XUSYT70ITN3RRKBJPNBFGD6FGOD06","","","null","","","","","","","",""
"633.1999999880791","","image-keyboard-response","122","164854","0.0-51.0","3LOTDFNYA8LVJLXMU4GOZULH0OTWFD","A3DS5B06ZCD3E3","3XUSYT70ITN3RRKBJPNBFGD6FGOD06","","img/set1/S3.jpg","74","3","random","72","false","random,structured_incentive,structured_normal","1,2,2,3","",""
"null","","html-keyboard-response","123","165225","0.0-52.0","3LOTDFNYA8LVJLXMU4GOZULH0OTWFD","A3DS5B06ZCD3E3","3XUSYT70ITN3RRKBJPNBFGD6FGOD06","","<img src=""img/set1/S3.jpg"" width=""540"" height = ""360"">","null","","","","","","","",""
"null","","html-keyboard-response","124","165228","0.0-53.0","3LOTDFNYA8LVJLXMU4GOZULH0OTWFD","A3DS5B06ZCD3E3","3XUSYT70ITN3RRKBJPNBFGD6FGOD06","","","null","","","","","","","",""
"794.1999999880791","","image-keyboard-response","125","166024","0.0-54.0","3LOTDFNYA8LVJLXMU4GOZULH0OTWFD","A3DS5B06ZCD3E3","3XUSYT70ITN3RRKBJPNBFGD6FGOD06","","img/set1/S4.jpg","83","4","random","74","false","random,structured_incentive,structured_normal","1,2,2,3","",""
"null","","html-keyboard-response","126","166386","0.0-55.0","3LOTDFNYA8LVJLXMU4GOZULH0OTWFD","A3DS5B06ZCD3E3","3XUSYT70ITN3RRKBJPNBFGD6FGOD06","","<img src=""img/set1/S4.jpg"" width=""540"" height = ""360"">","null","","","","","","","",""
"null","","html-keyboard-response","127","166389","0.0-56.0","3LOTDFNYA8LVJLXMU4GOZULH0OTWFD","A3DS5B06ZCD3E3","3XUSYT70ITN3RRKBJPNBFGD6FGOD06","","","null","","","","","","","",""
"514","","image-keyboard-response","128","166904","0.0-57.0","3LOTDFNYA8LVJLXMU4GOZULH0OTWFD","A3DS5B06ZCD3E3","3XUSYT70ITN3RRKBJPNBFGD6FGOD06","","img/set1/S4.jpg","83","4","random","74","false","random,structured_incentive,structured_normal","1,2,2,3","",""
"null","","html-keyboard-response","129","167271","0.0-58.0","3LOTDFNYA8LVJLXMU4GOZULH0OTWFD","A3DS5B06ZCD3E3","3XUSYT70ITN3RRKBJPNBFGD6FGOD06","","<img src=""img/set1/S4.jpg"" width=""540"" height = ""360"">","null","","","","","","","",""
"null","","html-keyboard-response","130","167274","0.0-59.0","3LOTDFNYA8LVJLXMU4GOZULH0OTWFD","A3DS5B06ZCD3E3","3XUSYT70ITN3RRKBJPNBFGD6FGOD06","","","null","","","","","","","",""
"1515.5999999642372","","image-keyboard-response","131","168790","0.0-60.0","3LOTDFNYA8LVJLXMU4GOZULH0OTWFD","A3DS5B06ZCD3E3","3XUSYT70ITN3RRKBJPNBFGD6FGOD06","","img/set1/S1.jpg","83","1","random","83","true","random,structured_incentive,structured_normal","1,2,2,3","",""
"null","","html-keyboard-response","132","169148","0.0-61.0","3LOTDFNYA8LVJLXMU4GOZULH0OTWFD","A3DS5B06ZCD3E3","3XUSYT70ITN3RRKBJPNBFGD6FGOD06","","<img src=""img/set1/S1.jpg"" width=""540"" height = ""360"" style=""border:16px solid orange"">","null","","","","","","","",""
"null","","html-keyboard-response","133","169150","0.0-62.0","3LOTDFNYA8LVJLXMU4GOZULH0OTWFD","A3DS5B06ZCD3E3","3XUSYT70ITN3RRKBJPNBFGD6FGOD06","","","null","","","","","","","",""
"1158.6000000238419","","image-keyboard-response","134","170310","0.0-63.0","3LOTDFNYA8LVJLXMU4GOZULH0OTWFD","A3DS5B06ZCD3E3","3XUSYT70ITN3RRKBJPNBFGD6FGOD06","","img/set1/S1.jpg","83","1","random","83","true","random,structured_incentive,structured_normal","1,2,2,3","",""
"null","","html-keyboard-response","135","170675","0.0-64.0","3LOTDFNYA8LVJLXMU4GOZULH0OTWFD","A3DS5B06ZCD3E3","3XUSYT70ITN3RRKBJPNBFGD6FGOD06","","<img src=""img/set1/S1.jpg"" width=""540"" height = ""360"" style=""border:16px solid orange"">","null","","","","","","","",""
"null","","html-keyboard-response","136","170677","0.0-65.0","3LOTDFNYA8LVJLXMU4GOZULH0OTWFD","A3DS5B06ZCD3E3","3XUSYT70ITN3RRKBJPNBFGD6FGOD06","","","null","","","","","","","",""
"1023.0999999642372","","image-keyboard-response","137","171702","0.0-66.0","3LOTDFNYA8LVJLXMU4GOZULH0OTWFD","A3DS5B06ZCD3E3","3XUSYT70ITN3RRKBJPNBFGD6FGOD06","","img/set1/S4.jpg","72","4","random","74","false","random,structured_incentive,structured_normal","1,2,2,3","",""
"null","","html-keyboard-response","138","172058","0.0-67.0","3LOTDFNYA8LVJLXMU4GOZULH0OTWFD","A3DS5B06ZCD3E3","3XUSYT70ITN3RRKBJPNBFGD6FGOD06","","<img src=""img/set1/S4.jpg"" width=""540"" height = ""360"">","null","","","","","","","",""
"null","","html-keyboard-response","139","172060","0.0-68.0","3LOTDFNYA8LVJLXMU4GOZULH0OTWFD","A3DS5B06ZCD3E3","3XUSYT70ITN3RRKBJPNBFGD6FGOD06","","","null","","","","","","","",""
"856.6999999880791","","image-keyboard-response","140","172918","0.0-69.0","3LOTDFNYA8LVJLXMU4GOZULH0OTWFD","A3DS5B06ZCD3E3","3XUSYT70ITN3RRKBJPNBFGD6FGOD06","","img/set1/S2.jpg","72","2","random","68","false","random,structured_incentive,structured_normal","1,2,2,3","",""
"null","","html-keyboard-response","141","173275","0.0-70.0","3LOTDFNYA8LVJLXMU4GOZULH0OTWFD","A3DS5B06ZCD3E3","3XUSYT70ITN3RRKBJPNBFGD6FGOD06","","<img src=""img/set1/S2.jpg"" width=""540"" height = ""360"">","null","","","","","","","",""
"null","","html-keyboard-response","142","173277","0.0-71.0","3LOTDFNYA8LVJLXMU4GOZULH0OTWFD","A3DS5B06ZCD3E3","3XUSYT70ITN3RRKBJPNBFGD6FGOD06","","","null","","","","","","","",""
"504.5","","image-keyboard-response","143","173783","0.0-72.0","3LOTDFNYA8LVJLXMU4GOZULH0OTWFD","A3DS5B06ZCD3E3","3XUSYT70ITN3RRKBJPNBFGD6FGOD06","","img/set1/S2.jpg","68","2","random","68","true","random,structured_incentive,structured_normal","1,2,2,3","",""
"null","","html-keyboard-response","144","174147","0.0-73.0","3LOTDFNYA8LVJLXMU4GOZULH0OTWFD","A3DS5B06ZCD3E3","3XUSYT70ITN3RRKBJPNBFGD6FGOD06","","<img src=""img/set1/S2.jpg"" width=""540"" height = ""360"" style=""border:16px solid orange"">","null","","","","","","","",""
"null","","html-keyboard-response","145","174150","0.0-74.0","3LOTDFNYA8LVJLXMU4GOZULH0OTWFD","A3DS5B06ZCD3E3","3XUSYT70ITN3RRKBJPNBFGD6FGOD06","","","null","","","","","","","",""
"1023.1999999880791","","image-keyboard-response","146","175174","0.0-75.0","3LOTDFNYA8LVJLXMU4GOZULH0OTWFD","A3DS5B06ZCD3E3","3XUSYT70ITN3RRKBJPNBFGD6FGOD06","","img/set1/S1.jpg","72","1","random","83","false","random,structured_incentive,structured_normal","1,2,2,3","",""
"null","","html-keyboard-response","147","175533","0.0-76.0","3LOTDFNYA8LVJLXMU4GOZULH0OTWFD","A3DS5B06ZCD3E3","3XUSYT70ITN3RRKBJPNBFGD6FGOD06","","<img src=""img/set1/S1.jpg"" width=""540"" height = ""360"">","null","","","","","","","",""
"null","","html-keyboard-response","148","175534","0.0-77.0","3LOTDFNYA8LVJLXMU4GOZULH0OTWFD","A3DS5B06ZCD3E3","3XUSYT70ITN3RRKBJPNBFGD6FGOD06","","","null","","","","","","","",""
"678.5","","image-keyboard-response","149","176214","0.0-78.0","3LOTDFNYA8LVJLXMU4GOZULH0OTWFD","A3DS5B06ZCD3E3","3XUSYT70ITN3RRKBJPNBFGD6FGOD06","","img/set1/S1.jpg","74","1","random","83","false","random,structured_incentive,structured_normal","1,2,2,3","",""
"null","","html-keyboard-response","150","176573","0.0-79.0","3LOTDFNYA8LVJLXMU4GOZULH0OTWFD","A3DS5B06ZCD3E3","3XUSYT70ITN3RRKBJPNBFGD6FGOD06","","<img src=""img/set1/S1.jpg"" width=""540"" height = ""360"">","null","","","","","","","",""
"null","","html-keyboard-response","151","176575","0.0-80.0","3LOTDFNYA8LVJLXMU4GOZULH0OTWFD","A3DS5B06ZCD3E3","3XUSYT70ITN3RRKBJPNBFGD6FGOD06","","","null","","","","","","","",""
"1430.5","","image-keyboard-response","152","178008","0.0-81.0","3LOTDFNYA8LVJLXMU4GOZULH0OTWFD","A3DS5B06ZCD3E3","3XUSYT70ITN3RRKBJPNBFGD6FGOD06","","img/set1/S4.jpg","68","4","random","74","false","random,structured_incentive,structured_normal","1,2,2,3","",""
"null","","html-keyboard-response","153","178365","0.0-82.0","3LOTDFNYA8LVJLXMU4GOZULH0OTWFD","A3DS5B06ZCD3E3","3XUSYT70ITN3RRKBJPNBFGD6FGOD06","","<img src=""img/set1/S4.jpg"" width=""540"" height = ""360"">","null","","","","","","","",""
"null","","html-keyboard-response","154","178368","0.0-83.0","3LOTDFNYA8LVJLXMU4GOZULH0OTWFD","A3DS5B06ZCD3E3","3XUSYT70ITN3RRKBJPNBFGD6FGOD06","","","null","","","","","","","",""
"772.8999999761581","","image-keyboard-response","155","179142","0.0-84.0","3LOTDFNYA8LVJLXMU4GOZULH0OTWFD","A3DS5B06ZCD3E3","3XUSYT70ITN3RRKBJPNBFGD6FGOD06","","img/set1/S4.jpg","72","4","random","74","false","random,structured_incentive,structured_normal","1,2,2,3","",""
"null","","html-keyboard-response","156","179501","0.0-85.0","3LOTDFNYA8LVJLXMU4GOZULH0OTWFD","A3DS5B06ZCD3E3","3XUSYT70ITN3RRKBJPNBFGD6FGOD06","","<img src=""img/set1/S4.jpg"" width=""540"" height = ""360"">","null","","","","","","","",""
"null","","html-keyboard-response","157","179503","0.0-86.0","3LOTDFNYA8LVJLXMU4GOZULH0OTWFD","A3DS5B06ZCD3E3","3XUSYT70ITN3RRKBJPNBFGD6FGOD06","","","null","","","","","","","",""
"949.8000000119209","","image-keyboard-response","158","180454","0.0-87.0","3LOTDFNYA8LVJLXMU4GOZULH0OTWFD","A3DS5B06ZCD3E3","3XUSYT70ITN3RRKBJPNBFGD6FGOD06","","img/set1/S2.jpg","68","2","random","68","true","random,structured_incentive,structured_normal","1,2,2,3","",""
"null","","html-keyboard-response","159","180808","0.0-88.0","3LOTDFNYA8LVJLXMU4GOZULH0OTWFD","A3DS5B06ZCD3E3","3XUSYT70ITN3RRKBJPNBFGD6FGOD06","","<img src=""img/set1/S2.jpg"" width=""540"" height = ""360"" style=""border:16px solid orange"">","null","","","","","","","",""
"null","","html-keyboard-response","160","180810","0.0-89.0","3LOTDFNYA8LVJLXMU4GOZULH0OTWFD","A3DS5B06ZCD3E3","3XUSYT70ITN3RRKBJPNBFGD6FGOD06","","","null","","","","","","","",""
"762.4000000357628","","image-keyboard-response","161","181574","0.0-90.0","3LOTDFNYA8LVJLXMU4GOZULH0OTWFD","A3DS5B06ZCD3E3","3XUSYT70ITN3RRKBJPNBFGD6FGOD06","","img/set1/S4.jpg","74","4","random","74","true","random,structured_incentive,structured_normal","1,2,2,3","",""
"null","","html-keyboard-response","162","181927","0.0-91.0","3LOTDFNYA8LVJLXMU4GOZULH0OTWFD","A3DS5B06ZCD3E3","3XUSYT70ITN3RRKBJPNBFGD6FGOD06","","<img src=""img/set1/S4.jpg"" width=""540"" height = ""360"" style=""border:16px solid orange"">","null","","","","","","","",""
"null","","html-keyboard-response","163","181929","0.0-92.0","3LOTDFNYA8LVJLXMU4GOZULH0OTWFD","A3DS5B06ZCD3E3","3XUSYT70ITN3RRKBJPNBFGD6FGOD06","","","null","","","","","","","",""
"925.2000000476837","","image-keyboard-response","164","182855","0.0-93.0","3LOTDFNYA8LVJLXMU4GOZULH0OTWFD","A3DS5B06ZCD3E3","3XUSYT70ITN3RRKBJPNBFGD6FGOD06","","img/set1/S3.jpg","72","3","random","72","true","random,structured_incentive,structured_normal","1,2,2,3","",""
"null","","html-keyboard-response","165","183221","0.0-94.0","3LOTDFNYA8LVJLXMU4GOZULH0OTWFD","A3DS5B06ZCD3E3","3XUSYT70ITN3RRKBJPNBFGD6FGOD06","","<img src=""img/set1/S3.jpg"" width=""540"" height = ""360"" style=""border:16px solid orange"">","null","","","","","","","",""
"null","","html-keyboard-response","166","183224","0.0-95.0","3LOTDFNYA8LVJLXMU4GOZULH0OTWFD","A3DS5B06ZCD3E3","3XUSYT70ITN3RRKBJPNBFGD6FGOD06","","","null","","","","","","","",""
"1035.800000011921","","image-keyboard-response","167","184262","0.0-96.0","3LOTDFNYA8LVJLXMU4GOZULH0OTWFD","A3DS5B06ZCD3E3","3XUSYT70ITN3RRKBJPNBFGD6FGOD06","","img/set1/S2.jpg","68","2","random","68","true","random,structured_incentive,structured_normal","1,2,2,3","",""
"null","","html-keyboard-response","168","184617","0.0-97.0","3LOTDFNYA8LVJLXMU4GOZULH0OTWFD","A3DS5B06ZCD3E3","3XUSYT70ITN3RRKBJPNBFGD6FGOD06","","<img src=""img/set1/S2.jpg"" width=""540"" height = ""360"" style=""border:16px solid orange"">","null","","","","","","","",""
"null","","html-keyboard-response","169","184620","0.0-98.0","3LOTDFNYA8LVJLXMU4GOZULH0OTWFD","A3DS5B06ZCD3E3","3XUSYT70ITN3RRKBJPNBFGD6FGOD06","","","null","","","","","","","",""
"841.1999999880791","","image-keyboard-response","170","185462","0.0-99.0","3LOTDFNYA8LVJLXMU4GOZULH0OTWFD","A3DS5B06ZCD3E3","3XUSYT70ITN3RRKBJPNBFGD6FGOD06","","img/set1/S4.jpg","72","4","random","74","false","random,structured_incentive,structured_normal","1,2,2,3","",""
"null","","html-keyboard-response","171","185816","0.0-100.0","3LOTDFNYA8LVJLXMU4GOZULH0OTWFD","A3DS5B06ZCD3E3","3XUSYT70ITN3RRKBJPNBFGD6FGOD06","","<img src=""img/set1/S4.jpg"" width=""540"" height = ""360"">","null","","","","","","","",""
"null","","html-keyboard-response","172","185818","0.0-101.0","3LOTDFNYA8LVJLXMU4GOZULH0OTWFD","A3DS5B06ZCD3E3","3XUSYT70ITN3RRKBJPNBFGD6FGOD06","","","null","","","","","","","",""
"441.80000001192093","","image-keyboard-response","173","186261","0.0-102.0","3LOTDFNYA8LVJLXMU4GOZULH0OTWFD","A3DS5B06ZCD3E3","3XUSYT70ITN3RRKBJPNBFGD6FGOD06","","img/set1/S4.jpg","74","4","random","74","true","random,structured_incentive,structured_normal","1,2,2,3","",""
"null","","html-keyboard-response","174","186618","0.0-103.0","3LOTDFNYA8LVJLXMU4GOZULH0OTWFD","A3DS5B06ZCD3E3","3XUSYT70ITN3RRKBJPNBFGD6FGOD06","","<img src=""img/set1/S4.jpg"" width=""540"" height = ""360"" style=""border:16px solid orange"">","null","","","","","","","",""
"null","","html-keyboard-response","175","186620","0.0-104.0","3LOTDFNYA8LVJLXMU4GOZULH0OTWFD","A3DS5B06ZCD3E3","3XUSYT70ITN3RRKBJPNBFGD6FGOD06","","","null","","","","","","","",""
"792.8999999761581","","image-keyboard-response","176","187414","0.0-105.0","3LOTDFNYA8LVJLXMU4GOZULH0OTWFD","A3DS5B06ZCD3E3","3XUSYT70ITN3RRKBJPNBFGD6FGOD06","","img/set1/S2.jpg","72","2","random","68","false","random,structured_incentive,structured_normal","1,2,2,3","",""
"null","","html-keyboard-response","177","187780","0.0-106.0","3LOTDFNYA8LVJLXMU4GOZULH0OTWFD","A3DS5B06ZCD3E3","3XUSYT70ITN3RRKBJPNBFGD6FGOD06","","<img src=""img/set1/S2.jpg"" width=""540"" height = ""360"">","null","","","","","","","",""
"null","","html-keyboard-response","178","187783","0.0-107.0","3LOTDFNYA8LVJLXMU4GOZULH0OTWFD","A3DS5B06ZCD3E3","3XUSYT70ITN3RRKBJPNBFGD6FGOD06","","","null","","","","","","","",""
"157.19999998807907","","image-keyboard-response","179","187942","0.0-108.0","3LOTDFNYA8LVJLXMU4GOZULH0OTWFD","A3DS5B06ZCD3E3","3XUSYT70ITN3RRKBJPNBFGD6FGOD06","","img/set1/S3.jpg","68","3","random","72","false","random,structured_incentive,structured_normal","1,2,2,3","",""
"null","","html-keyboard-response","180","188302","0.0-109.0","3LOTDFNYA8LVJLXMU4GOZULH0OTWFD","A3DS5B06ZCD3E3","3XUSYT70ITN3RRKBJPNBFGD6FGOD06","","<img src=""img/set1/S3.jpg"" width=""540"" height = ""360"">","null","","","","","","","",""
"null","","html-keyboard-response","181","188305","0.0-110.0","3LOTDFNYA8LVJLXMU4GOZULH0OTWFD","A3DS5B06ZCD3E3","3XUSYT70ITN3RRKBJPNBFGD6FGOD06","","","null","","","","","","","",""
"964.3000000119209","","image-keyboard-response","182","189270","0.0-111.0","3LOTDFNYA8LVJLXMU4GOZULH0OTWFD","A3DS5B06ZCD3E3","3XUSYT70ITN3RRKBJPNBFGD6FGOD06","","img/set1/S2.jpg","68","2","random","68","true","random,structured_incentive,structured_normal","1,2,2,3","",""
"null","","html-keyboard-response","183","189628","0.0-112.0","3LOTDFNYA8LVJLXMU4GOZULH0OTWFD","A3DS5B06ZCD3E3","3XUSYT70ITN3RRKBJPNBFGD6FGOD06","","<img src=""img/set1/S2.jpg"" width=""540"" height = ""360"" style=""border:16px solid orange"">","null","","","","","","","",""
"null","","html-keyboard-response","184","189631","0.0-113.0","3LOTDFNYA8LVJLXMU4GOZULH0OTWFD","A3DS5B06ZCD3E3","3XUSYT70ITN3RRKBJPNBFGD6FGOD06","","","null","","","","","","","",""
"820.3999999761581","","image-keyboard-response","185","190454","0.0-114.0","3LOTDFNYA8LVJLXMU4GOZULH0OTWFD","A3DS5B06ZCD3E3","3XUSYT70ITN3RRKBJPNBFGD6FGOD06","","img/set1/S2.jpg","68","2","random","68","true","random,structured_incentive,structured_normal","1,2,2,3","",""
"null","","html-keyboard-response","186","190819","0.0-115.0","3LOTDFNYA8LVJLXMU4GOZULH0OTWFD","A3DS5B06ZCD3E3","3XUSYT70ITN3RRKBJPNBFGD6FGOD06","","<img src=""img/set1/S2.jpg"" width=""540"" height = ""360"" style=""border:16px solid orange"">","null","","","","","","","",""
"null","","html-keyboard-response","187","190821","0.0-116.0","3LOTDFNYA8LVJLXMU4GOZULH0OTWFD","A3DS5B06ZCD3E3","3XUSYT70ITN3RRKBJPNBFGD6FGOD06","","","null","","","","","","","",""
"639.1999999880791","","image-keyboard-response","188","191462","0.0-117.0","3LOTDFNYA8LVJLXMU4GOZULH0OTWFD","A3DS5B06ZCD3E3","3XUSYT70ITN3RRKBJPNBFGD6FGOD06","","img/set1/S2.jpg","68","2","random","68","true","random,structured_incentive,structured_normal","1,2,2,3","",""
"null","","html-keyboard-response","189","191824","0.0-118.0","3LOTDFNYA8LVJLXMU4GOZULH0OTWFD","A3DS5B06ZCD3E3","3XUSYT70ITN3RRKBJPNBFGD6FGOD06","","<img src=""img/set1/S2.jpg"" width=""540"" height = ""360"" style=""border:16px solid orange"">","null","","","","","","","",""
"null","","html-keyboard-response","190","191827","0.0-119.0","3LOTDFNYA8LVJLXMU4GOZULH0OTWFD","A3DS5B06ZCD3E3","3XUSYT70ITN3RRKBJPNBFGD6FGOD06","","","null","","","","","","","",""
"1137.699999988079","","image-keyboard-response","191","192966","0.0-120.0","3LOTDFNYA8LVJLXMU4GOZULH0OTWFD","A3DS5B06ZCD3E3","3XUSYT70ITN3RRKBJPNBFGD6FGOD06","","img/set1/S4.jpg","74","4","random","74","true","random,structured_incentive,structured_normal","1,2,2,3","",""
"null","","html-keyboard-response","192","193327","0.0-121.0","3LOTDFNYA8LVJLXMU4GOZULH0OTWFD","A3DS5B06ZCD3E3","3XUSYT70ITN3RRKBJPNBFGD6FGOD06","","<img src=""img/set1/S4.jpg"" width=""540"" height = ""360"" style=""border:16px solid orange"">","null","","","","","","","",""
"null","","html-keyboard-response","193","193331","0.0-122.0","3LOTDFNYA8LVJLXMU4GOZULH0OTWFD","A3DS5B06ZCD3E3","3XUSYT70ITN3RRKBJPNBFGD6FGOD06","","","null","","","","","","","",""
"1041.199999988079","","image-keyboard-response","194","194374","0.0-123.0","3LOTDFNYA8LVJLXMU4GOZULH0OTWFD","A3DS5B06ZCD3E3","3XUSYT70ITN3RRKBJPNBFGD6FGOD06","","img/set1/S1.jpg","72","1","random","83","false","random,structured_incentive,structured_normal","1,2,2,3","",""
"null","","html-keyboard-response","195","194739","0.0-124.0","3LOTDFNYA8LVJLXMU4GOZULH0OTWFD","A3DS5B06ZCD3E3","3XUSYT70ITN3RRKBJPNBFGD6FGOD06","","<img src=""img/set1/S1.jpg"" width=""540"" height = ""360"">","null","","","","","","","",""
"null","","html-keyboard-response","196","194741","0.0-125.0","3LOTDFNYA8LVJLXMU4GOZULH0OTWFD","A3DS5B06ZCD3E3","3XUSYT70ITN3RRKBJPNBFGD6FGOD06","","","null","","","","","","","",""
"959.5","","image-keyboard-response","197","195702","0.0-126.0","3LOTDFNYA8LVJLXMU4GOZULH0OTWFD","A3DS5B06ZCD3E3","3XUSYT70ITN3RRKBJPNBFGD6FGOD06","","img/set1/S2.jpg","68","2","random","68","true","random,structured_incentive,structured_normal","1,2,2,3","",""
"null","","html-keyboard-response","198","196065","0.0-127.0","3LOTDFNYA8LVJLXMU4GOZULH0OTWFD","A3DS5B06ZCD3E3","3XUSYT70ITN3RRKBJPNBFGD6FGOD06","","<img src=""img/set1/S2.jpg"" width=""540"" height = ""360"" style=""border:16px solid orange"">","null","","","","","","","",""
"null","","html-keyboard-response","199","196069","0.0-128.0","3LOTDFNYA8LVJLXMU4GOZULH0OTWFD","A3DS5B06ZCD3E3","3XUSYT70ITN3RRKBJPNBFGD6FGOD06","","","null","","","","","","","",""
"1248","","image-keyboard-response","200","197319","0.0-129.0","3LOTDFNYA8LVJLXMU4GOZULH0OTWFD","A3DS5B06ZCD3E3","3XUSYT70ITN3RRKBJPNBFGD6FGOD06","","img/set1/S4.jpg","74","4","random","74","true","random,structured_incentive,structured_normal","1,2,2,3","",""
"null","","html-keyboard-response","201","197679","0.0-130.0","3LOTDFNYA8LVJLXMU4GOZULH0OTWFD","A3DS5B06ZCD3E3","3XUSYT70ITN3RRKBJPNBFGD6FGOD06","","<img src=""img/set1/S4.jpg"" width=""540"" height = ""360"" style=""border:16px solid orange"">","null","","","","","","","",""
"null","","html-keyboard-response","202","197682","0.0-131.0","3LOTDFNYA8LVJLXMU4GOZULH0OTWFD","A3DS5B06ZCD3E3","3XUSYT70ITN3RRKBJPNBFGD6FGOD06","","","null","","","","","","","",""
"497.89999997615814","","image-keyboard-response","203","198182","0.0-132.0","3LOTDFNYA8LVJLXMU4GOZULH0OTWFD","A3DS5B06ZCD3E3","3XUSYT70ITN3RRKBJPNBFGD6FGOD06","","img/set1/S4.jpg","74","4","random","74","true","random,structured_incentive,structured_normal","1,2,2,3","",""
"null","","html-keyboard-response","204","198536","0.0-133.0","3LOTDFNYA8LVJLXMU4GOZULH0OTWFD","A3DS5B06ZCD3E3","3XUSYT70ITN3RRKBJPNBFGD6FGOD06","","<img src=""img/set1/S4.jpg"" width=""540"" height = ""360"" style=""border:16px solid orange"">","null","","","","","","","",""
"null","","html-keyboard-response","205","198539","0.0-134.0","3LOTDFNYA8LVJLXMU4GOZULH0OTWFD","A3DS5B06ZCD3E3","3XUSYT70ITN3RRKBJPNBFGD6FGOD06","","","null","","","","","","","",""
"1435.5","","image-keyboard-response","206","199975","0.0-135.0","3LOTDFNYA8LVJLXMU4GOZULH0OTWFD","A3DS5B06ZCD3E3","3XUSYT70ITN3RRKBJPNBFGD6FGOD06","","img/set1/S1.jpg","68","1","random","83","false","random,structured_incentive,structured_normal","1,2,2,3","",""
"null","","html-keyboard-response","207","200338","0.0-136.0","3LOTDFNYA8LVJLXMU4GOZULH0OTWFD","A3DS5B06ZCD3E3","3XUSYT70ITN3RRKBJPNBFGD6FGOD06","","<img src=""img/set1/S1.jpg"" width=""540"" height = ""360"">","null","","","","","","","",""
"null","","html-keyboard-response","208","200341","0.0-137.0","3LOTDFNYA8LVJLXMU4GOZULH0OTWFD","A3DS5B06ZCD3E3","3XUSYT70ITN3RRKBJPNBFGD6FGOD06","","","null","","","","","","","",""
"144.30000001192093","","image-keyboard-response","209","200485","0.0-138.0","3LOTDFNYA8LVJLXMU4GOZULH0OTWFD","A3DS5B06ZCD3E3","3XUSYT70ITN3RRKBJPNBFGD6FGOD06","","img/set1/S4.jpg","83","4","random","74","false","random,structured_incentive,structured_normal","1,2,2,3","",""
"null","","html-keyboard-response","210","200843","0.0-139.0","3LOTDFNYA8LVJLXMU4GOZULH0OTWFD","A3DS5B06ZCD3E3","3XUSYT70ITN3RRKBJPNBFGD6FGOD06","","<img src=""img/set1/S4.jpg"" width=""540"" height = ""360"">","null","","","","","","","",""
"null","","html-keyboard-response","211","200847","0.0-140.0","3LOTDFNYA8LVJLXMU4GOZULH0OTWFD","A3DS5B06ZCD3E3","3XUSYT70ITN3RRKBJPNBFGD6FGOD06","","","null","","","","","","","",""
"758.8000000119209","","image-keyboard-response","212","201607","0.0-141.0","3LOTDFNYA8LVJLXMU4GOZULH0OTWFD","A3DS5B06ZCD3E3","3XUSYT70ITN3RRKBJPNBFGD6FGOD06","","img/set1/S1.jpg","83","1","random","83","true","random,structured_incentive,structured_normal","1,2,2,3","",""
"null","","html-keyboard-response","213","201975","0.0-142.0","3LOTDFNYA8LVJLXMU4GOZULH0OTWFD","A3DS5B06ZCD3E3","3XUSYT70ITN3RRKBJPNBFGD6FGOD06","","<img src=""img/set1/S1.jpg"" width=""540"" height = ""360"" style=""border:16px solid orange"">","null","","","","","","","",""
"null","","html-keyboard-response","214","201977","0.0-143.0","3LOTDFNYA8LVJLXMU4GOZULH0OTWFD","A3DS5B06ZCD3E3","3XUSYT70ITN3RRKBJPNBFGD6FGOD06","","","null","","","","","","","",""
"1436","","image-keyboard-response","215","203414","0.0-144.0","3LOTDFNYA8LVJLXMU4GOZULH0OTWFD","A3DS5B06ZCD3E3","3XUSYT70ITN3RRKBJPNBFGD6FGOD06","","img/set1/S3.jpg","72","3","random","72","true","random,structured_incentive,structured_normal","1,2,2,3","",""
"null","","html-keyboard-response","216","203775","0.0-145.0","3LOTDFNYA8LVJLXMU4GOZULH0OTWFD","A3DS5B06ZCD3E3","3XUSYT70ITN3RRKBJPNBFGD6FGOD06","","<img src=""img/set1/S3.jpg"" width=""540"" height = ""360"" style=""border:16px solid orange"">","null","","","","","","","",""
"null","","html-keyboard-response","217","203777","0.0-146.0","3LOTDFNYA8LVJLXMU4GOZULH0OTWFD","A3DS5B06ZCD3E3","3XUSYT70ITN3RRKBJPNBFGD6FGOD06","","","null","","","","","","","",""
"770.8000000119209","","image-keyboard-response","218","204550","0.0-147.0","3LOTDFNYA8LVJLXMU4GOZULH0OTWFD","A3DS5B06ZCD3E3","3XUSYT70ITN3RRKBJPNBFGD6FGOD06","","img/set1/S2.jpg","68","2","random","68","true","random,structured_incentive,structured_normal","1,2,2,3","",""
"null","","html-keyboard-response","219","204909","0.0-148.0","3LOTDFNYA8LVJLXMU4GOZULH0OTWFD","A3DS5B06ZCD3E3","3XUSYT70ITN3RRKBJPNBFGD6FGOD06","","<img src=""img/set1/S2.jpg"" width=""540"" height = ""360"" style=""border:16px solid orange"">","null","","","","","","","",""
"null","","html-keyboard-response","220","204911","0.0-149.0","3LOTDFNYA8LVJLXMU4GOZULH0OTWFD","A3DS5B06ZCD3E3","3XUSYT70ITN3RRKBJPNBFGD6FGOD06","","","null","","","","","","","",""
"997.8999999761581","","image-keyboard-response","221","205911","0.0-150.0","3LOTDFNYA8LVJLXMU4GOZULH0OTWFD","A3DS5B06ZCD3E3","3XUSYT70ITN3RRKBJPNBFGD6FGOD06","","img/set1/S4.jpg","74","4","random","74","true","random,structured_incentive,structured_normal","1,2,2,3","",""
"null","","html-keyboard-response","222","206267","0.0-151.0","3LOTDFNYA8LVJLXMU4GOZULH0OTWFD","A3DS5B06ZCD3E3","3XUSYT70ITN3RRKBJPNBFGD6FGOD06","","<img src=""img/set1/S4.jpg"" width=""540"" height = ""360"" style=""border:16px solid orange"">","null","","","","","","","",""
"null","","html-keyboard-response","223","206270","0.0-152.0","3LOTDFNYA8LVJLXMU4GOZULH0OTWFD","A3DS5B06ZCD3E3","3XUSYT70ITN3RRKBJPNBFGD6FGOD06","","","null","","","","","","","",""
"790.4000000357628","","image-keyboard-response","224","207062","0.0-153.0","3LOTDFNYA8LVJLXMU4GOZULH0OTWFD","A3DS5B06ZCD3E3","3XUSYT70ITN3RRKBJPNBFGD6FGOD06","","img/set1/S1.jpg","83","1","random","83","true","random,structured_incentive,structured_normal","1,2,2,3","",""
"null","","html-keyboard-response","225","207416","0.0-154.0","3LOTDFNYA8LVJLXMU4GOZULH0OTWFD","A3DS5B06ZCD3E3","3XUSYT70ITN3RRKBJPNBFGD6FGOD06","","<img src=""img/set1/S1.jpg"" width=""540"" height = ""360"" style=""border:16px solid orange"">","null","","","","","","","",""
"null","","html-keyboard-response","226","207419","0.0-155.0","3LOTDFNYA8LVJLXMU4GOZULH0OTWFD","A3DS5B06ZCD3E3","3XUSYT70ITN3RRKBJPNBFGD6FGOD06","","","null","","","","","","","",""
"826.3000000119209","","image-keyboard-response","227","208246","0.0-156.0","3LOTDFNYA8LVJLXMU4GOZULH0OTWFD","A3DS5B06ZCD3E3","3XUSYT70ITN3RRKBJPNBFGD6FGOD06","","img/set1/S2.jpg","68","2","random","68","true","random,structured_incentive,structured_normal","1,2,2,3","",""
"null","","html-keyboard-response","228","208602","0.0-157.0","3LOTDFNYA8LVJLXMU4GOZULH0OTWFD","A3DS5B06ZCD3E3","3XUSYT70ITN3RRKBJPNBFGD6FGOD06","","<img src=""img/set1/S2.jpg"" width=""540"" height = ""360"" style=""border:16px solid orange"">","null","","","","","","","",""
"null","","html-keyboard-response","229","208605","0.0-158.0","3LOTDFNYA8LVJLXMU4GOZULH0OTWFD","A3DS5B06ZCD3E3","3XUSYT70ITN3RRKBJPNBFGD6FGOD06","","","null","","","","","","","",""
"569","","image-keyboard-response","230","209175","0.0-159.0","3LOTDFNYA8LVJLXMU4GOZULH0OTWFD","A3DS5B06ZCD3E3","3XUSYT70ITN3RRKBJPNBFGD6FGOD06","","img/set1/S2.jpg","68","2","random","68","true","random,structured_incentive,structured_normal","1,2,2,3","",""
"null","","html-keyboard-response","231","209541","0.0-160.0","3LOTDFNYA8LVJLXMU4GOZULH0OTWFD","A3DS5B06ZCD3E3","3XUSYT70ITN3RRKBJPNBFGD6FGOD06","","<img src=""img/set1/S2.jpg"" width=""540"" height = ""360"" style=""border:16px solid orange"">","null","","","","","","","",""
"null","","html-keyboard-response","232","209544","0.0-161.0","3LOTDFNYA8LVJLXMU4GOZULH0OTWFD","A3DS5B06ZCD3E3","3XUSYT70ITN3RRKBJPNBFGD6FGOD06","","","null","","","","","","","",""
"799.2000000476837","","image-keyboard-response","233","210344","0.0-162.0","3LOTDFNYA8LVJLXMU4GOZULH0OTWFD","A3DS5B06ZCD3E3","3XUSYT70ITN3RRKBJPNBFGD6FGOD06","","img/set1/S4.jpg","72","4","random","74","false","random,structured_incentive,structured_normal","1,2,2,3","",""
"null","","html-keyboard-response","234","210697","0.0-163.0","3LOTDFNYA8LVJLXMU4GOZULH0OTWFD","A3DS5B06ZCD3E3","3XUSYT70ITN3RRKBJPNBFGD6FGOD06","","<img src=""img/set1/S4.jpg"" width=""540"" height = ""360"">","null","","","","","","","",""
"null","","html-keyboard-response","235","210699","0.0-164.0","3LOTDFNYA8LVJLXMU4GOZULH0OTWFD","A3DS5B06ZCD3E3","3XUSYT70ITN3RRKBJPNBFGD6FGOD06","","","null","","","","","","","",""
"747.2999999523163","","image-keyboard-response","236","211448","0.0-165.0","3LOTDFNYA8LVJLXMU4GOZULH0OTWFD","A3DS5B06ZCD3E3","3XUSYT70ITN3RRKBJPNBFGD6FGOD06","","img/set1/S2.jpg","68","2","random","68","true","random,structured_incentive,structured_normal","1,2,2,3","",""
"null","","html-keyboard-response","237","211806","0.0-166.0","3LOTDFNYA8LVJLXMU4GOZULH0OTWFD","A3DS5B06ZCD3E3","3XUSYT70ITN3RRKBJPNBFGD6FGOD06","","<img src=""img/set1/S2.jpg"" width=""540"" height = ""360"" style=""border:16px solid orange"">","null","","","","","","","",""
"null","","html-keyboard-response","238","211809","0.0-167.0","3LOTDFNYA8LVJLXMU4GOZULH0OTWFD","A3DS5B06ZCD3E3","3XUSYT70ITN3RRKBJPNBFGD6FGOD06","","","null","","","","","","","",""
"644","","image-keyboard-response","239","212454","0.0-168.0","3LOTDFNYA8LVJLXMU4GOZULH0OTWFD","A3DS5B06ZCD3E3","3XUSYT70ITN3RRKBJPNBFGD6FGOD06","","img/set1/S2.jpg","68","2","random","68","true","random,structured_incentive,structured_normal","1,2,2,3","",""
"null","","html-keyboard-response","240","212813","0.0-169.0","3LOTDFNYA8LVJLXMU4GOZULH0OTWFD","A3DS5B06ZCD3E3","3XUSYT70ITN3RRKBJPNBFGD6FGOD06","","<img src=""img/set1/S2.jpg"" width=""540"" height = ""360"" style=""border:16px solid orange"">","null","","","","","","","",""
"null","","html-keyboard-response","241","212816","0.0-170.0","3LOTDFNYA8LVJLXMU4GOZULH0OTWFD","A3DS5B06ZCD3E3","3XUSYT70ITN3RRKBJPNBFGD6FGOD06","","","null","","","","","","","",""
"1445.4000000357628","","image-keyboard-response","242","214263","0.0-171.0","3LOTDFNYA8LVJLXMU4GOZULH0OTWFD","A3DS5B06ZCD3E3","3XUSYT70ITN3RRKBJPNBFGD6FGOD06","","img/set1/S4.jpg","74","4","random","74","true","random,structured_incentive,structured_normal","1,2,2,3","",""
"null","","html-keyboard-response","243","214625","0.0-172.0","3LOTDFNYA8LVJLXMU4GOZULH0OTWFD","A3DS5B06ZCD3E3","3XUSYT70ITN3RRKBJPNBFGD6FGOD06","","<img src=""img/set1/S4.jpg"" width=""540"" height = ""360"" style=""border:16px solid orange"">","null","","","","","","","",""
"null","","html-keyboard-response","244","214627","0.0-173.0","3LOTDFNYA8LVJLXMU4GOZULH0OTWFD","A3DS5B06ZCD3E3","3XUSYT70ITN3RRKBJPNBFGD6FGOD06","","","null","","","","","","","",""
"704.3999999761581","","image-keyboard-response","245","215334","0.0-174.0","3LOTDFNYA8LVJLXMU4GOZULH0OTWFD","A3DS5B06ZCD3E3","3XUSYT70ITN3RRKBJPNBFGD6FGOD06","","img/set1/S1.jpg","83","1","random","83","true","random,structured_incentive,structured_normal","1,2,2,3","",""
"null","","html-keyboard-response","246","215697","0.0-175.0","3LOTDFNYA8LVJLXMU4GOZULH0OTWFD","A3DS5B06ZCD3E3","3XUSYT70ITN3RRKBJPNBFGD6FGOD06","","<img src=""img/set1/S1.jpg"" width=""540"" height = ""360"" style=""border:16px solid orange"">","null","","","","","","","",""
"null","","html-keyboard-response","247","215699","0.0-176.0","3LOTDFNYA8LVJLXMU4GOZULH0OTWFD","A3DS5B06ZCD3E3","3XUSYT70ITN3RRKBJPNBFGD6FGOD06","","","null","","","","","","","",""
"946.3999999761581","","image-keyboard-response","248","216647","0.0-177.0","3LOTDFNYA8LVJLXMU4GOZULH0OTWFD","A3DS5B06ZCD3E3","3XUSYT70ITN3RRKBJPNBFGD6FGOD06","","img/set1/S4.jpg","74","4","random","74","true","random,structured_incentive,structured_normal","1,2,2,3","",""
"null","","html-keyboard-response","249","217013","0.0-178.0","3LOTDFNYA8LVJLXMU4GOZULH0OTWFD","A3DS5B06ZCD3E3","3XUSYT70ITN3RRKBJPNBFGD6FGOD06","","<img src=""img/set1/S4.jpg"" width=""540"" height = ""360"" style=""border:16px solid orange"">","null","","","","","","","",""
"null","","html-keyboard-response","250","217016","0.0-179.0","3LOTDFNYA8LVJLXMU4GOZULH0OTWFD","A3DS5B06ZCD3E3","3XUSYT70ITN3RRKBJPNBFGD6FGOD06","","","null","","","","","","","",""
"1195.6000000238419","","image-keyboard-response","251","218215","0.0-180.0","3LOTDFNYA8LVJLXMU4GOZULH0OTWFD","A3DS5B06ZCD3E3","3XUSYT70ITN3RRKBJPNBFGD6FGOD06","","img/set1/S3.jpg","72","3","random","72","true","random,structured_incentive,structured_normal","1,2,2,3","",""
"null","","html-keyboard-response","252","218586","0.0-181.0","3LOTDFNYA8LVJLXMU4GOZULH0OTWFD","A3DS5B06ZCD3E3","3XUSYT70ITN3RRKBJPNBFGD6FGOD06","","<img src=""img/set1/S3.jpg"" width=""540"" height = ""360"" style=""border:16px solid orange"">","null","","","","","","","",""
"null","","html-keyboard-response","253","218589","0.0-182.0","3LOTDFNYA8LVJLXMU4GOZULH0OTWFD","A3DS5B06ZCD3E3","3XUSYT70ITN3RRKBJPNBFGD6FGOD06","","","null","","","","","","","",""
"712.4000000357628","","image-keyboard-response","254","219302","0.0-183.0","3LOTDFNYA8LVJLXMU4GOZULH0OTWFD","A3DS5B06ZCD3E3","3XUSYT70ITN3RRKBJPNBFGD6FGOD06","","img/set1/S4.jpg","74","4","random","74","true","random,structured_incentive,structured_normal","1,2,2,3","",""
"null","","html-keyboard-response","255","219656","0.0-184.0","3LOTDFNYA8LVJLXMU4GOZULH0OTWFD","A3DS5B06ZCD3E3","3XUSYT70ITN3RRKBJPNBFGD6FGOD06","","<img src=""img/set1/S4.jpg"" width=""540"" height = ""360"" style=""border:16px solid orange"">","null","","","","","","","",""
"null","","html-keyboard-response","256","219660","0.0-185.0","3LOTDFNYA8LVJLXMU4GOZULH0OTWFD","A3DS5B06ZCD3E3","3XUSYT70ITN3RRKBJPNBFGD6FGOD06","","","null","","","","","","","",""
"473","","image-keyboard-response","257","220134","0.0-186.0","3LOTDFNYA8LVJLXMU4GOZULH0OTWFD","A3DS5B06ZCD3E3","3XUSYT70ITN3RRKBJPNBFGD6FGOD06","","img/set1/S3.jpg","72","3","random","72","true","random,structured_incentive,structured_normal","1,2,2,3","",""
"null","","html-keyboard-response","258","220496","0.0-187.0","3LOTDFNYA8LVJLXMU4GOZULH0OTWFD","A3DS5B06ZCD3E3","3XUSYT70ITN3RRKBJPNBFGD6FGOD06","","<img src=""img/set1/S3.jpg"" width=""540"" height = ""360"" style=""border:16px solid orange"">","null","","","","","","","",""
"null","","html-keyboard-response","259","220499","0.0-188.0","3LOTDFNYA8LVJLXMU4GOZULH0OTWFD","A3DS5B06ZCD3E3","3XUSYT70ITN3RRKBJPNBFGD6FGOD06","","","null","","","","","","","",""
"451.39999997615814","","image-keyboard-response","260","220952","0.0-189.0","3LOTDFNYA8LVJLXMU4GOZULH0OTWFD","A3DS5B06ZCD3E3","3XUSYT70ITN3RRKBJPNBFGD6FGOD06","","img/set1/S4.jpg","74","4","random","74","true","random,structured_incentive,structured_normal","1,2,2,3","",""
"null","","html-keyboard-response","261","221318","0.0-190.0","3LOTDFNYA8LVJLXMU4GOZULH0OTWFD","A3DS5B06ZCD3E3","3XUSYT70ITN3RRKBJPNBFGD6FGOD06","","<img src=""img/set1/S4.jpg"" width=""540"" height = ""360"" style=""border:16px solid orange"">","null","","","","","","","",""
"null","","html-keyboard-response","262","221322","0.0-191.0","3LOTDFNYA8LVJLXMU4GOZULH0OTWFD","A3DS5B06ZCD3E3","3XUSYT70ITN3RRKBJPNBFGD6FGOD06","","","null","","","","","","","",""
"682.5","","image-keyboard-response","263","222006","0.0-192.0","3LOTDFNYA8LVJLXMU4GOZULH0OTWFD","A3DS5B06ZCD3E3","3XUSYT70ITN3RRKBJPNBFGD6FGOD06","","img/set1/S2.jpg","68","2","random","68","true","random,structured_incentive,structured_normal","1,2,2,3","",""
"null","","html-keyboard-response","264","222367","0.0-193.0","3LOTDFNYA8LVJLXMU4GOZULH0OTWFD","A3DS5B06ZCD3E3","3XUSYT70ITN3RRKBJPNBFGD6FGOD06","","<img src=""img/set1/S2.jpg"" width=""540"" height = ""360"" style=""border:16px solid orange"">","null","","","","","","","",""
"null","","html-keyboard-response","265","222369","0.0-194.0","3LOTDFNYA8LVJLXMU4GOZULH0OTWFD","A3DS5B06ZCD3E3","3XUSYT70ITN3RRKBJPNBFGD6FGOD06","","","null","","","","","","","",""
"770.6999999880791","","image-keyboard-response","266","223142","0.0-195.0","3LOTDFNYA8LVJLXMU4GOZULH0OTWFD","A3DS5B06ZCD3E3","3XUSYT70ITN3RRKBJPNBFGD6FGOD06","","img/set1/S4.jpg","74","4","random","74","true","random,structured_incentive,structured_normal","1,2,2,3","",""
"null","","html-keyboard-response","267","223496","0.0-196.0","3LOTDFNYA8LVJLXMU4GOZULH0OTWFD","A3DS5B06ZCD3E3","3XUSYT70ITN3RRKBJPNBFGD6FGOD06","","<img src=""img/set1/S4.jpg"" width=""540"" height = ""360"" style=""border:16px solid orange"">","null","","","","","","","",""
"null","","html-keyboard-response","268","223498","0.0-197.0","3LOTDFNYA8LVJLXMU4GOZULH0OTWFD","A3DS5B06ZCD3E3","3XUSYT70ITN3RRKBJPNBFGD6FGOD06","","","null","","","","","","","",""
"458.10000002384186","","image-keyboard-response","269","223958","0.0-198.0","3LOTDFNYA8LVJLXMU4GOZULH0OTWFD","A3DS5B06ZCD3E3","3XUSYT70ITN3RRKBJPNBFGD6FGOD06","","img/set1/S4.jpg","74","4","random","74","true","random,structured_incentive,structured_normal","1,2,2,3","",""
"null","","html-keyboard-response","270","224315","0.0-199.0","3LOTDFNYA8LVJLXMU4GOZULH0OTWFD","A3DS5B06ZCD3E3","3XUSYT70ITN3RRKBJPNBFGD6FGOD06","","<img src=""img/set1/S4.jpg"" width=""540"" height = ""360"" style=""border:16px solid orange"">","null","","","","","","","",""
"null","","html-keyboard-response","271","224318","0.0-200.0","3LOTDFNYA8LVJLXMU4GOZULH0OTWFD","A3DS5B06ZCD3E3","3XUSYT70ITN3RRKBJPNBFGD6FGOD06","","","null","","","","","","","",""
"455.19999998807907","","image-keyboard-response","272","224774","0.0-201.0","3LOTDFNYA8LVJLXMU4GOZULH0OTWFD","A3DS5B06ZCD3E3","3XUSYT70ITN3RRKBJPNBFGD6FGOD06","","img/set1/S4.jpg","74","4","random","74","true","random,structured_incentive,structured_normal","1,2,2,3","",""
"null","","html-keyboard-response","273","225129","0.0-202.0","3LOTDFNYA8LVJLXMU4GOZULH0OTWFD","A3DS5B06ZCD3E3","3XUSYT70ITN3RRKBJPNBFGD6FGOD06","","<img src=""img/set1/S4.jpg"" width=""540"" height = ""360"" style=""border:16px solid orange"">","null","","","","","","","",""
"null","","html-keyboard-response","274","225131","0.0-203.0","3LOTDFNYA8LVJLXMU4GOZULH0OTWFD","A3DS5B06ZCD3E3","3XUSYT70ITN3RRKBJPNBFGD6FGOD06","","","null","","","","","","","",""
"778.0999999642372","","image-keyboard-response","275","225911","0.0-204.0","3LOTDFNYA8LVJLXMU4GOZULH0OTWFD","A3DS5B06ZCD3E3","3XUSYT70ITN3RRKBJPNBFGD6FGOD06","","img/set1/S3.jpg","72","3","random","72","true","random,structured_incentive,structured_normal","1,2,2,3","",""
"null","","html-keyboard-response","276","226277","0.0-205.0","3LOTDFNYA8LVJLXMU4GOZULH0OTWFD","A3DS5B06ZCD3E3","3XUSYT70ITN3RRKBJPNBFGD6FGOD06","","<img src=""img/set1/S3.jpg"" width=""540"" height = ""360"" style=""border:16px solid orange"">","null","","","","","","","",""
"null","","html-keyboard-response","277","226280","0.0-206.0","3LOTDFNYA8LVJLXMU4GOZULH0OTWFD","A3DS5B06ZCD3E3","3XUSYT70ITN3RRKBJPNBFGD6FGOD06","","","null","","","","","","","",""
"604.1999999880791","","image-keyboard-response","278","226886","0.0-207.0","3LOTDFNYA8LVJLXMU4GOZULH0OTWFD","A3DS5B06ZCD3E3","3XUSYT70ITN3RRKBJPNBFGD6FGOD06","","img/set1/S2.jpg","68","2","random","68","true","random,structured_incentive,structured_normal","1,2,2,3","",""
"null","","html-keyboard-response","279","227249","0.0-208.0","3LOTDFNYA8LVJLXMU4GOZULH0OTWFD","A3DS5B06ZCD3E3","3XUSYT70ITN3RRKBJPNBFGD6FGOD06","","<img src=""img/set1/S2.jpg"" width=""540"" height = ""360"" style=""border:16px solid orange"">","null","","","","","","","",""
"null","","html-keyboard-response","280","227252","0.0-209.0","3LOTDFNYA8LVJLXMU4GOZULH0OTWFD","A3DS5B06ZCD3E3","3XUSYT70ITN3RRKBJPNBFGD6FGOD06","","","null","","","","","","","",""
"626","","image-keyboard-response","281","227879","0.0-210.0","3LOTDFNYA8LVJLXMU4GOZULH0OTWFD","A3DS5B06ZCD3E3","3XUSYT70ITN3RRKBJPNBFGD6FGOD06","","img/set1/S1.jpg","83","1","random","83","true","random,structured_incentive,structured_normal","1,2,2,3","",""
"null","","html-keyboard-response","282","228240","0.0-211.0","3LOTDFNYA8LVJLXMU4GOZULH0OTWFD","A3DS5B06ZCD3E3","3XUSYT70ITN3RRKBJPNBFGD6FGOD06","","<img src=""img/set1/S1.jpg"" width=""540"" height = ""360"" style=""border:16px solid orange"">","null","","","","","","","",""
"null","","html-keyboard-response","283","228242","0.0-212.0","3LOTDFNYA8LVJLXMU4GOZULH0OTWFD","A3DS5B06ZCD3E3","3XUSYT70ITN3RRKBJPNBFGD6FGOD06","","","null","","","","","","","",""
"1347.300000011921","","image-keyboard-response","284","229591","0.0-213.0","3LOTDFNYA8LVJLXMU4GOZULH0OTWFD","A3DS5B06ZCD3E3","3XUSYT70ITN3RRKBJPNBFGD6FGOD06","","img/set1/S3.jpg","72","3","random","72","true","random,structured_incentive,structured_normal","1,2,2,3","",""
"null","","html-keyboard-response","285","229958","0.0-214.0","3LOTDFNYA8LVJLXMU4GOZULH0OTWFD","A3DS5B06ZCD3E3","3XUSYT70ITN3RRKBJPNBFGD6FGOD06","","<img src=""img/set1/S3.jpg"" width=""540"" height = ""360"" style=""border:16px solid orange"">","null","","","","","","","",""
"null","","html-keyboard-response","286","229961","0.0-215.0","3LOTDFNYA8LVJLXMU4GOZULH0OTWFD","A3DS5B06ZCD3E3","3XUSYT70ITN3RRKBJPNBFGD6FGOD06","","","null","","","","","","","",""
"844.3999999761581","","image-keyboard-response","287","230806","0.0-216.0","3LOTDFNYA8LVJLXMU4GOZULH0OTWFD","A3DS5B06ZCD3E3","3XUSYT70ITN3RRKBJPNBFGD6FGOD06","","img/set1/S1.jpg","83","1","random","83","true","random,structured_incentive,structured_normal","1,2,2,3","",""
"null","","html-keyboard-response","288","231166","0.0-217.0","3LOTDFNYA8LVJLXMU4GOZULH0OTWFD","A3DS5B06ZCD3E3","3XUSYT70ITN3RRKBJPNBFGD6FGOD06","","<img src=""img/set1/S1.jpg"" width=""540"" height = ""360"" style=""border:16px solid orange"">","null","","","","","","","",""
"null","","html-keyboard-response","289","231169","0.0-218.0","3LOTDFNYA8LVJLXMU4GOZULH0OTWFD","A3DS5B06ZCD3E3","3XUSYT70ITN3RRKBJPNBFGD6FGOD06","","","null","","","","","","","",""
"1300","","image-keyboard-response","290","232470","0.0-219.0","3LOTDFNYA8LVJLXMU4GOZULH0OTWFD","A3DS5B06ZCD3E3","3XUSYT70ITN3RRKBJPNBFGD6FGOD06","","img/set1/S4.jpg","74","4","random","74","true","random,structured_incentive,structured_normal","1,2,2,3","",""
"null","","html-keyboard-response","291","232832","0.0-220.0","3LOTDFNYA8LVJLXMU4GOZULH0OTWFD","A3DS5B06ZCD3E3","3XUSYT70ITN3RRKBJPNBFGD6FGOD06","","<img src=""img/set1/S4.jpg"" width=""540"" height = ""360"" style=""border:16px solid orange"">","null","","","","","","","",""
"null","","html-keyboard-response","292","232834","0.0-221.0","3LOTDFNYA8LVJLXMU4GOZULH0OTWFD","A3DS5B06ZCD3E3","3XUSYT70ITN3RRKBJPNBFGD6FGOD06","","","null","","","","","","","",""
"851.3000000119209","","image-keyboard-response","293","233687","0.0-222.0","3LOTDFNYA8LVJLXMU4GOZULH0OTWFD","A3DS5B06ZCD3E3","3XUSYT70ITN3RRKBJPNBFGD6FGOD06","","img/set1/S3.jpg","68","3","random","72","false","random,structured_incentive,structured_normal","1,2,2,3","",""
"null","","html-keyboard-response","294","234056","0.0-223.0","3LOTDFNYA8LVJLXMU4GOZULH0OTWFD","A3DS5B06ZCD3E3","3XUSYT70ITN3RRKBJPNBFGD6FGOD06","","<img src=""img/set1/S3.jpg"" width=""540"" height = ""360"">","null","","","","","","","",""
"null","","html-keyboard-response","295","234059","0.0-224.0","3LOTDFNYA8LVJLXMU4GOZULH0OTWFD","A3DS5B06ZCD3E3","3XUSYT70ITN3RRKBJPNBFGD6FGOD06","","","null","","","","","","","",""
"26.099999964237213","","image-keyboard-response","296","234086","0.0-225.0","3LOTDFNYA8LVJLXMU4GOZULH0OTWFD","A3DS5B06ZCD3E3","3XUSYT70ITN3RRKBJPNBFGD6FGOD06","","img/set1/S2.jpg","72","2","random","68","false","random,structured_incentive,structured_normal","1,2,2,3","",""
"null","","html-keyboard-response","297","234443","0.0-226.0","3LOTDFNYA8LVJLXMU4GOZULH0OTWFD","A3DS5B06ZCD3E3","3XUSYT70ITN3RRKBJPNBFGD6FGOD06","","<img src=""img/set1/S2.jpg"" width=""540"" height = ""360"">","null","","","","","","","",""
"null","","html-keyboard-response","298","234445","0.0-227.0","3LOTDFNYA8LVJLXMU4GOZULH0OTWFD","A3DS5B06ZCD3E3","3XUSYT70ITN3RRKBJPNBFGD6FGOD06","","","null","","","","","","","",""
"776.5","","image-keyboard-response","299","235222","0.0-228.0","3LOTDFNYA8LVJLXMU4GOZULH0OTWFD","A3DS5B06ZCD3E3","3XUSYT70ITN3RRKBJPNBFGD6FGOD06","","img/set1/S1.jpg","83","1","random","83","true","random,structured_incentive,structured_normal","1,2,2,3","",""
"null","","html-keyboard-response","300","235578","0.0-229.0","3LOTDFNYA8LVJLXMU4GOZULH0OTWFD","A3DS5B06ZCD3E3","3XUSYT70ITN3RRKBJPNBFGD6FGOD06","","<img src=""img/set1/S1.jpg"" width=""540"" height = ""360"" style=""border:16px solid orange"">","null","","","","","","","",""
"null","","html-keyboard-response","301","235580","0.0-230.0","3LOTDFNYA8LVJLXMU4GOZULH0OTWFD","A3DS5B06ZCD3E3","3XUSYT70ITN3RRKBJPNBFGD6FGOD06","","","null","","","","","","","",""
"776.8999999761581","","image-keyboard-response","302","236358","0.0-231.0","3LOTDFNYA8LVJLXMU4GOZULH0OTWFD","A3DS5B06ZCD3E3","3XUSYT70ITN3RRKBJPNBFGD6FGOD06","","img/set1/S4.jpg","74","4","random","74","true","random,structured_incentive,structured_normal","1,2,2,3","",""
"null","","html-keyboard-response","303","236715","0.0-232.0","3LOTDFNYA8LVJLXMU4GOZULH0OTWFD","A3DS5B06ZCD3E3","3XUSYT70ITN3RRKBJPNBFGD6FGOD06","","<img src=""img/set1/S4.jpg"" width=""540"" height = ""360"" style=""border:16px solid orange"">","null","","","","","","","",""
"null","","html-keyboard-response","304","236718","0.0-233.0","3LOTDFNYA8LVJLXMU4GOZULH0OTWFD","A3DS5B06ZCD3E3","3XUSYT70ITN3RRKBJPNBFGD6FGOD06","","","null","","","","","","","",""
"599.1999999880791","","image-keyboard-response","305","237318","0.0-234.0","3LOTDFNYA8LVJLXMU4GOZULH0OTWFD","A3DS5B06ZCD3E3","3XUSYT70ITN3RRKBJPNBFGD6FGOD06","","img/set1/S4.jpg","74","4","random","74","true","random,structured_incentive,structured_normal","1,2,2,3","",""
"null","","html-keyboard-response","306","237680","0.0-235.0","3LOTDFNYA8LVJLXMU4GOZULH0OTWFD","A3DS5B06ZCD3E3","3XUSYT70ITN3RRKBJPNBFGD6FGOD06","","<img src=""img/set1/S4.jpg"" width=""540"" height = ""360"" style=""border:16px solid orange"">","null","","","","","","","",""
"null","","html-keyboard-response","307","237682","0.0-236.0","3LOTDFNYA8LVJLXMU4GOZULH0OTWFD","A3DS5B06ZCD3E3","3XUSYT70ITN3RRKBJPNBFGD6FGOD06","","","null","","","","","","","",""
"899.8000000119209","","image-keyboard-response","308","238582","0.0-237.0","3LOTDFNYA8LVJLXMU4GOZULH0OTWFD","A3DS5B06ZCD3E3","3XUSYT70ITN3RRKBJPNBFGD6FGOD06","","img/set1/S1.jpg","83","1","random","83","true","random,structured_incentive,structured_normal","1,2,2,3","",""
"null","","html-keyboard-response","309","238935","0.0-238.0","3LOTDFNYA8LVJLXMU4GOZULH0OTWFD","A3DS5B06ZCD3E3","3XUSYT70ITN3RRKBJPNBFGD6FGOD06","","<img src=""img/set1/S1.jpg"" width=""540"" height = ""360"" style=""border:16px solid orange"">","null","","","","","","","",""
"null","","html-keyboard-response","310","238938","0.0-239.0","3LOTDFNYA8LVJLXMU4GOZULH0OTWFD","A3DS5B06ZCD3E3","3XUSYT70ITN3RRKBJPNBFGD6FGOD06","","","null","","","","","","","",""
"507.5","","image-keyboard-response","311","239447","0.0-240.0","3LOTDFNYA8LVJLXMU4GOZULH0OTWFD","A3DS5B06ZCD3E3","3XUSYT70ITN3RRKBJPNBFGD6FGOD06","","img/set1/S1.jpg","83","1","random","83","true","random,structured_incentive,structured_normal","1,2,2,3","",""
"null","","html-keyboard-response","312","239806","0.0-241.0","3LOTDFNYA8LVJLXMU4GOZULH0OTWFD","A3DS5B06ZCD3E3","3XUSYT70ITN3RRKBJPNBFGD6FGOD06","","<img src=""img/set1/S1.jpg"" width=""540"" height = ""360"" style=""border:16px solid orange"">","null","","","","","","","",""
"null","","html-keyboard-response","313","239808","0.0-242.0","3LOTDFNYA8LVJLXMU4GOZULH0OTWFD","A3DS5B06ZCD3E3","3XUSYT70ITN3RRKBJPNBFGD6FGOD06","","","null","","","","","","","",""
"774.0999999642372","","image-keyboard-response","314","240583","0.0-243.0","3LOTDFNYA8LVJLXMU4GOZULH0OTWFD","A3DS5B06ZCD3E3","3XUSYT70ITN3RRKBJPNBFGD6FGOD06","","img/set1/S1.jpg","83","1","random","83","true","random,structured_incentive,structured_normal","1,2,2,3","",""
"null","","html-keyboard-response","315","240947","0.0-244.0","3LOTDFNYA8LVJLXMU4GOZULH0OTWFD","A3DS5B06ZCD3E3","3XUSYT70ITN3RRKBJPNBFGD6FGOD06","","<img src=""img/set1/S1.jpg"" width=""540"" height = ""360"" style=""border:16px solid orange"">","null","","","","","","","",""
"null","","html-keyboard-response","316","240950","0.0-245.0","3LOTDFNYA8LVJLXMU4GOZULH0OTWFD","A3DS5B06ZCD3E3","3XUSYT70ITN3RRKBJPNBFGD6FGOD06","","","null","","","","","","","",""
"543.3999999761581","","image-keyboard-response","317","241494","0.0-246.0","3LOTDFNYA8LVJLXMU4GOZULH0OTWFD","A3DS5B06ZCD3E3","3XUSYT70ITN3RRKBJPNBFGD6FGOD06","","img/set1/S1.jpg","83","1","random","83","true","random,structured_incentive,structured_normal","1,2,2,3","",""
"null","","html-keyboard-response","318","241856","0.0-247.0","3LOTDFNYA8LVJLXMU4GOZULH0OTWFD","A3DS5B06ZCD3E3","3XUSYT70ITN3RRKBJPNBFGD6FGOD06","","<img src=""img/set1/S1.jpg"" width=""540"" height = ""360"" style=""border:16px solid orange"">","null","","","","","","","",""
"null","","html-keyboard-response","319","241859","0.0-248.0","3LOTDFNYA8LVJLXMU4GOZULH0OTWFD","A3DS5B06ZCD3E3","3XUSYT70ITN3RRKBJPNBFGD6FGOD06","","","null","","","","","","","",""
"947.3000000119209","","image-keyboard-response","320","242807","0.0-249.0","3LOTDFNYA8LVJLXMU4GOZULH0OTWFD","A3DS5B06ZCD3E3","3XUSYT70ITN3RRKBJPNBFGD6FGOD06","","img/set1/S3.jpg","72","3","random","72","true","random,structured_incentive,structured_normal","1,2,2,3","",""
"null","","html-keyboard-response","321","243167","0.0-250.0","3LOTDFNYA8LVJLXMU4GOZULH0OTWFD","A3DS5B06ZCD3E3","3XUSYT70ITN3RRKBJPNBFGD6FGOD06","","<img src=""img/set1/S3.jpg"" width=""540"" height = ""360"" style=""border:16px solid orange"">","null","","","","","","","",""
"null","","html-keyboard-response","322","243170","0.0-251.0","3LOTDFNYA8LVJLXMU4GOZULH0OTWFD","A3DS5B06ZCD3E3","3XUSYT70ITN3RRKBJPNBFGD6FGOD06","","","null","","","","","","","",""
"627.8000000119209","","image-keyboard-response","323","243798","0.0-252.0","3LOTDFNYA8LVJLXMU4GOZULH0OTWFD","A3DS5B06ZCD3E3","3XUSYT70ITN3RRKBJPNBFGD6FGOD06","","img/set1/S1.jpg","83","1","random","83","true","random,structured_incentive,structured_normal","1,2,2,3","",""
"null","","html-keyboard-response","324","244161","0.0-253.0","3LOTDFNYA8LVJLXMU4GOZULH0OTWFD","A3DS5B06ZCD3E3","3XUSYT70ITN3RRKBJPNBFGD6FGOD06","","<img src=""img/set1/S1.jpg"" width=""540"" height = ""360"" style=""border:16px solid orange"">","null","","","","","","","",""
"null","","html-keyboard-response","325","244164","0.0-254.0","3LOTDFNYA8LVJLXMU4GOZULH0OTWFD","A3DS5B06ZCD3E3","3XUSYT70ITN3RRKBJPNBFGD6FGOD06","","","null","","","","","","","",""
"832.5","","image-keyboard-response","326","244998","0.0-255.0","3LOTDFNYA8LVJLXMU4GOZULH0OTWFD","A3DS5B06ZCD3E3","3XUSYT70ITN3RRKBJPNBFGD6FGOD06","","img/set1/S2.jpg","68","2","random","68","true","random,structured_incentive,structured_normal","1,2,2,3","",""
"null","","html-keyboard-response","327","245354","0.0-256.0","3LOTDFNYA8LVJLXMU4GOZULH0OTWFD","A3DS5B06ZCD3E3","3XUSYT70ITN3RRKBJPNBFGD6FGOD06","","<img src=""img/set1/S2.jpg"" width=""540"" height = ""360"" style=""border:16px solid orange"">","null","","","","","","","",""
"null","","html-keyboard-response","328","245357","0.0-257.0","3LOTDFNYA8LVJLXMU4GOZULH0OTWFD","A3DS5B06ZCD3E3","3XUSYT70ITN3RRKBJPNBFGD6FGOD06","","","null","","","","","","","",""
"488.60000002384186","","image-keyboard-response","329","245846","0.0-258.0","3LOTDFNYA8LVJLXMU4GOZULH0OTWFD","A3DS5B06ZCD3E3","3XUSYT70ITN3RRKBJPNBFGD6FGOD06","","img/set1/S2.jpg","68","2","random","68","true","random,structured_incentive,structured_normal","1,2,2,3","",""
"null","","html-keyboard-response","330","246208","0.0-259.0","3LOTDFNYA8LVJLXMU4GOZULH0OTWFD","A3DS5B06ZCD3E3","3XUSYT70ITN3RRKBJPNBFGD6FGOD06","","<img src=""img/set1/S2.jpg"" width=""540"" height = ""360"" style=""border:16px solid orange"">","null","","","","","","","",""
"null","","html-keyboard-response","331","246210","0.0-260.0","3LOTDFNYA8LVJLXMU4GOZULH0OTWFD","A3DS5B06ZCD3E3","3XUSYT70ITN3RRKBJPNBFGD6FGOD06","","","null","","","","","","","",""
"689.1000000238419","","image-keyboard-response","332","246902","0.0-261.0","3LOTDFNYA8LVJLXMU4GOZULH0OTWFD","A3DS5B06ZCD3E3","3XUSYT70ITN3RRKBJPNBFGD6FGOD06","","img/set1/S4.jpg","74","4","random","74","true","random,structured_incentive,structured_normal","1,2,2,3","",""
"null","","html-keyboard-response","333","247259","0.0-262.0","3LOTDFNYA8LVJLXMU4GOZULH0OTWFD","A3DS5B06ZCD3E3","3XUSYT70ITN3RRKBJPNBFGD6FGOD06","","<img src=""img/set1/S4.jpg"" width=""540"" height = ""360"" style=""border:16px solid orange"">","null","","","","","","","",""
"null","","html-keyboard-response","334","247262","0.0-263.0","3LOTDFNYA8LVJLXMU4GOZULH0OTWFD","A3DS5B06ZCD3E3","3XUSYT70ITN3RRKBJPNBFGD6FGOD06","","","null","","","","","","","",""
"631.5","","image-keyboard-response","335","247894","0.0-264.0","3LOTDFNYA8LVJLXMU4GOZULH0OTWFD","A3DS5B06ZCD3E3","3XUSYT70ITN3RRKBJPNBFGD6FGOD06","","img/set1/S3.jpg","72","3","random","72","true","random,structured_incentive,structured_normal","1,2,2,3","",""
"null","","html-keyboard-response","336","248258","0.0-265.0","3LOTDFNYA8LVJLXMU4GOZULH0OTWFD","A3DS5B06ZCD3E3","3XUSYT70ITN3RRKBJPNBFGD6FGOD06","","<img src=""img/set1/S3.jpg"" width=""540"" height = ""360"" style=""border:16px solid orange"">","null","","","","","","","",""
"null","","html-keyboard-response","337","248260","0.0-266.0","3LOTDFNYA8LVJLXMU4GOZULH0OTWFD","A3DS5B06ZCD3E3","3XUSYT70ITN3RRKBJPNBFGD6FGOD06","","","null","","","","","","","",""
"480.30000001192093","","image-keyboard-response","338","248742","0.0-267.0","3LOTDFNYA8LVJLXMU4GOZULH0OTWFD","A3DS5B06ZCD3E3","3XUSYT70ITN3RRKBJPNBFGD6FGOD06","","img/set1/S3.jpg","72","3","random","72","true","random,structured_incentive,structured_normal","1,2,2,3","",""
"null","","html-keyboard-response","339","249105","0.0-268.0","3LOTDFNYA8LVJLXMU4GOZULH0OTWFD","A3DS5B06ZCD3E3","3XUSYT70ITN3RRKBJPNBFGD6FGOD06","","<img src=""img/set1/S3.jpg"" width=""540"" height = ""360"" style=""border:16px solid orange"">","null","","","","","","","",""
"null","","html-keyboard-response","340","249107","0.0-269.0","3LOTDFNYA8LVJLXMU4GOZULH0OTWFD","A3DS5B06ZCD3E3","3XUSYT70ITN3RRKBJPNBFGD6FGOD06","","","null","","","","","","","",""
"738","","image-keyboard-response","341","249846","0.0-270.0","3LOTDFNYA8LVJLXMU4GOZULH0OTWFD","A3DS5B06ZCD3E3","3XUSYT70ITN3RRKBJPNBFGD6FGOD06","","img/set1/S4.jpg","68","4","random","74","false","random,structured_incentive,structured_normal","1,2,2,3","",""
"null","","html-keyboard-response","342","250199","0.0-271.0","3LOTDFNYA8LVJLXMU4GOZULH0OTWFD","A3DS5B06ZCD3E3","3XUSYT70ITN3RRKBJPNBFGD6FGOD06","","<img src=""img/set1/S4.jpg"" width=""540"" height = ""360"">","null","","","","","","","",""
"null","","html-keyboard-response","343","250201","0.0-272.0","3LOTDFNYA8LVJLXMU4GOZULH0OTWFD","A3DS5B06ZCD3E3","3XUSYT70ITN3RRKBJPNBFGD6FGOD06","","","null","","","","","","","",""
"779.5999999642372","","image-keyboard-response","344","250982","0.0-273.0","3LOTDFNYA8LVJLXMU4GOZULH0OTWFD","A3DS5B06ZCD3E3","3XUSYT70ITN3RRKBJPNBFGD6FGOD06","","img/set1/S2.jpg","68","2","random","68","true","random,structured_incentive,structured_normal","1,2,2,3","",""
"null","","html-keyboard-response","345","251338","0.0-274.0","3LOTDFNYA8LVJLXMU4GOZULH0OTWFD","A3DS5B06ZCD3E3","3XUSYT70ITN3RRKBJPNBFGD6FGOD06","","<img src=""img/set1/S2.jpg"" width=""540"" height = ""360"" style=""border:16px solid orange"">","null","","","","","","","",""
"null","","html-keyboard-response","346","251341","0.0-275.0","3LOTDFNYA8LVJLXMU4GOZULH0OTWFD","A3DS5B06ZCD3E3","3XUSYT70ITN3RRKBJPNBFGD6FGOD06","","","null","","","","","","","",""
"985.3999999761581","","image-keyboard-response","347","252327","0.0-276.0","3LOTDFNYA8LVJLXMU4GOZULH0OTWFD","A3DS5B06ZCD3E3","3XUSYT70ITN3RRKBJPNBFGD6FGOD06","","img/set1/S3.jpg","72","3","random","72","true","random,structured_incentive,structured_normal","1,2,2,3","",""
"null","","html-keyboard-response","348","252683","0.0-277.0","3LOTDFNYA8LVJLXMU4GOZULH0OTWFD","A3DS5B06ZCD3E3","3XUSYT70ITN3RRKBJPNBFGD6FGOD06","","<img src=""img/set1/S3.jpg"" width=""540"" height = ""360"" style=""border:16px solid orange"">","null","","","","","","","",""
"null","","html-keyboard-response","349","252687","0.0-278.0","3LOTDFNYA8LVJLXMU4GOZULH0OTWFD","A3DS5B06ZCD3E3","3XUSYT70ITN3RRKBJPNBFGD6FGOD06","","","null","","","","","","","",""
"501.80000001192093","","image-keyboard-response","350","253190","0.0-279.0","3LOTDFNYA8LVJLXMU4GOZULH0OTWFD","A3DS5B06ZCD3E3","3XUSYT70ITN3RRKBJPNBFGD6FGOD06","","img/set1/S3.jpg","72","3","random","72","true","random,structured_incentive,structured_normal","1,2,2,3","",""
"null","","html-keyboard-response","351","253550","0.0-280.0","3LOTDFNYA8LVJLXMU4GOZULH0OTWFD","A3DS5B06ZCD3E3","3XUSYT70ITN3RRKBJPNBFGD6FGOD06","","<img src=""img/set1/S3.jpg"" width=""540"" height = ""360"" style=""border:16px solid orange"">","null","","","","","","","",""
"null","","html-keyboard-response","352","253552","0.0-281.0","3LOTDFNYA8LVJLXMU4GOZULH0OTWFD","A3DS5B06ZCD3E3","3XUSYT70ITN3RRKBJPNBFGD6FGOD06","","","null","","","","","","","",""
"710","","image-keyboard-response","353","254263","0.0-282.0","3LOTDFNYA8LVJLXMU4GOZULH0OTWFD","A3DS5B06ZCD3E3","3XUSYT70ITN3RRKBJPNBFGD6FGOD06","","img/set1/S2.jpg","68","2","random","68","true","random,structured_incentive,structured_normal","1,2,2,3","",""
"null","","html-keyboard-response","354","254624","0.0-283.0","3LOTDFNYA8LVJLXMU4GOZULH0OTWFD","A3DS5B06ZCD3E3","3XUSYT70ITN3RRKBJPNBFGD6FGOD06","","<img src=""img/set1/S2.jpg"" width=""540"" height = ""360"" style=""border:16px solid orange"">","null","","","","","","","",""
"null","","html-keyboard-response","355","254626","0.0-284.0","3LOTDFNYA8LVJLXMU4GOZULH0OTWFD","A3DS5B06ZCD3E3","3XUSYT70ITN3RRKBJPNBFGD6FGOD06","","","null","","","","","","","",""
"849.1000000238419","","image-keyboard-response","356","255478","0.0-285.0","3LOTDFNYA8LVJLXMU4GOZULH0OTWFD","A3DS5B06ZCD3E3","3XUSYT70ITN3RRKBJPNBFGD6FGOD06","","img/set1/S4.jpg","74","4","random","74","true","random,structured_incentive,structured_normal","1,2,2,3","",""
"null","","html-keyboard-response","357","255837","0.0-286.0","3LOTDFNYA8LVJLXMU4GOZULH0OTWFD","A3DS5B06ZCD3E3","3XUSYT70ITN3RRKBJPNBFGD6FGOD06","","<img src=""img/set1/S4.jpg"" width=""540"" height = ""360"" style=""border:16px solid orange"">","null","","","","","","","",""
"null","","html-keyboard-response","358","255839","0.0-287.0","3LOTDFNYA8LVJLXMU4GOZULH0OTWFD","A3DS5B06ZCD3E3","3XUSYT70ITN3RRKBJPNBFGD6FGOD06","","","null","","","","","","","",""
"661.6999999880791","","image-keyboard-response","359","256503","0.0-288.0","3LOTDFNYA8LVJLXMU4GOZULH0OTWFD","A3DS5B06ZCD3E3","3XUSYT70ITN3RRKBJPNBFGD6FGOD06","","img/set1/S3.jpg","72","3","random","72","true","random,structured_incentive,structured_normal","1,2,2,3","",""
"null","","html-keyboard-response","360","256856","0.0-289.0","3LOTDFNYA8LVJLXMU4GOZULH0OTWFD","A3DS5B06ZCD3E3","3XUSYT70ITN3RRKBJPNBFGD6FGOD06","","<img src=""img/set1/S3.jpg"" width=""540"" height = ""360"" style=""border:16px solid orange"">","null","","","","","","","",""
"null","","html-keyboard-response","361","256859","0.0-290.0","3LOTDFNYA8LVJLXMU4GOZULH0OTWFD","A3DS5B06ZCD3E3","3XUSYT70ITN3RRKBJPNBFGD6FGOD06","","","null","","","","","","","",""
"682.5","","image-keyboard-response","362","257543","0.0-291.0","3LOTDFNYA8LVJLXMU4GOZULH0OTWFD","A3DS5B06ZCD3E3","3XUSYT70ITN3RRKBJPNBFGD6FGOD06","","img/set1/S2.jpg","68","2","random","68","true","random,structured_incentive,structured_normal","1,2,2,3","",""
"null","","html-keyboard-response","363","257906","0.0-292.0","3LOTDFNYA8LVJLXMU4GOZULH0OTWFD","A3DS5B06ZCD3E3","3XUSYT70ITN3RRKBJPNBFGD6FGOD06","","<img src=""img/set1/S2.jpg"" width=""540"" height = ""360"" style=""border:16px solid orange"">","null","","","","","","","",""
"null","","html-keyboard-response","364","257909","0.0-293.0","3LOTDFNYA8LVJLXMU4GOZULH0OTWFD","A3DS5B06ZCD3E3","3XUSYT70ITN3RRKBJPNBFGD6FGOD06","","","null","","","","","","","",""
"897","","image-keyboard-response","365","258807","0.0-294.0","3LOTDFNYA8LVJLXMU4GOZULH0OTWFD","A3DS5B06ZCD3E3","3XUSYT70ITN3RRKBJPNBFGD6FGOD06","","img/set1/S4.jpg","74","4","random","74","true","random,structured_incentive,structured_normal","1,2,2,3","",""
"null","","html-keyboard-response","366","259164","0.0-295.0","3LOTDFNYA8LVJLXMU4GOZULH0OTWFD","A3DS5B06ZCD3E3","3XUSYT70ITN3RRKBJPNBFGD6FGOD06","","<img src=""img/set1/S4.jpg"" width=""540"" height = ""360"" style=""border:16px solid orange"">","null","","","","","","","",""
"null","","html-keyboard-response","367","259166","0.0-296.0","3LOTDFNYA8LVJLXMU4GOZULH0OTWFD","A3DS5B06ZCD3E3","3XUSYT70ITN3RRKBJPNBFGD6FGOD06","","","null","","","","","","","",""
"503.2000000476837","","image-keyboard-response","368","259670","0.0-297.0","3LOTDFNYA8LVJLXMU4GOZULH0OTWFD","A3DS5B06ZCD3E3","3XUSYT70ITN3RRKBJPNBFGD6FGOD06","","img/set1/S4.jpg","74","4","random","74","true","random,structured_incentive,structured_normal","1,2,2,3","",""
"null","","html-keyboard-response","369","260026","0.0-298.0","3LOTDFNYA8LVJLXMU4GOZULH0OTWFD","A3DS5B06ZCD3E3","3XUSYT70ITN3RRKBJPNBFGD6FGOD06","","<img src=""img/set1/S4.jpg"" width=""540"" height = ""360"" style=""border:16px solid orange"">","null","","","","","","","",""
"null","","html-keyboard-response","370","260028","0.0-299.0","3LOTDFNYA8LVJLXMU4GOZULH0OTWFD","A3DS5B06ZCD3E3","3XUSYT70ITN3RRKBJPNBFGD6FGOD06","","","null","","","","","","","",""
"569.8999999761581","","image-keyboard-response","371","260599","0.0-300.0","3LOTDFNYA8LVJLXMU4GOZULH0OTWFD","A3DS5B06ZCD3E3","3XUSYT70ITN3RRKBJPNBFGD6FGOD06","","img/set1/S4.jpg","74","4","random","74","true","random,structured_incentive,structured_normal","1,2,2,3","",""
"null","","html-keyboard-response","372","260956","0.0-301.0","3LOTDFNYA8LVJLXMU4GOZULH0OTWFD","A3DS5B06ZCD3E3","3XUSYT70ITN3RRKBJPNBFGD6FGOD06","","<img src=""img/set1/S4.jpg"" width=""540"" height = ""360"" style=""border:16px solid orange"">","null","","","","","","","",""
"null","","html-keyboard-response","373","260959","0.0-302.0","3LOTDFNYA8LVJLXMU4GOZULH0OTWFD","A3DS5B06ZCD3E3","3XUSYT70ITN3RRKBJPNBFGD6FGOD06","","","null","","","","","","","",""
"598.6000000238419","","image-keyboard-response","374","261559","0.0-303.0","3LOTDFNYA8LVJLXMU4GOZULH0OTWFD","A3DS5B06ZCD3E3","3XUSYT70ITN3RRKBJPNBFGD6FGOD06","","img/set1/S4.jpg","74","4","random","74","true","random,structured_incentive,structured_normal","1,2,2,3","",""
"null","","html-keyboard-response","375","261926","0.0-304.0","3LOTDFNYA8LVJLXMU4GOZULH0OTWFD","A3DS5B06ZCD3E3","3XUSYT70ITN3RRKBJPNBFGD6FGOD06","","<img src=""img/set1/S4.jpg"" width=""540"" height = ""360"" style=""border:16px solid orange"">","null","","","","","","","",""
"null","","html-keyboard-response","376","261929","0.0-305.0","3LOTDFNYA8LVJLXMU4GOZULH0OTWFD","A3DS5B06ZCD3E3","3XUSYT70ITN3RRKBJPNBFGD6FGOD06","","","null","","","","","","","",""
"508.9000000357628","","image-keyboard-response","377","262439","0.0-306.0","3LOTDFNYA8LVJLXMU4GOZULH0OTWFD","A3DS5B06ZCD3E3","3XUSYT70ITN3RRKBJPNBFGD6FGOD06","","img/set1/S4.jpg","74","4","random","74","true","random,structured_incentive,structured_normal","1,2,2,3","",""
"null","","html-keyboard-response","378","262808","0.0-307.0","3LOTDFNYA8LVJLXMU4GOZULH0OTWFD","A3DS5B06ZCD3E3","3XUSYT70ITN3RRKBJPNBFGD6FGOD06","","<img src=""img/set1/S4.jpg"" width=""540"" height = ""360"" style=""border:16px solid orange"">","null","","","","","","","",""
"null","","html-keyboard-response","379","262810","0.0-308.0","3LOTDFNYA8LVJLXMU4GOZULH0OTWFD","A3DS5B06ZCD3E3","3XUSYT70ITN3RRKBJPNBFGD6FGOD06","","","null","","","","","","","",""
"683.9000000357628","","image-keyboard-response","380","263496","0.0-309.0","3LOTDFNYA8LVJLXMU4GOZULH0OTWFD","A3DS5B06ZCD3E3","3XUSYT70ITN3RRKBJPNBFGD6FGOD06","","img/set1/S1.jpg","83","1","random","83","true","random,structured_incentive,structured_normal","1,2,2,3","",""
"null","","html-keyboard-response","381","263867","0.0-310.0","3LOTDFNYA8LVJLXMU4GOZULH0OTWFD","A3DS5B06ZCD3E3","3XUSYT70ITN3RRKBJPNBFGD6FGOD06","","<img src=""img/set1/S1.jpg"" width=""540"" height = ""360"" style=""border:16px solid orange"">","null","","","","","","","",""
"null","","html-keyboard-response","382","263869","0.0-311.0","3LOTDFNYA8LVJLXMU4GOZULH0OTWFD","A3DS5B06ZCD3E3","3XUSYT70ITN3RRKBJPNBFGD6FGOD06","","","null","","","","","","","",""
"632.4000000357628","","image-keyboard-response","383","264503","0.0-312.0","3LOTDFNYA8LVJLXMU4GOZULH0OTWFD","A3DS5B06ZCD3E3","3XUSYT70ITN3RRKBJPNBFGD6FGOD06","","img/set1/S1.jpg","83","1","random","83","true","random,structured_incentive,structured_normal","1,2,2,3","",""
"null","","html-keyboard-response","384","264865","0.0-313.0","3LOTDFNYA8LVJLXMU4GOZULH0OTWFD","A3DS5B06ZCD3E3","3XUSYT70ITN3RRKBJPNBFGD6FGOD06","","<img src=""img/set1/S1.jpg"" width=""540"" height = ""360"" style=""border:16px solid orange"">","null","","","","","","","",""
"null","","html-keyboard-response","385","264869","0.0-314.0","3LOTDFNYA8LVJLXMU4GOZULH0OTWFD","A3DS5B06ZCD3E3","3XUSYT70ITN3RRKBJPNBFGD6FGOD06","","","null","","","","","","","",""
"1409.0999999642372","","image-keyboard-response","386","266279","0.0-315.0","3LOTDFNYA8LVJLXMU4GOZULH0OTWFD","A3DS5B06ZCD3E3","3XUSYT70ITN3RRKBJPNBFGD6FGOD06","","img/set1/S2.jpg","68","2","random","68","true","random,structured_incentive,structured_normal","1,2,2,3","",""
"null","","html-keyboard-response","387","266637","0.0-316.0","3LOTDFNYA8LVJLXMU4GOZULH0OTWFD","A3DS5B06ZCD3E3","3XUSYT70ITN3RRKBJPNBFGD6FGOD06","","<img src=""img/set1/S2.jpg"" width=""540"" height = ""360"" style=""border:16px solid orange"">","null","","","","","","","",""
"null","","html-keyboard-response","388","266640","0.0-317.0","3LOTDFNYA8LVJLXMU4GOZULH0OTWFD","A3DS5B06ZCD3E3","3XUSYT70ITN3RRKBJPNBFGD6FGOD06","","","null","","","","","","","",""
"854.3000000119209","","image-keyboard-response","389","267495","0.0-318.0","3LOTDFNYA8LVJLXMU4GOZULH0OTWFD","A3DS5B06ZCD3E3","3XUSYT70ITN3RRKBJPNBFGD6FGOD06","","img/set1/S3.jpg","72","3","random","72","true","random,structured_incentive,structured_normal","1,2,2,3","",""
"null","","html-keyboard-response","390","267849","0.0-319.0","3LOTDFNYA8LVJLXMU4GOZULH0OTWFD","A3DS5B06ZCD3E3","3XUSYT70ITN3RRKBJPNBFGD6FGOD06","","<img src=""img/set1/S3.jpg"" width=""540"" height = ""360"" style=""border:16px solid orange"">","null","","","","","","","",""
"null","","html-keyboard-response","391","267852","0.0-320.0","3LOTDFNYA8LVJLXMU4GOZULH0OTWFD","A3DS5B06ZCD3E3","3XUSYT70ITN3RRKBJPNBFGD6FGOD06","","","null","","","","","","","",""
"1097.1000000238419","","image-keyboard-response","392","268950","0.0-321.0","3LOTDFNYA8LVJLXMU4GOZULH0OTWFD","A3DS5B06ZCD3E3","3XUSYT70ITN3RRKBJPNBFGD6FGOD06","","img/set1/S2.jpg","68","2","random","68","true","random,structured_incentive,structured_normal","1,2,2,3","",""
"null","","html-keyboard-response","393","269312","0.0-322.0","3LOTDFNYA8LVJLXMU4GOZULH0OTWFD","A3DS5B06ZCD3E3","3XUSYT70ITN3RRKBJPNBFGD6FGOD06","","<img src=""img/set1/S2.jpg"" width=""540"" height = ""360"" style=""border:16px solid orange"">","null","","","","","","","",""
"null","","html-keyboard-response","394","269314","0.0-323.0","3LOTDFNYA8LVJLXMU4GOZULH0OTWFD","A3DS5B06ZCD3E3","3XUSYT70ITN3RRKBJPNBFGD6FGOD06","","","null","","","","","","","",""
"1378.9000000357628","","image-keyboard-response","395","270694","0.0-324.0","3LOTDFNYA8LVJLXMU4GOZULH0OTWFD","A3DS5B06ZCD3E3","3XUSYT70ITN3RRKBJPNBFGD6FGOD06","","img/set1/S3.jpg","72","3","random","72","true","random,structured_incentive,structured_normal","1,2,2,3","",""
"null","","html-keyboard-response","396","271053","0.0-325.0","3LOTDFNYA8LVJLXMU4GOZULH0OTWFD","A3DS5B06ZCD3E3","3XUSYT70ITN3RRKBJPNBFGD6FGOD06","","<img src=""img/set1/S3.jpg"" width=""540"" height = ""360"" style=""border:16px solid orange"">","null","","","","","","","",""
"null","","html-keyboard-response","397","271056","0.0-326.0","3LOTDFNYA8LVJLXMU4GOZULH0OTWFD","A3DS5B06ZCD3E3","3XUSYT70ITN3RRKBJPNBFGD6FGOD06","","","null","","","","","","","",""
"869.0999999642372","","image-keyboard-response","398","271927","0.0-327.0","3LOTDFNYA8LVJLXMU4GOZULH0OTWFD","A3DS5B06ZCD3E3","3XUSYT70ITN3RRKBJPNBFGD6FGOD06","","img/set1/S1.jpg","83","1","random","83","true","random,structured_incentive,structured_normal","1,2,2,3","",""
"null","","html-keyboard-response","399","272282","0.0-328.0","3LOTDFNYA8LVJLXMU4GOZULH0OTWFD","A3DS5B06ZCD3E3","3XUSYT70ITN3RRKBJPNBFGD6FGOD06","","<img src=""img/set1/S1.jpg"" width=""540"" height = ""360"" style=""border:16px solid orange"">","null","","","","","","","",""
"null","","html-keyboard-response","400","272284","0.0-329.0","3LOTDFNYA8LVJLXMU4GOZULH0OTWFD","A3DS5B06ZCD3E3","3XUSYT70ITN3RRKBJPNBFGD6FGOD06","","","null","","","","","","","",""
"873.7999999523163","","image-keyboard-response","401","273159","0.0-330.0","3LOTDFNYA8LVJLXMU4GOZULH0OTWFD","A3DS5B06ZCD3E3","3XUSYT70ITN3RRKBJPNBFGD6FGOD06","","img/set1/S3.jpg","72","3","random","72","true","random,structured_incentive,structured_normal","1,2,2,3","",""
"null","","html-keyboard-response","402","273517","0.0-331.0","3LOTDFNYA8LVJLXMU4GOZULH0OTWFD","A3DS5B06ZCD3E3","3XUSYT70ITN3RRKBJPNBFGD6FGOD06","","<img src=""img/set1/S3.jpg"" width=""540"" height = ""360"" style=""border:16px solid orange"">","null","","","","","","","",""
"null","","html-keyboard-response","403","273519","0.0-332.0","3LOTDFNYA8LVJLXMU4GOZULH0OTWFD","A3DS5B06ZCD3E3","3XUSYT70ITN3RRKBJPNBFGD6FGOD06","","","null","","","","","","","",""
"407.5","","image-keyboard-response","404","273929","0.0-333.0","3LOTDFNYA8LVJLXMU4GOZULH0OTWFD","A3DS5B06ZCD3E3","3XUSYT70ITN3RRKBJPNBFGD6FGOD06","","img/set1/S3.jpg","72","3","random","72","true","random,structured_incentive,structured_normal","1,2,2,3","",""
"null","","html-keyboard-response","405","274285","0.0-334.0","3LOTDFNYA8LVJLXMU4GOZULH0OTWFD","A3DS5B06ZCD3E3","3XUSYT70ITN3RRKBJPNBFGD6FGOD06","","<img src=""img/set1/S3.jpg"" width=""540"" height = ""360"" style=""border:16px solid orange"">","null","","","","","","","",""
"null","","html-keyboard-response","406","274288","0.0-335.0","3LOTDFNYA8LVJLXMU4GOZULH0OTWFD","A3DS5B06ZCD3E3","3XUSYT70ITN3RRKBJPNBFGD6FGOD06","","","null","","","","","","","",""
"437.39999997615814","","image-keyboard-response","407","274726","0.0-336.0","3LOTDFNYA8LVJLXMU4GOZULH0OTWFD","A3DS5B06ZCD3E3","3XUSYT70ITN3RRKBJPNBFGD6FGOD06","","img/set1/S3.jpg","72","3","random","72","true","random,structured_incentive,structured_normal","1,2,2,3","",""
"null","","html-keyboard-response","408","275086","0.0-337.0","3LOTDFNYA8LVJLXMU4GOZULH0OTWFD","A3DS5B06ZCD3E3","3XUSYT70ITN3RRKBJPNBFGD6FGOD06","","<img src=""img/set1/S3.jpg"" width=""540"" height = ""360"" style=""border:16px solid orange"">","null","","","","","","","",""
"null","","html-keyboard-response","409","275089","0.0-338.0","3LOTDFNYA8LVJLXMU4GOZULH0OTWFD","A3DS5B06ZCD3E3","3XUSYT70ITN3RRKBJPNBFGD6FGOD06","","","null","","","","","","","",""
"484.60000002384186","","image-keyboard-response","410","275576","0.0-339.0","3LOTDFNYA8LVJLXMU4GOZULH0OTWFD","A3DS5B06ZCD3E3","3XUSYT70ITN3RRKBJPNBFGD6FGOD06","","img/set1/S3.jpg","72","3","random","72","true","random,structured_incentive,structured_normal","1,2,2,3","",""
"null","","html-keyboard-response","411","275937","0.0-340.0","3LOTDFNYA8LVJLXMU4GOZULH0OTWFD","A3DS5B06ZCD3E3","3XUSYT70ITN3RRKBJPNBFGD6FGOD06","","<img src=""img/set1/S3.jpg"" width=""540"" height = ""360"" style=""border:16px solid orange"">","null","","","","","","","",""
"null","","html-keyboard-response","412","275940","0.0-341.0","3LOTDFNYA8LVJLXMU4GOZULH0OTWFD","A3DS5B06ZCD3E3","3XUSYT70ITN3RRKBJPNBFGD6FGOD06","","","null","","","","","","","",""
"1552.6000000238419","","image-keyboard-response","413","277494","0.0-342.0","3LOTDFNYA8LVJLXMU4GOZULH0OTWFD","A3DS5B06ZCD3E3","3XUSYT70ITN3RRKBJPNBFGD6FGOD06","","img/set1/S2.jpg","68","2","random","68","true","random,structured_incentive,structured_normal","1,2,2,3","",""
"null","","html-keyboard-response","414","277851","0.0-343.0","3LOTDFNYA8LVJLXMU4GOZULH0OTWFD","A3DS5B06ZCD3E3","3XUSYT70ITN3RRKBJPNBFGD6FGOD06","","<img src=""img/set1/S2.jpg"" width=""540"" height = ""360"" style=""border:16px solid orange"">","null","","","","","","","",""
"null","","html-keyboard-response","415","277853","0.0-344.0","3LOTDFNYA8LVJLXMU4GOZULH0OTWFD","A3DS5B06ZCD3E3","3XUSYT70ITN3RRKBJPNBFGD6FGOD06","","","null","","","","","","","",""
"695.6000000238419","","image-keyboard-response","416","278550","0.0-345.0","3LOTDFNYA8LVJLXMU4GOZULH0OTWFD","A3DS5B06ZCD3E3","3XUSYT70ITN3RRKBJPNBFGD6FGOD06","","img/set1/S1.jpg","83","1","random","83","true","random,structured_incentive,structured_normal","1,2,2,3","",""
