"rt","url","trial_type","trial_index","time_elapsed","internal_node_id","assignmentID","mturkID","hitID","view_history","stimulus","key_press","state","test_part","correct_response","correct","order_block","order_chunk","bonus","responses"
"8899","consent.html","external-html","0","8995","0.0-0.0","3VAR3R6G1QNEZXEXV4J888R9AII8OX","A3EC3OP6U52JYC","3DFYDSXB2WMWAZWJRSN67LWQ0PPJUT","","","","","","","","","","",""
"91300","","instructions","1","100296","0.0-1.0","3VAR3R6G1QNEZXEXV4J888R9AII8OX","A3EC3OP6U52JYC","3DFYDSXB2WMWAZWJRSN67LWQ0PPJUT","[{""page_index"":0,""viewing_time"":3922},{""page_index"":1,""viewing_time"":6547},{""page_index"":2,""viewing_time"":8025},{""page_index"":3,""viewing_time"":27630},{""page_index"":4,""viewing_time"":18565},{""page_index"":5,""viewing_time"":11630},{""page_index"":6,""viewing_time"":6438},{""page_index"":7,""viewing_time"":8543}]","","","","","","","","","",""
"1566","","image-keyboard-response","2","101865","0.0-2.0-0.0","3VAR3R6G1QNEZXEXV4J888R9AII8OX","A3EC3OP6U52JYC","3DFYDSXB2WMWAZWJRSN67LWQ0PPJUT","","img/practice/S1.jpg","72","1","practice","83","false","","","",""
"null","","html-keyboard-response","3","102183","0.0-2.0-1.0","3VAR3R6G1QNEZXEXV4J888R9AII8OX","A3EC3OP6U52JYC","3DFYDSXB2WMWAZWJRSN67LWQ0PPJUT","","<img src=""img/practice/S1.jpg"" width=""540"" height = ""360"">","null","","","","","","","",""
"null","","html-keyboard-response","4","102185","0.0-2.0-2.0","3VAR3R6G1QNEZXEXV4J888R9AII8OX","A3EC3OP6U52JYC","3DFYDSXB2WMWAZWJRSN67LWQ0PPJUT","","","null","","","","","","","",""
"225","","image-keyboard-response","5","102411","0.0-2.0-0.1","3VAR3R6G1QNEZXEXV4J888R9AII8OX","A3EC3OP6U52JYC","3DFYDSXB2WMWAZWJRSN67LWQ0PPJUT","","img/practice/S2.jpg","74","2","practice","68","false","","","",""
"null","","html-keyboard-response","6","102724","0.0-2.0-1.1","3VAR3R6G1QNEZXEXV4J888R9AII8OX","A3EC3OP6U52JYC","3DFYDSXB2WMWAZWJRSN67LWQ0PPJUT","","<img src=""img/practice/S2.jpg"" width=""540"" height = ""360"">","null","","","","","","","",""
"null","","html-keyboard-response","7","102725","0.0-2.0-2.1","3VAR3R6G1QNEZXEXV4J888R9AII8OX","A3EC3OP6U52JYC","3DFYDSXB2WMWAZWJRSN67LWQ0PPJUT","","","null","","","","","","","",""
"953","","image-keyboard-response","8","103678","0.0-2.0-0.2","3VAR3R6G1QNEZXEXV4J888R9AII8OX","A3EC3OP6U52JYC","3DFYDSXB2WMWAZWJRSN67LWQ0PPJUT","","img/practice/S4.jpg","83","4","practice","74","false","","","",""
"null","","html-keyboard-response","9","103984","0.0-2.0-1.2","3VAR3R6G1QNEZXEXV4J888R9AII8OX","A3EC3OP6U52JYC","3DFYDSXB2WMWAZWJRSN67LWQ0PPJUT","","<img src=""img/practice/S4.jpg"" width=""540"" height = ""360"">","null","","","","","","","",""
"null","","html-keyboard-response","10","103985","0.0-2.0-2.2","3VAR3R6G1QNEZXEXV4J888R9AII8OX","A3EC3OP6U52JYC","3DFYDSXB2WMWAZWJRSN67LWQ0PPJUT","","","null","","","","","","","",""
"978","","image-keyboard-response","11","104964","0.0-2.0-0.3","3VAR3R6G1QNEZXEXV4J888R9AII8OX","A3EC3OP6U52JYC","3DFYDSXB2WMWAZWJRSN67LWQ0PPJUT","","img/practice/S3.jpg","68","3","practice","72","false","","","",""
"null","","html-keyboard-response","12","105274","0.0-2.0-1.3","3VAR3R6G1QNEZXEXV4J888R9AII8OX","A3EC3OP6U52JYC","3DFYDSXB2WMWAZWJRSN67LWQ0PPJUT","","<img src=""img/practice/S3.jpg"" width=""540"" height = ""360"">","null","","","","","","","",""
"null","","html-keyboard-response","13","105275","0.0-2.0-2.3","3VAR3R6G1QNEZXEXV4J888R9AII8OX","A3EC3OP6U52JYC","3DFYDSXB2WMWAZWJRSN67LWQ0PPJUT","","","null","","","","","","","",""
"661","","image-keyboard-response","14","105935","0.0-2.0-0.4","3VAR3R6G1QNEZXEXV4J888R9AII8OX","A3EC3OP6U52JYC","3DFYDSXB2WMWAZWJRSN67LWQ0PPJUT","","img/practice/S3.jpg","72","3","practice","72","true","","","",""
"null","","html-keyboard-response","15","106253","0.0-2.0-1.4","3VAR3R6G1QNEZXEXV4J888R9AII8OX","A3EC3OP6U52JYC","3DFYDSXB2WMWAZWJRSN67LWQ0PPJUT","","<img src=""img/practice/S3.jpg"" width=""540"" height = ""360"" style=""border:16px solid orange"">","null","","","","","","","",""
"null","","html-keyboard-response","16","106254","0.0-2.0-2.4","3VAR3R6G1QNEZXEXV4J888R9AII8OX","A3EC3OP6U52JYC","3DFYDSXB2WMWAZWJRSN67LWQ0PPJUT","","","null","","","","","","","",""
"1055","","image-keyboard-response","17","107309","0.0-2.0-0.5","3VAR3R6G1QNEZXEXV4J888R9AII8OX","A3EC3OP6U52JYC","3DFYDSXB2WMWAZWJRSN67LWQ0PPJUT","","img/practice/S1.jpg","74","1","practice","83","false","","","",""
"null","","html-keyboard-response","18","107613","0.0-2.0-1.5","3VAR3R6G1QNEZXEXV4J888R9AII8OX","A3EC3OP6U52JYC","3DFYDSXB2WMWAZWJRSN67LWQ0PPJUT","","<img src=""img/practice/S1.jpg"" width=""540"" height = ""360"">","null","","","","","","","",""
"null","","html-keyboard-response","19","107614","0.0-2.0-2.5","3VAR3R6G1QNEZXEXV4J888R9AII8OX","A3EC3OP6U52JYC","3DFYDSXB2WMWAZWJRSN67LWQ0PPJUT","","","null","","","","","","","",""
"839","","image-keyboard-response","20","108454","0.0-2.0-0.6","3VAR3R6G1QNEZXEXV4J888R9AII8OX","A3EC3OP6U52JYC","3DFYDSXB2WMWAZWJRSN67LWQ0PPJUT","","img/practice/S4.jpg","83","4","practice","74","false","","","",""
"null","","html-keyboard-response","21","108774","0.0-2.0-1.6","3VAR3R6G1QNEZXEXV4J888R9AII8OX","A3EC3OP6U52JYC","3DFYDSXB2WMWAZWJRSN67LWQ0PPJUT","","<img src=""img/practice/S4.jpg"" width=""540"" height = ""360"">","null","","","","","","","",""
"null","","html-keyboard-response","22","108774","0.0-2.0-2.6","3VAR3R6G1QNEZXEXV4J888R9AII8OX","A3EC3OP6U52JYC","3DFYDSXB2WMWAZWJRSN67LWQ0PPJUT","","","null","","","","","","","",""
"634","","image-keyboard-response","23","109409","0.0-2.0-0.7","3VAR3R6G1QNEZXEXV4J888R9AII8OX","A3EC3OP6U52JYC","3DFYDSXB2WMWAZWJRSN67LWQ0PPJUT","","img/practice/S2.jpg","68","2","practice","68","true","","","",""
"null","","html-keyboard-response","24","109713","0.0-2.0-1.7","3VAR3R6G1QNEZXEXV4J888R9AII8OX","A3EC3OP6U52JYC","3DFYDSXB2WMWAZWJRSN67LWQ0PPJUT","","<img src=""img/practice/S2.jpg"" width=""540"" height = ""360"" style=""border:16px solid orange"">","null","","","","","","","",""
"null","","html-keyboard-response","25","109714","0.0-2.0-2.7","3VAR3R6G1QNEZXEXV4J888R9AII8OX","A3EC3OP6U52JYC","3DFYDSXB2WMWAZWJRSN67LWQ0PPJUT","","","null","","","","","","","",""
"708","","image-keyboard-response","26","110423","0.0-2.0-0.8","3VAR3R6G1QNEZXEXV4J888R9AII8OX","A3EC3OP6U52JYC","3DFYDSXB2WMWAZWJRSN67LWQ0PPJUT","","img/practice/S3.jpg","72","3","practice","72","true","","","",""
"null","","html-keyboard-response","27","110733","0.0-2.0-1.8","3VAR3R6G1QNEZXEXV4J888R9AII8OX","A3EC3OP6U52JYC","3DFYDSXB2WMWAZWJRSN67LWQ0PPJUT","","<img src=""img/practice/S3.jpg"" width=""540"" height = ""360"" style=""border:16px solid orange"">","null","","","","","","","",""
"null","","html-keyboard-response","28","110734","0.0-2.0-2.8","3VAR3R6G1QNEZXEXV4J888R9AII8OX","A3EC3OP6U52JYC","3DFYDSXB2WMWAZWJRSN67LWQ0PPJUT","","","null","","","","","","","",""
"830","","image-keyboard-response","29","111566","0.0-2.0-0.9","3VAR3R6G1QNEZXEXV4J888R9AII8OX","A3EC3OP6U52JYC","3DFYDSXB2WMWAZWJRSN67LWQ0PPJUT","","img/practice/S4.jpg","74","4","practice","74","true","","","",""
"null","","html-keyboard-response","30","111873","0.0-2.0-1.9","3VAR3R6G1QNEZXEXV4J888R9AII8OX","A3EC3OP6U52JYC","3DFYDSXB2WMWAZWJRSN67LWQ0PPJUT","","<img src=""img/practice/S4.jpg"" width=""540"" height = ""360"" style=""border:16px solid orange"">","null","","","","","","","",""
"null","","html-keyboard-response","31","111874","0.0-2.0-2.9","3VAR3R6G1QNEZXEXV4J888R9AII8OX","A3EC3OP6U52JYC","3DFYDSXB2WMWAZWJRSN67LWQ0PPJUT","","","null","","","","","","","",""
"533","","image-keyboard-response","32","112409","0.0-2.0-0.10","3VAR3R6G1QNEZXEXV4J888R9AII8OX","A3EC3OP6U52JYC","3DFYDSXB2WMWAZWJRSN67LWQ0PPJUT","","img/practice/S1.jpg","83","1","practice","83","true","","","",""
"null","","html-keyboard-response","33","112713","0.0-2.0-1.10","3VAR3R6G1QNEZXEXV4J888R9AII8OX","A3EC3OP6U52JYC","3DFYDSXB2WMWAZWJRSN67LWQ0PPJUT","","<img src=""img/practice/S1.jpg"" width=""540"" height = ""360"" style=""border:16px solid orange"">","null","","","","","","","",""
"null","","html-keyboard-response","34","112714","0.0-2.0-2.10","3VAR3R6G1QNEZXEXV4J888R9AII8OX","A3EC3OP6U52JYC","3DFYDSXB2WMWAZWJRSN67LWQ0PPJUT","","","null","","","","","","","",""
"746","","image-keyboard-response","35","113461","0.0-2.0-0.11","3VAR3R6G1QNEZXEXV4J888R9AII8OX","A3EC3OP6U52JYC","3DFYDSXB2WMWAZWJRSN67LWQ0PPJUT","","img/practice/S2.jpg","72","2","practice","68","false","","","",""
"null","","html-keyboard-response","36","113763","0.0-2.0-1.11","3VAR3R6G1QNEZXEXV4J888R9AII8OX","A3EC3OP6U52JYC","3DFYDSXB2WMWAZWJRSN67LWQ0PPJUT","","<img src=""img/practice/S2.jpg"" width=""540"" height = ""360"">","null","","","","","","","",""
"null","","html-keyboard-response","37","113765","0.0-2.0-2.11","3VAR3R6G1QNEZXEXV4J888R9AII8OX","A3EC3OP6U52JYC","3DFYDSXB2WMWAZWJRSN67LWQ0PPJUT","","","null","","","","","","","",""
"55","","image-keyboard-response","38","113820","0.0-2.0-0.12","3VAR3R6G1QNEZXEXV4J888R9AII8OX","A3EC3OP6U52JYC","3DFYDSXB2WMWAZWJRSN67LWQ0PPJUT","","img/practice/S2.jpg","68","2","practice","68","true","","","",""
"null","","html-keyboard-response","39","114123","0.0-2.0-1.12","3VAR3R6G1QNEZXEXV4J888R9AII8OX","A3EC3OP6U52JYC","3DFYDSXB2WMWAZWJRSN67LWQ0PPJUT","","<img src=""img/practice/S2.jpg"" width=""540"" height = ""360"" style=""border:16px solid orange"">","null","","","","","","","",""
"null","","html-keyboard-response","40","114125","0.0-2.0-2.12","3VAR3R6G1QNEZXEXV4J888R9AII8OX","A3EC3OP6U52JYC","3DFYDSXB2WMWAZWJRSN67LWQ0PPJUT","","","null","","","","","","","",""
"1186","","image-keyboard-response","41","115311","0.0-2.0-0.13","3VAR3R6G1QNEZXEXV4J888R9AII8OX","A3EC3OP6U52JYC","3DFYDSXB2WMWAZWJRSN67LWQ0PPJUT","","img/practice/S4.jpg","74","4","practice","74","true","","","",""
"null","","html-keyboard-response","42","115623","0.0-2.0-1.13","3VAR3R6G1QNEZXEXV4J888R9AII8OX","A3EC3OP6U52JYC","3DFYDSXB2WMWAZWJRSN67LWQ0PPJUT","","<img src=""img/practice/S4.jpg"" width=""540"" height = ""360"" style=""border:16px solid orange"">","null","","","","","","","",""
"null","","html-keyboard-response","43","115624","0.0-2.0-2.13","3VAR3R6G1QNEZXEXV4J888R9AII8OX","A3EC3OP6U52JYC","3DFYDSXB2WMWAZWJRSN67LWQ0PPJUT","","","null","","","","","","","",""
"1501","","image-keyboard-response","44","117125","0.0-2.0-0.14","3VAR3R6G1QNEZXEXV4J888R9AII8OX","A3EC3OP6U52JYC","3DFYDSXB2WMWAZWJRSN67LWQ0PPJUT","","img/practice/S3.jpg","72","3","practice","72","true","","","",""
"null","","html-keyboard-response","45","117443","0.0-2.0-1.14","3VAR3R6G1QNEZXEXV4J888R9AII8OX","A3EC3OP6U52JYC","3DFYDSXB2WMWAZWJRSN67LWQ0PPJUT","","<img src=""img/practice/S3.jpg"" width=""540"" height = ""360"" style=""border:16px solid orange"">","null","","","","","","","",""
"null","","html-keyboard-response","46","117444","0.0-2.0-2.14","3VAR3R6G1QNEZXEXV4J888R9AII8OX","A3EC3OP6U52JYC","3DFYDSXB2WMWAZWJRSN67LWQ0PPJUT","","","null","","","","","","","",""
"1190","","image-keyboard-response","47","118635","0.0-2.0-0.15","3VAR3R6G1QNEZXEXV4J888R9AII8OX","A3EC3OP6U52JYC","3DFYDSXB2WMWAZWJRSN67LWQ0PPJUT","","img/practice/S1.jpg","74","1","practice","83","false","","","",""
"null","","html-keyboard-response","48","118943","0.0-2.0-1.15","3VAR3R6G1QNEZXEXV4J888R9AII8OX","A3EC3OP6U52JYC","3DFYDSXB2WMWAZWJRSN67LWQ0PPJUT","","<img src=""img/practice/S1.jpg"" width=""540"" height = ""360"">","null","","","","","","","",""
"null","","html-keyboard-response","49","118944","0.0-2.0-2.15","3VAR3R6G1QNEZXEXV4J888R9AII8OX","A3EC3OP6U52JYC","3DFYDSXB2WMWAZWJRSN67LWQ0PPJUT","","","null","","","","","","","",""
"12","","image-keyboard-response","50","118957","0.0-2.0-0.16","3VAR3R6G1QNEZXEXV4J888R9AII8OX","A3EC3OP6U52JYC","3DFYDSXB2WMWAZWJRSN67LWQ0PPJUT","","img/practice/S1.jpg","83","1","practice","83","true","","","",""
"null","","html-keyboard-response","51","119263","0.0-2.0-1.16","3VAR3R6G1QNEZXEXV4J888R9AII8OX","A3EC3OP6U52JYC","3DFYDSXB2WMWAZWJRSN67LWQ0PPJUT","","<img src=""img/practice/S1.jpg"" width=""540"" height = ""360"" style=""border:16px solid orange"">","null","","","","","","","",""
"null","","html-keyboard-response","52","119283","0.0-2.0-2.16","3VAR3R6G1QNEZXEXV4J888R9AII8OX","A3EC3OP6U52JYC","3DFYDSXB2WMWAZWJRSN67LWQ0PPJUT","","","null","","","","","","","",""
"689","","image-keyboard-response","53","119973","0.0-2.0-0.17","3VAR3R6G1QNEZXEXV4J888R9AII8OX","A3EC3OP6U52JYC","3DFYDSXB2WMWAZWJRSN67LWQ0PPJUT","","img/practice/S3.jpg","68","3","practice","72","false","","","",""
"null","","html-keyboard-response","54","120293","0.0-2.0-1.17","3VAR3R6G1QNEZXEXV4J888R9AII8OX","A3EC3OP6U52JYC","3DFYDSXB2WMWAZWJRSN67LWQ0PPJUT","","<img src=""img/practice/S3.jpg"" width=""540"" height = ""360"">","null","","","","","","","",""
"null","","html-keyboard-response","55","120294","0.0-2.0-2.17","3VAR3R6G1QNEZXEXV4J888R9AII8OX","A3EC3OP6U52JYC","3DFYDSXB2WMWAZWJRSN67LWQ0PPJUT","","","null","","","","","","","",""
"673","","image-keyboard-response","56","120968","0.0-2.0-0.18","3VAR3R6G1QNEZXEXV4J888R9AII8OX","A3EC3OP6U52JYC","3DFYDSXB2WMWAZWJRSN67LWQ0PPJUT","","img/practice/S4.jpg","74","4","practice","74","true","","","",""
"null","","html-keyboard-response","57","121274","0.0-2.0-1.18","3VAR3R6G1QNEZXEXV4J888R9AII8OX","A3EC3OP6U52JYC","3DFYDSXB2WMWAZWJRSN67LWQ0PPJUT","","<img src=""img/practice/S4.jpg"" width=""540"" height = ""360"" style=""border:16px solid orange"">","null","","","","","","","",""
"null","","html-keyboard-response","58","121274","0.0-2.0-2.18","3VAR3R6G1QNEZXEXV4J888R9AII8OX","A3EC3OP6U52JYC","3DFYDSXB2WMWAZWJRSN67LWQ0PPJUT","","","null","","","","","","","",""
"986","","image-keyboard-response","59","122260","0.0-2.0-0.19","3VAR3R6G1QNEZXEXV4J888R9AII8OX","A3EC3OP6U52JYC","3DFYDSXB2WMWAZWJRSN67LWQ0PPJUT","","img/practice/S2.jpg","74","2","practice","68","false","","","",""
"null","","html-keyboard-response","60","122574","0.0-2.0-1.19","3VAR3R6G1QNEZXEXV4J888R9AII8OX","A3EC3OP6U52JYC","3DFYDSXB2WMWAZWJRSN67LWQ0PPJUT","","<img src=""img/practice/S2.jpg"" width=""540"" height = ""360"">","null","","","","","","","",""
"null","","html-keyboard-response","61","122575","0.0-2.0-2.19","3VAR3R6G1QNEZXEXV4J888R9AII8OX","A3EC3OP6U52JYC","3DFYDSXB2WMWAZWJRSN67LWQ0PPJUT","","","null","","","","","","","",""
"557","","image-keyboard-response","62","123133","0.0-2.0-0.20","3VAR3R6G1QNEZXEXV4J888R9AII8OX","A3EC3OP6U52JYC","3DFYDSXB2WMWAZWJRSN67LWQ0PPJUT","","img/practice/S2.jpg","83","2","practice","68","false","","","",""
"null","","html-keyboard-response","63","123453","0.0-2.0-1.20","3VAR3R6G1QNEZXEXV4J888R9AII8OX","A3EC3OP6U52JYC","3DFYDSXB2WMWAZWJRSN67LWQ0PPJUT","","<img src=""img/practice/S2.jpg"" width=""540"" height = ""360"">","null","","","","","","","",""
"null","","html-keyboard-response","64","123454","0.0-2.0-2.20","3VAR3R6G1QNEZXEXV4J888R9AII8OX","A3EC3OP6U52JYC","3DFYDSXB2WMWAZWJRSN67LWQ0PPJUT","","","null","","","","","","","",""
"440","","image-keyboard-response","65","123896","0.0-2.0-0.21","3VAR3R6G1QNEZXEXV4J888R9AII8OX","A3EC3OP6U52JYC","3DFYDSXB2WMWAZWJRSN67LWQ0PPJUT","","img/practice/S1.jpg","68","1","practice","83","false","","","",""
"null","","html-keyboard-response","66","124203","0.0-2.0-1.21","3VAR3R6G1QNEZXEXV4J888R9AII8OX","A3EC3OP6U52JYC","3DFYDSXB2WMWAZWJRSN67LWQ0PPJUT","","<img src=""img/practice/S1.jpg"" width=""540"" height = ""360"">","null","","","","","","","",""
"null","","html-keyboard-response","67","124204","0.0-2.0-2.21","3VAR3R6G1QNEZXEXV4J888R9AII8OX","A3EC3OP6U52JYC","3DFYDSXB2WMWAZWJRSN67LWQ0PPJUT","","","null","","","","","","","",""
"96","","image-keyboard-response","68","124301","0.0-2.0-0.22","3VAR3R6G1QNEZXEXV4J888R9AII8OX","A3EC3OP6U52JYC","3DFYDSXB2WMWAZWJRSN67LWQ0PPJUT","","img/practice/S3.jpg","72","3","practice","72","true","","","",""
"null","","html-keyboard-response","69","124614","0.0-2.0-1.22","3VAR3R6G1QNEZXEXV4J888R9AII8OX","A3EC3OP6U52JYC","3DFYDSXB2WMWAZWJRSN67LWQ0PPJUT","","<img src=""img/practice/S3.jpg"" width=""540"" height = ""360"" style=""border:16px solid orange"">","null","","","","","","","",""
"null","","html-keyboard-response","70","124615","0.0-2.0-2.22","3VAR3R6G1QNEZXEXV4J888R9AII8OX","A3EC3OP6U52JYC","3DFYDSXB2WMWAZWJRSN67LWQ0PPJUT","","","null","","","","","","","",""
"766","","image-keyboard-response","71","125382","0.0-2.0-0.23","3VAR3R6G1QNEZXEXV4J888R9AII8OX","A3EC3OP6U52JYC","3DFYDSXB2WMWAZWJRSN67LWQ0PPJUT","","img/practice/S4.jpg","74","4","practice","74","true","","","",""
"null","","html-keyboard-response","72","125694","0.0-2.0-1.23","3VAR3R6G1QNEZXEXV4J888R9AII8OX","A3EC3OP6U52JYC","3DFYDSXB2WMWAZWJRSN67LWQ0PPJUT","","<img src=""img/practice/S4.jpg"" width=""540"" height = ""360"" style=""border:16px solid orange"">","null","","","","","","","",""
"null","","html-keyboard-response","73","125695","0.0-2.0-2.23","3VAR3R6G1QNEZXEXV4J888R9AII8OX","A3EC3OP6U52JYC","3DFYDSXB2WMWAZWJRSN67LWQ0PPJUT","","","null","","","","","","","",""
"3320","","instructions","74","129016","0.0-3.0","3VAR3R6G1QNEZXEXV4J888R9AII8OX","A3EC3OP6U52JYC","3DFYDSXB2WMWAZWJRSN67LWQ0PPJUT","[{""page_index"":0,""viewing_time"":3320}]","","","","","","","","","",""
"16299","","instructions","75","145315","0.0-4.0","3VAR3R6G1QNEZXEXV4J888R9AII8OX","A3EC3OP6U52JYC","3DFYDSXB2WMWAZWJRSN67LWQ0PPJUT","[{""page_index"":0,""viewing_time"":16299}]","","","","","","","","","",""
"16788","","instructions","76","162104","0.0-5.0","3VAR3R6G1QNEZXEXV4J888R9AII8OX","A3EC3OP6U52JYC","3DFYDSXB2WMWAZWJRSN67LWQ0PPJUT","[{""page_index"":0,""viewing_time"":9850},{""page_index"":1,""viewing_time"":6938}]","","","","","","","","","",""
"906","","image-keyboard-response","77","163011","0.0-6.0","3VAR3R6G1QNEZXEXV4J888R9AII8OX","A3EC3OP6U52JYC","3DFYDSXB2WMWAZWJRSN67LWQ0PPJUT","","img/set1/S4.jpg","68","4","structured_incentive","74","false","structured_incentive,random,structured_normal","1,2,2,3","",""
"null","","html-keyboard-response","78","163373","0.0-7.0","3VAR3R6G1QNEZXEXV4J888R9AII8OX","A3EC3OP6U52JYC","3DFYDSXB2WMWAZWJRSN67LWQ0PPJUT","","<img src=""img/set1/S4.jpg"" width=""540"" height = ""360"">","null","","","","","","","",""
"null","","html-keyboard-response","79","163374","0.0-8.0","3VAR3R6G1QNEZXEXV4J888R9AII8OX","A3EC3OP6U52JYC","3DFYDSXB2WMWAZWJRSN67LWQ0PPJUT","","","null","","","","","","","",""
"1543","","image-keyboard-response","80","164919","0.0-9.0","3VAR3R6G1QNEZXEXV4J888R9AII8OX","A3EC3OP6U52JYC","3DFYDSXB2WMWAZWJRSN67LWQ0PPJUT","","img/set1/S1.jpg","83","1","structured_incentive","83","true","structured_incentive,random,structured_normal","1,2,2,3","",""
"null","","html-keyboard-response","81","165273","0.0-10.0","3VAR3R6G1QNEZXEXV4J888R9AII8OX","A3EC3OP6U52JYC","3DFYDSXB2WMWAZWJRSN67LWQ0PPJUT","","<img src=""img/set1/S1.jpg"" width=""540"" height = ""360"" style=""border:16px solid orange"">","null","","","","","","","",""
"null","","html-keyboard-response","82","165274","0.0-11.0","3VAR3R6G1QNEZXEXV4J888R9AII8OX","A3EC3OP6U52JYC","3DFYDSXB2WMWAZWJRSN67LWQ0PPJUT","","","null","","","","","","","",""
"812","","image-keyboard-response","83","166087","0.0-12.0","3VAR3R6G1QNEZXEXV4J888R9AII8OX","A3EC3OP6U52JYC","3DFYDSXB2WMWAZWJRSN67LWQ0PPJUT","","img/set1/S2.jpg","74","2","structured_incentive","68","false","structured_incentive,random,structured_normal","1,2,2,3","",""
"null","","html-keyboard-response","84","166453","0.0-13.0","3VAR3R6G1QNEZXEXV4J888R9AII8OX","A3EC3OP6U52JYC","3DFYDSXB2WMWAZWJRSN67LWQ0PPJUT","","<img src=""img/set1/S2.jpg"" width=""540"" height = ""360"">","null","","","","","","","",""
"null","","html-keyboard-response","85","166454","0.0-14.0","3VAR3R6G1QNEZXEXV4J888R9AII8OX","A3EC3OP6U52JYC","3DFYDSXB2WMWAZWJRSN67LWQ0PPJUT","","","null","","","","","","","",""
"896","","image-keyboard-response","86","167350","0.0-15.0","3VAR3R6G1QNEZXEXV4J888R9AII8OX","A3EC3OP6U52JYC","3DFYDSXB2WMWAZWJRSN67LWQ0PPJUT","","img/set1/S4.jpg","68","4","structured_incentive","74","false","structured_incentive,random,structured_normal","1,2,2,3","",""
"null","","html-keyboard-response","87","167714","0.0-16.0","3VAR3R6G1QNEZXEXV4J888R9AII8OX","A3EC3OP6U52JYC","3DFYDSXB2WMWAZWJRSN67LWQ0PPJUT","","<img src=""img/set1/S4.jpg"" width=""540"" height = ""360"">","null","","","","","","","",""
"null","","html-keyboard-response","88","167715","0.0-17.0","3VAR3R6G1QNEZXEXV4J888R9AII8OX","A3EC3OP6U52JYC","3DFYDSXB2WMWAZWJRSN67LWQ0PPJUT","","","null","","","","","","","",""
"1179","","image-keyboard-response","89","168894","0.0-18.0","3VAR3R6G1QNEZXEXV4J888R9AII8OX","A3EC3OP6U52JYC","3DFYDSXB2WMWAZWJRSN67LWQ0PPJUT","","img/set1/S3.jpg","68","3","structured_incentive","72","false","structured_incentive,random,structured_normal","1,2,2,3","",""
"null","","html-keyboard-response","90","169253","0.0-19.0","3VAR3R6G1QNEZXEXV4J888R9AII8OX","A3EC3OP6U52JYC","3DFYDSXB2WMWAZWJRSN67LWQ0PPJUT","","<img src=""img/set1/S3.jpg"" width=""540"" height = ""360"">","null","","","","","","","",""
"null","","html-keyboard-response","91","169254","0.0-20.0","3VAR3R6G1QNEZXEXV4J888R9AII8OX","A3EC3OP6U52JYC","3DFYDSXB2WMWAZWJRSN67LWQ0PPJUT","","","null","","","","","","","",""
"87","","image-keyboard-response","92","169342","0.0-21.0","3VAR3R6G1QNEZXEXV4J888R9AII8OX","A3EC3OP6U52JYC","3DFYDSXB2WMWAZWJRSN67LWQ0PPJUT","","img/set1/S1.jpg","72","1","structured_incentive","83","false","structured_incentive,random,structured_normal","1,2,2,3","",""
"null","","html-keyboard-response","93","169693","0.0-22.0","3VAR3R6G1QNEZXEXV4J888R9AII8OX","A3EC3OP6U52JYC","3DFYDSXB2WMWAZWJRSN67LWQ0PPJUT","","<img src=""img/set1/S1.jpg"" width=""540"" height = ""360"">","null","","","","","","","",""
"null","","html-keyboard-response","94","169694","0.0-23.0","3VAR3R6G1QNEZXEXV4J888R9AII8OX","A3EC3OP6U52JYC","3DFYDSXB2WMWAZWJRSN67LWQ0PPJUT","","","null","","","","","","","",""
"898","","image-keyboard-response","95","170592","0.0-24.0","3VAR3R6G1QNEZXEXV4J888R9AII8OX","A3EC3OP6U52JYC","3DFYDSXB2WMWAZWJRSN67LWQ0PPJUT","","img/set1/S2.jpg","74","2","structured_incentive","68","false","structured_incentive,random,structured_normal","1,2,2,3","",""
"null","","html-keyboard-response","96","170944","0.0-25.0","3VAR3R6G1QNEZXEXV4J888R9AII8OX","A3EC3OP6U52JYC","3DFYDSXB2WMWAZWJRSN67LWQ0PPJUT","","<img src=""img/set1/S2.jpg"" width=""540"" height = ""360"">","null","","","","","","","",""
"null","","html-keyboard-response","97","170944","0.0-26.0","3VAR3R6G1QNEZXEXV4J888R9AII8OX","A3EC3OP6U52JYC","3DFYDSXB2WMWAZWJRSN67LWQ0PPJUT","","","null","","","","","","","",""
"771","","image-keyboard-response","98","171716","0.0-27.0","3VAR3R6G1QNEZXEXV4J888R9AII8OX","A3EC3OP6U52JYC","3DFYDSXB2WMWAZWJRSN67LWQ0PPJUT","","img/set1/S1.jpg","83","1","structured_incentive","83","true","structured_incentive,random,structured_normal","1,2,2,3","",""
"null","","html-keyboard-response","99","172083","0.0-28.0","3VAR3R6G1QNEZXEXV4J888R9AII8OX","A3EC3OP6U52JYC","3DFYDSXB2WMWAZWJRSN67LWQ0PPJUT","","<img src=""img/set1/S1.jpg"" width=""540"" height = ""360"" style=""border:16px solid orange"">","null","","","","","","","",""
"null","","html-keyboard-response","100","172085","0.0-29.0","3VAR3R6G1QNEZXEXV4J888R9AII8OX","A3EC3OP6U52JYC","3DFYDSXB2WMWAZWJRSN67LWQ0PPJUT","","","null","","","","","","","",""
"777","","image-keyboard-response","101","172862","0.0-30.0","3VAR3R6G1QNEZXEXV4J888R9AII8OX","A3EC3OP6U52JYC","3DFYDSXB2WMWAZWJRSN67LWQ0PPJUT","","img/set1/S3.jpg","68","3","structured_incentive","72","false","structured_incentive,random,structured_normal","1,2,2,3","",""
"null","","html-keyboard-response","102","173223","0.0-31.0","3VAR3R6G1QNEZXEXV4J888R9AII8OX","A3EC3OP6U52JYC","3DFYDSXB2WMWAZWJRSN67LWQ0PPJUT","","<img src=""img/set1/S3.jpg"" width=""540"" height = ""360"">","null","","","","","","","",""
"null","","html-keyboard-response","103","173224","0.0-32.0","3VAR3R6G1QNEZXEXV4J888R9AII8OX","A3EC3OP6U52JYC","3DFYDSXB2WMWAZWJRSN67LWQ0PPJUT","","","null","","","","","","","",""
"3","","image-keyboard-response","104","173229","0.0-33.0","3VAR3R6G1QNEZXEXV4J888R9AII8OX","A3EC3OP6U52JYC","3DFYDSXB2WMWAZWJRSN67LWQ0PPJUT","","img/set1/S1.jpg","72","1","structured_incentive","83","false","structured_incentive,random,structured_normal","1,2,2,3","",""
"null","","html-keyboard-response","105","173583","0.0-34.0","3VAR3R6G1QNEZXEXV4J888R9AII8OX","A3EC3OP6U52JYC","3DFYDSXB2WMWAZWJRSN67LWQ0PPJUT","","<img src=""img/set1/S1.jpg"" width=""540"" height = ""360"">","null","","","","","","","",""
"null","","html-keyboard-response","106","173584","0.0-35.0","3VAR3R6G1QNEZXEXV4J888R9AII8OX","A3EC3OP6U52JYC","3DFYDSXB2WMWAZWJRSN67LWQ0PPJUT","","","null","","","","","","","",""
"960","","image-keyboard-response","107","174545","0.0-36.0","3VAR3R6G1QNEZXEXV4J888R9AII8OX","A3EC3OP6U52JYC","3DFYDSXB2WMWAZWJRSN67LWQ0PPJUT","","img/set1/S3.jpg","83","3","structured_incentive","72","false","structured_incentive,random,structured_normal","1,2,2,3","",""
"null","","html-keyboard-response","108","174903","0.0-37.0","3VAR3R6G1QNEZXEXV4J888R9AII8OX","A3EC3OP6U52JYC","3DFYDSXB2WMWAZWJRSN67LWQ0PPJUT","","<img src=""img/set1/S3.jpg"" width=""540"" height = ""360"">","null","","","","","","","",""
"null","","html-keyboard-response","109","174905","0.0-38.0","3VAR3R6G1QNEZXEXV4J888R9AII8OX","A3EC3OP6U52JYC","3DFYDSXB2WMWAZWJRSN67LWQ0PPJUT","","","null","","","","","","","",""
"945","","image-keyboard-response","110","175851","0.0-39.0","3VAR3R6G1QNEZXEXV4J888R9AII8OX","A3EC3OP6U52JYC","3DFYDSXB2WMWAZWJRSN67LWQ0PPJUT","","img/set1/S4.jpg","68","4","structured_incentive","74","false","structured_incentive,random,structured_normal","1,2,2,3","",""
"null","","html-keyboard-response","111","176203","0.0-40.0","3VAR3R6G1QNEZXEXV4J888R9AII8OX","A3EC3OP6U52JYC","3DFYDSXB2WMWAZWJRSN67LWQ0PPJUT","","<img src=""img/set1/S4.jpg"" width=""540"" height = ""360"">","null","","","","","","","",""
"null","","html-keyboard-response","112","176204","0.0-41.0","3VAR3R6G1QNEZXEXV4J888R9AII8OX","A3EC3OP6U52JYC","3DFYDSXB2WMWAZWJRSN67LWQ0PPJUT","","","null","","","","","","","",""
"750","","image-keyboard-response","113","176954","0.0-42.0","3VAR3R6G1QNEZXEXV4J888R9AII8OX","A3EC3OP6U52JYC","3DFYDSXB2WMWAZWJRSN67LWQ0PPJUT","","img/set1/S4.jpg","68","4","structured_incentive","74","false","structured_incentive,random,structured_normal","1,2,2,3","",""
"null","","html-keyboard-response","114","177323","0.0-43.0","3VAR3R6G1QNEZXEXV4J888R9AII8OX","A3EC3OP6U52JYC","3DFYDSXB2WMWAZWJRSN67LWQ0PPJUT","","<img src=""img/set1/S4.jpg"" width=""540"" height = ""360"">","null","","","","","","","",""
"null","","html-keyboard-response","115","177325","0.0-44.0","3VAR3R6G1QNEZXEXV4J888R9AII8OX","A3EC3OP6U52JYC","3DFYDSXB2WMWAZWJRSN67LWQ0PPJUT","","","null","","","","","","","",""
"822","","image-keyboard-response","116","178148","0.0-45.0","3VAR3R6G1QNEZXEXV4J888R9AII8OX","A3EC3OP6U52JYC","3DFYDSXB2WMWAZWJRSN67LWQ0PPJUT","","img/set1/S3.jpg","74","3","structured_incentive","72","false","structured_incentive,random,structured_normal","1,2,2,3","",""
"null","","html-keyboard-response","117","178503","0.0-46.0","3VAR3R6G1QNEZXEXV4J888R9AII8OX","A3EC3OP6U52JYC","3DFYDSXB2WMWAZWJRSN67LWQ0PPJUT","","<img src=""img/set1/S3.jpg"" width=""540"" height = ""360"">","null","","","","","","","",""
"null","","html-keyboard-response","118","178504","0.0-47.0","3VAR3R6G1QNEZXEXV4J888R9AII8OX","A3EC3OP6U52JYC","3DFYDSXB2WMWAZWJRSN67LWQ0PPJUT","","","null","","","","","","","",""
"723","","image-keyboard-response","119","179227","0.0-48.0","3VAR3R6G1QNEZXEXV4J888R9AII8OX","A3EC3OP6U52JYC","3DFYDSXB2WMWAZWJRSN67LWQ0PPJUT","","img/set1/S3.jpg","83","3","structured_incentive","72","false","structured_incentive,random,structured_normal","1,2,2,3","",""
"null","","html-keyboard-response","120","179583","0.0-49.0","3VAR3R6G1QNEZXEXV4J888R9AII8OX","A3EC3OP6U52JYC","3DFYDSXB2WMWAZWJRSN67LWQ0PPJUT","","<img src=""img/set1/S3.jpg"" width=""540"" height = ""360"">","null","","","","","","","",""
"null","","html-keyboard-response","121","179584","0.0-50.0","3VAR3R6G1QNEZXEXV4J888R9AII8OX","A3EC3OP6U52JYC","3DFYDSXB2WMWAZWJRSN67LWQ0PPJUT","","","null","","","","","","","",""
"608","","image-keyboard-response","122","180193","0.0-51.0","3VAR3R6G1QNEZXEXV4J888R9AII8OX","A3EC3OP6U52JYC","3DFYDSXB2WMWAZWJRSN67LWQ0PPJUT","","img/set1/S3.jpg","68","3","structured_incentive","72","false","structured_incentive,random,structured_normal","1,2,2,3","",""
"null","","html-keyboard-response","123","180563","0.0-52.0","3VAR3R6G1QNEZXEXV4J888R9AII8OX","A3EC3OP6U52JYC","3DFYDSXB2WMWAZWJRSN67LWQ0PPJUT","","<img src=""img/set1/S3.jpg"" width=""540"" height = ""360"">","null","","","","","","","",""
"null","","html-keyboard-response","124","180564","0.0-53.0","3VAR3R6G1QNEZXEXV4J888R9AII8OX","A3EC3OP6U52JYC","3DFYDSXB2WMWAZWJRSN67LWQ0PPJUT","","","null","","","","","","","",""
"415","","image-keyboard-response","125","180980","0.0-54.0","3VAR3R6G1QNEZXEXV4J888R9AII8OX","A3EC3OP6U52JYC","3DFYDSXB2WMWAZWJRSN67LWQ0PPJUT","","img/set1/S3.jpg","72","3","structured_incentive","72","true","structured_incentive,random,structured_normal","1,2,2,3","",""
"null","","html-keyboard-response","126","181344","0.0-55.0","3VAR3R6G1QNEZXEXV4J888R9AII8OX","A3EC3OP6U52JYC","3DFYDSXB2WMWAZWJRSN67LWQ0PPJUT","","<img src=""img/set1/S3.jpg"" width=""540"" height = ""360"" style=""border:16px solid Violet"">","null","","","","","","","",""
"null","","html-keyboard-response","127","181345","0.0-56.0","3VAR3R6G1QNEZXEXV4J888R9AII8OX","A3EC3OP6U52JYC","3DFYDSXB2WMWAZWJRSN67LWQ0PPJUT","","","null","","","","","","","",""
"754","","image-keyboard-response","128","182099","0.0-57.0","3VAR3R6G1QNEZXEXV4J888R9AII8OX","A3EC3OP6U52JYC","3DFYDSXB2WMWAZWJRSN67LWQ0PPJUT","","img/set1/S3.jpg","72","3","structured_incentive","72","true","structured_incentive,random,structured_normal","1,2,2,3","",""
"null","","html-keyboard-response","129","182463","0.0-58.0","3VAR3R6G1QNEZXEXV4J888R9AII8OX","A3EC3OP6U52JYC","3DFYDSXB2WMWAZWJRSN67LWQ0PPJUT","","<img src=""img/set1/S3.jpg"" width=""540"" height = ""360"" style=""border:16px solid Violet"">","null","","","","","","","",""
"null","","html-keyboard-response","130","182464","0.0-59.0","3VAR3R6G1QNEZXEXV4J888R9AII8OX","A3EC3OP6U52JYC","3DFYDSXB2WMWAZWJRSN67LWQ0PPJUT","","","null","","","","","","","",""
"529","","image-keyboard-response","131","182994","0.0-60.0","3VAR3R6G1QNEZXEXV4J888R9AII8OX","A3EC3OP6U52JYC","3DFYDSXB2WMWAZWJRSN67LWQ0PPJUT","","img/set1/S3.jpg","72","3","structured_incentive","72","true","structured_incentive,random,structured_normal","1,2,2,3","",""
"null","","html-keyboard-response","132","183364","0.0-61.0","3VAR3R6G1QNEZXEXV4J888R9AII8OX","A3EC3OP6U52JYC","3DFYDSXB2WMWAZWJRSN67LWQ0PPJUT","","<img src=""img/set1/S3.jpg"" width=""540"" height = ""360"" style=""border:16px solid Violet"">","null","","","","","","","",""
"null","","html-keyboard-response","133","183365","0.0-62.0","3VAR3R6G1QNEZXEXV4J888R9AII8OX","A3EC3OP6U52JYC","3DFYDSXB2WMWAZWJRSN67LWQ0PPJUT","","","null","","","","","","","",""
"950","","image-keyboard-response","134","184315","0.0-63.0","3VAR3R6G1QNEZXEXV4J888R9AII8OX","A3EC3OP6U52JYC","3DFYDSXB2WMWAZWJRSN67LWQ0PPJUT","","img/set1/S1.jpg","83","1","structured_incentive","83","true","structured_incentive,random,structured_normal","1,2,2,3","",""
"null","","html-keyboard-response","135","184683","0.0-64.0","3VAR3R6G1QNEZXEXV4J888R9AII8OX","A3EC3OP6U52JYC","3DFYDSXB2WMWAZWJRSN67LWQ0PPJUT","","<img src=""img/set1/S1.jpg"" width=""540"" height = ""360"" style=""border:16px solid orange"">","null","","","","","","","",""
"null","","html-keyboard-response","136","184685","0.0-65.0","3VAR3R6G1QNEZXEXV4J888R9AII8OX","A3EC3OP6U52JYC","3DFYDSXB2WMWAZWJRSN67LWQ0PPJUT","","","null","","","","","","","",""
"709","","image-keyboard-response","137","185393","0.0-66.0","3VAR3R6G1QNEZXEXV4J888R9AII8OX","A3EC3OP6U52JYC","3DFYDSXB2WMWAZWJRSN67LWQ0PPJUT","","img/set1/S3.jpg","72","3","structured_incentive","72","true","structured_incentive,random,structured_normal","1,2,2,3","",""
"null","","html-keyboard-response","138","185763","0.0-67.0","3VAR3R6G1QNEZXEXV4J888R9AII8OX","A3EC3OP6U52JYC","3DFYDSXB2WMWAZWJRSN67LWQ0PPJUT","","<img src=""img/set1/S3.jpg"" width=""540"" height = ""360"" style=""border:16px solid Violet"">","null","","","","","","","",""
"null","","html-keyboard-response","139","185764","0.0-68.0","3VAR3R6G1QNEZXEXV4J888R9AII8OX","A3EC3OP6U52JYC","3DFYDSXB2WMWAZWJRSN67LWQ0PPJUT","","","null","","","","","","","",""
"1352","","image-keyboard-response","140","187117","0.0-69.0","3VAR3R6G1QNEZXEXV4J888R9AII8OX","A3EC3OP6U52JYC","3DFYDSXB2WMWAZWJRSN67LWQ0PPJUT","","img/set1/S4.jpg","74","4","structured_incentive","74","true","structured_incentive,random,structured_normal","1,2,2,3","",""
"null","","html-keyboard-response","141","187483","0.0-70.0","3VAR3R6G1QNEZXEXV4J888R9AII8OX","A3EC3OP6U52JYC","3DFYDSXB2WMWAZWJRSN67LWQ0PPJUT","","<img src=""img/set1/S4.jpg"" width=""540"" height = ""360"" style=""border:16px solid orange"">","null","","","","","","","",""
"null","","html-keyboard-response","142","187484","0.0-71.0","3VAR3R6G1QNEZXEXV4J888R9AII8OX","A3EC3OP6U52JYC","3DFYDSXB2WMWAZWJRSN67LWQ0PPJUT","","","null","","","","","","","",""
"1085","","image-keyboard-response","143","188570","0.0-72.0","3VAR3R6G1QNEZXEXV4J888R9AII8OX","A3EC3OP6U52JYC","3DFYDSXB2WMWAZWJRSN67LWQ0PPJUT","","img/set1/S1.jpg","83","1","structured_incentive","83","true","structured_incentive,random,structured_normal","1,2,2,3","",""
"null","","html-keyboard-response","144","188923","0.0-73.0","3VAR3R6G1QNEZXEXV4J888R9AII8OX","A3EC3OP6U52JYC","3DFYDSXB2WMWAZWJRSN67LWQ0PPJUT","","<img src=""img/set1/S1.jpg"" width=""540"" height = ""360"" style=""border:16px solid orange"">","null","","","","","","","",""
"null","","html-keyboard-response","145","188925","0.0-74.0","3VAR3R6G1QNEZXEXV4J888R9AII8OX","A3EC3OP6U52JYC","3DFYDSXB2WMWAZWJRSN67LWQ0PPJUT","","","null","","","","","","","",""
"1223","","image-keyboard-response","146","190148","0.0-75.0","3VAR3R6G1QNEZXEXV4J888R9AII8OX","A3EC3OP6U52JYC","3DFYDSXB2WMWAZWJRSN67LWQ0PPJUT","","img/set1/S2.jpg","68","2","structured_incentive","68","true","structured_incentive,random,structured_normal","1,2,2,3","",""
"null","","html-keyboard-response","147","190503","0.0-76.0","3VAR3R6G1QNEZXEXV4J888R9AII8OX","A3EC3OP6U52JYC","3DFYDSXB2WMWAZWJRSN67LWQ0PPJUT","","<img src=""img/set1/S2.jpg"" width=""540"" height = ""360"" style=""border:16px solid orange"">","null","","","","","","","",""
"null","","html-keyboard-response","148","190504","0.0-77.0","3VAR3R6G1QNEZXEXV4J888R9AII8OX","A3EC3OP6U52JYC","3DFYDSXB2WMWAZWJRSN67LWQ0PPJUT","","","null","","","","","","","",""
"1070","","image-keyboard-response","149","191575","0.0-78.0","3VAR3R6G1QNEZXEXV4J888R9AII8OX","A3EC3OP6U52JYC","3DFYDSXB2WMWAZWJRSN67LWQ0PPJUT","","img/set1/S4.jpg","74","4","structured_incentive","74","true","structured_incentive,random,structured_normal","1,2,2,3","",""
"null","","html-keyboard-response","150","191943","0.0-79.0","3VAR3R6G1QNEZXEXV4J888R9AII8OX","A3EC3OP6U52JYC","3DFYDSXB2WMWAZWJRSN67LWQ0PPJUT","","<img src=""img/set1/S4.jpg"" width=""540"" height = ""360"" style=""border:16px solid orange"">","null","","","","","","","",""
"null","","html-keyboard-response","151","191944","0.0-80.0","3VAR3R6G1QNEZXEXV4J888R9AII8OX","A3EC3OP6U52JYC","3DFYDSXB2WMWAZWJRSN67LWQ0PPJUT","","","null","","","","","","","",""
"558","","image-keyboard-response","152","192504","0.0-81.0","3VAR3R6G1QNEZXEXV4J888R9AII8OX","A3EC3OP6U52JYC","3DFYDSXB2WMWAZWJRSN67LWQ0PPJUT","","img/set1/S4.jpg","74","4","structured_incentive","74","true","structured_incentive,random,structured_normal","1,2,2,3","",""
"null","","html-keyboard-response","153","192863","0.0-82.0","3VAR3R6G1QNEZXEXV4J888R9AII8OX","A3EC3OP6U52JYC","3DFYDSXB2WMWAZWJRSN67LWQ0PPJUT","","<img src=""img/set1/S4.jpg"" width=""540"" height = ""360"" style=""border:16px solid orange"">","null","","","","","","","",""
"null","","html-keyboard-response","154","192865","0.0-83.0","3VAR3R6G1QNEZXEXV4J888R9AII8OX","A3EC3OP6U52JYC","3DFYDSXB2WMWAZWJRSN67LWQ0PPJUT","","","null","","","","","","","",""
"545","","image-keyboard-response","155","193410","0.0-84.0","3VAR3R6G1QNEZXEXV4J888R9AII8OX","A3EC3OP6U52JYC","3DFYDSXB2WMWAZWJRSN67LWQ0PPJUT","","img/set1/S4.jpg","74","4","structured_incentive","74","true","structured_incentive,random,structured_normal","1,2,2,3","",""
"null","","html-keyboard-response","156","193764","0.0-85.0","3VAR3R6G1QNEZXEXV4J888R9AII8OX","A3EC3OP6U52JYC","3DFYDSXB2WMWAZWJRSN67LWQ0PPJUT","","<img src=""img/set1/S4.jpg"" width=""540"" height = ""360"" style=""border:16px solid orange"">","null","","","","","","","",""
"null","","html-keyboard-response","157","193765","0.0-86.0","3VAR3R6G1QNEZXEXV4J888R9AII8OX","A3EC3OP6U52JYC","3DFYDSXB2WMWAZWJRSN67LWQ0PPJUT","","","null","","","","","","","",""
"611","","image-keyboard-response","158","194376","0.0-87.0","3VAR3R6G1QNEZXEXV4J888R9AII8OX","A3EC3OP6U52JYC","3DFYDSXB2WMWAZWJRSN67LWQ0PPJUT","","img/set1/S4.jpg","74","4","structured_incentive","74","true","structured_incentive,random,structured_normal","1,2,2,3","",""
"null","","html-keyboard-response","159","194743","0.0-88.0","3VAR3R6G1QNEZXEXV4J888R9AII8OX","A3EC3OP6U52JYC","3DFYDSXB2WMWAZWJRSN67LWQ0PPJUT","","<img src=""img/set1/S4.jpg"" width=""540"" height = ""360"" style=""border:16px solid orange"">","null","","","","","","","",""
"null","","html-keyboard-response","160","194745","0.0-89.0","3VAR3R6G1QNEZXEXV4J888R9AII8OX","A3EC3OP6U52JYC","3DFYDSXB2WMWAZWJRSN67LWQ0PPJUT","","","null","","","","","","","",""
"589","","image-keyboard-response","161","195334","0.0-90.0","3VAR3R6G1QNEZXEXV4J888R9AII8OX","A3EC3OP6U52JYC","3DFYDSXB2WMWAZWJRSN67LWQ0PPJUT","","img/set1/S4.jpg","74","4","structured_incentive","74","true","structured_incentive,random,structured_normal","1,2,2,3","",""
"null","","html-keyboard-response","162","195703","0.0-91.0","3VAR3R6G1QNEZXEXV4J888R9AII8OX","A3EC3OP6U52JYC","3DFYDSXB2WMWAZWJRSN67LWQ0PPJUT","","<img src=""img/set1/S4.jpg"" width=""540"" height = ""360"" style=""border:16px solid orange"">","null","","","","","","","",""
"null","","html-keyboard-response","163","195704","0.0-92.0","3VAR3R6G1QNEZXEXV4J888R9AII8OX","A3EC3OP6U52JYC","3DFYDSXB2WMWAZWJRSN67LWQ0PPJUT","","","null","","","","","","","",""
"1103","","image-keyboard-response","164","196808","0.0-93.0","3VAR3R6G1QNEZXEXV4J888R9AII8OX","A3EC3OP6U52JYC","3DFYDSXB2WMWAZWJRSN67LWQ0PPJUT","","img/set1/S1.jpg","83","1","structured_incentive","83","true","structured_incentive,random,structured_normal","1,2,2,3","",""
"null","","html-keyboard-response","165","197164","0.0-94.0","3VAR3R6G1QNEZXEXV4J888R9AII8OX","A3EC3OP6U52JYC","3DFYDSXB2WMWAZWJRSN67LWQ0PPJUT","","<img src=""img/set1/S1.jpg"" width=""540"" height = ""360"" style=""border:16px solid orange"">","null","","","","","","","",""
"null","","html-keyboard-response","166","197165","0.0-95.0","3VAR3R6G1QNEZXEXV4J888R9AII8OX","A3EC3OP6U52JYC","3DFYDSXB2WMWAZWJRSN67LWQ0PPJUT","","","null","","","","","","","",""
"1129","","image-keyboard-response","167","198294","0.0-96.0","3VAR3R6G1QNEZXEXV4J888R9AII8OX","A3EC3OP6U52JYC","3DFYDSXB2WMWAZWJRSN67LWQ0PPJUT","","img/set1/S2.jpg","68","2","structured_incentive","68","true","structured_incentive,random,structured_normal","1,2,2,3","",""
"null","","html-keyboard-response","168","198664","0.0-97.0","3VAR3R6G1QNEZXEXV4J888R9AII8OX","A3EC3OP6U52JYC","3DFYDSXB2WMWAZWJRSN67LWQ0PPJUT","","<img src=""img/set1/S2.jpg"" width=""540"" height = ""360"" style=""border:16px solid orange"">","null","","","","","","","",""
"null","","html-keyboard-response","169","198665","0.0-98.0","3VAR3R6G1QNEZXEXV4J888R9AII8OX","A3EC3OP6U52JYC","3DFYDSXB2WMWAZWJRSN67LWQ0PPJUT","","","null","","","","","","","",""
"564","","image-keyboard-response","170","199229","0.0-99.0","3VAR3R6G1QNEZXEXV4J888R9AII8OX","A3EC3OP6U52JYC","3DFYDSXB2WMWAZWJRSN67LWQ0PPJUT","","img/set1/S2.jpg","68","2","structured_incentive","68","true","structured_incentive,random,structured_normal","1,2,2,3","",""
"null","","html-keyboard-response","171","199584","0.0-100.0","3VAR3R6G1QNEZXEXV4J888R9AII8OX","A3EC3OP6U52JYC","3DFYDSXB2WMWAZWJRSN67LWQ0PPJUT","","<img src=""img/set1/S2.jpg"" width=""540"" height = ""360"" style=""border:16px solid orange"">","null","","","","","","","",""
"null","","html-keyboard-response","172","199584","0.0-101.0","3VAR3R6G1QNEZXEXV4J888R9AII8OX","A3EC3OP6U52JYC","3DFYDSXB2WMWAZWJRSN67LWQ0PPJUT","","","null","","","","","","","",""
"958","","image-keyboard-response","173","200543","0.0-102.0","3VAR3R6G1QNEZXEXV4J888R9AII8OX","A3EC3OP6U52JYC","3DFYDSXB2WMWAZWJRSN67LWQ0PPJUT","","img/set1/S4.jpg","74","4","structured_incentive","74","true","structured_incentive,random,structured_normal","1,2,2,3","",""
"null","","html-keyboard-response","174","200913","0.0-103.0","3VAR3R6G1QNEZXEXV4J888R9AII8OX","A3EC3OP6U52JYC","3DFYDSXB2WMWAZWJRSN67LWQ0PPJUT","","<img src=""img/set1/S4.jpg"" width=""540"" height = ""360"" style=""border:16px solid orange"">","null","","","","","","","",""
"null","","html-keyboard-response","175","200914","0.0-104.0","3VAR3R6G1QNEZXEXV4J888R9AII8OX","A3EC3OP6U52JYC","3DFYDSXB2WMWAZWJRSN67LWQ0PPJUT","","","null","","","","","","","",""
"910","","image-keyboard-response","176","201824","0.0-105.0","3VAR3R6G1QNEZXEXV4J888R9AII8OX","A3EC3OP6U52JYC","3DFYDSXB2WMWAZWJRSN67LWQ0PPJUT","","img/set1/S1.jpg","83","1","structured_incentive","83","true","structured_incentive,random,structured_normal","1,2,2,3","",""
"null","","html-keyboard-response","177","202193","0.0-106.0","3VAR3R6G1QNEZXEXV4J888R9AII8OX","A3EC3OP6U52JYC","3DFYDSXB2WMWAZWJRSN67LWQ0PPJUT","","<img src=""img/set1/S1.jpg"" width=""540"" height = ""360"" style=""border:16px solid orange"">","null","","","","","","","",""
"null","","html-keyboard-response","178","202194","0.0-107.0","3VAR3R6G1QNEZXEXV4J888R9AII8OX","A3EC3OP6U52JYC","3DFYDSXB2WMWAZWJRSN67LWQ0PPJUT","","","null","","","","","","","",""
"861","","image-keyboard-response","179","203055","0.0-108.0","3VAR3R6G1QNEZXEXV4J888R9AII8OX","A3EC3OP6U52JYC","3DFYDSXB2WMWAZWJRSN67LWQ0PPJUT","","img/set1/S2.jpg","74","2","structured_incentive","68","false","structured_incentive,random,structured_normal","1,2,2,3","",""
"null","","html-keyboard-response","180","203413","0.0-109.0","3VAR3R6G1QNEZXEXV4J888R9AII8OX","A3EC3OP6U52JYC","3DFYDSXB2WMWAZWJRSN67LWQ0PPJUT","","<img src=""img/set1/S2.jpg"" width=""540"" height = ""360"">","null","","","","","","","",""
"null","","html-keyboard-response","181","203414","0.0-110.0","3VAR3R6G1QNEZXEXV4J888R9AII8OX","A3EC3OP6U52JYC","3DFYDSXB2WMWAZWJRSN67LWQ0PPJUT","","","null","","","","","","","",""
"428","","image-keyboard-response","182","203841","0.0-111.0","3VAR3R6G1QNEZXEXV4J888R9AII8OX","A3EC3OP6U52JYC","3DFYDSXB2WMWAZWJRSN67LWQ0PPJUT","","img/set1/S2.jpg","68","2","structured_incentive","68","true","structured_incentive,random,structured_normal","1,2,2,3","",""
"null","","html-keyboard-response","183","204193","0.0-112.0","3VAR3R6G1QNEZXEXV4J888R9AII8OX","A3EC3OP6U52JYC","3DFYDSXB2WMWAZWJRSN67LWQ0PPJUT","","<img src=""img/set1/S2.jpg"" width=""540"" height = ""360"" style=""border:16px solid orange"">","null","","","","","","","",""
"null","","html-keyboard-response","184","204194","0.0-113.0","3VAR3R6G1QNEZXEXV4J888R9AII8OX","A3EC3OP6U52JYC","3DFYDSXB2WMWAZWJRSN67LWQ0PPJUT","","","null","","","","","","","",""
"1010","","image-keyboard-response","185","205205","0.0-114.0","3VAR3R6G1QNEZXEXV4J888R9AII8OX","A3EC3OP6U52JYC","3DFYDSXB2WMWAZWJRSN67LWQ0PPJUT","","img/set1/S3.jpg","72","3","structured_incentive","72","true","structured_incentive,random,structured_normal","1,2,2,3","",""
"null","","html-keyboard-response","186","205573","0.0-115.0","3VAR3R6G1QNEZXEXV4J888R9AII8OX","A3EC3OP6U52JYC","3DFYDSXB2WMWAZWJRSN67LWQ0PPJUT","","<img src=""img/set1/S3.jpg"" width=""540"" height = ""360"" style=""border:16px solid Violet"">","null","","","","","","","",""
"null","","html-keyboard-response","187","205574","0.0-116.0","3VAR3R6G1QNEZXEXV4J888R9AII8OX","A3EC3OP6U52JYC","3DFYDSXB2WMWAZWJRSN67LWQ0PPJUT","","","null","","","","","","","",""
"1101","","image-keyboard-response","188","206675","0.0-117.0","3VAR3R6G1QNEZXEXV4J888R9AII8OX","A3EC3OP6U52JYC","3DFYDSXB2WMWAZWJRSN67LWQ0PPJUT","","img/set1/S1.jpg","83","1","structured_incentive","83","true","structured_incentive,random,structured_normal","1,2,2,3","",""
"null","","html-keyboard-response","189","207032","0.0-118.0","3VAR3R6G1QNEZXEXV4J888R9AII8OX","A3EC3OP6U52JYC","3DFYDSXB2WMWAZWJRSN67LWQ0PPJUT","","<img src=""img/set1/S1.jpg"" width=""540"" height = ""360"" style=""border:16px solid orange"">","null","","","","","","","",""
"null","","html-keyboard-response","190","207034","0.0-119.0","3VAR3R6G1QNEZXEXV4J888R9AII8OX","A3EC3OP6U52JYC","3DFYDSXB2WMWAZWJRSN67LWQ0PPJUT","","","null","","","","","","","",""
"859","","image-keyboard-response","191","207894","0.0-120.0","3VAR3R6G1QNEZXEXV4J888R9AII8OX","A3EC3OP6U52JYC","3DFYDSXB2WMWAZWJRSN67LWQ0PPJUT","","img/set1/S2.jpg","68","2","structured_incentive","68","true","structured_incentive,random,structured_normal","1,2,2,3","",""
"null","","html-keyboard-response","192","208253","0.0-121.0","3VAR3R6G1QNEZXEXV4J888R9AII8OX","A3EC3OP6U52JYC","3DFYDSXB2WMWAZWJRSN67LWQ0PPJUT","","<img src=""img/set1/S2.jpg"" width=""540"" height = ""360"" style=""border:16px solid orange"">","null","","","","","","","",""
"null","","html-keyboard-response","193","208254","0.0-122.0","3VAR3R6G1QNEZXEXV4J888R9AII8OX","A3EC3OP6U52JYC","3DFYDSXB2WMWAZWJRSN67LWQ0PPJUT","","","null","","","","","","","",""
"803","","image-keyboard-response","194","209058","0.0-123.0","3VAR3R6G1QNEZXEXV4J888R9AII8OX","A3EC3OP6U52JYC","3DFYDSXB2WMWAZWJRSN67LWQ0PPJUT","","img/set1/S4.jpg","74","4","structured_incentive","74","true","structured_incentive,random,structured_normal","1,2,2,3","",""
"null","","html-keyboard-response","195","209413","0.0-124.0","3VAR3R6G1QNEZXEXV4J888R9AII8OX","A3EC3OP6U52JYC","3DFYDSXB2WMWAZWJRSN67LWQ0PPJUT","","<img src=""img/set1/S4.jpg"" width=""540"" height = ""360"" style=""border:16px solid orange"">","null","","","","","","","",""
"null","","html-keyboard-response","196","209413","0.0-125.0","3VAR3R6G1QNEZXEXV4J888R9AII8OX","A3EC3OP6U52JYC","3DFYDSXB2WMWAZWJRSN67LWQ0PPJUT","","","null","","","","","","","",""
"711","","image-keyboard-response","197","210126","0.0-126.0","3VAR3R6G1QNEZXEXV4J888R9AII8OX","A3EC3OP6U52JYC","3DFYDSXB2WMWAZWJRSN67LWQ0PPJUT","","img/set1/S1.jpg","72","1","structured_incentive","83","false","structured_incentive,random,structured_normal","1,2,2,3","",""
"null","","html-keyboard-response","198","210494","0.0-127.0","3VAR3R6G1QNEZXEXV4J888R9AII8OX","A3EC3OP6U52JYC","3DFYDSXB2WMWAZWJRSN67LWQ0PPJUT","","<img src=""img/set1/S1.jpg"" width=""540"" height = ""360"">","null","","","","","","","",""
"null","","html-keyboard-response","199","210495","0.0-128.0","3VAR3R6G1QNEZXEXV4J888R9AII8OX","A3EC3OP6U52JYC","3DFYDSXB2WMWAZWJRSN67LWQ0PPJUT","","","null","","","","","","","",""
"928","","image-keyboard-response","200","211423","0.0-129.0","3VAR3R6G1QNEZXEXV4J888R9AII8OX","A3EC3OP6U52JYC","3DFYDSXB2WMWAZWJRSN67LWQ0PPJUT","","img/set1/S2.jpg","83","2","structured_incentive","68","false","structured_incentive,random,structured_normal","1,2,2,3","",""
"null","","html-keyboard-response","201","211793","0.0-130.0","3VAR3R6G1QNEZXEXV4J888R9AII8OX","A3EC3OP6U52JYC","3DFYDSXB2WMWAZWJRSN67LWQ0PPJUT","","<img src=""img/set1/S2.jpg"" width=""540"" height = ""360"">","null","","","","","","","",""
"null","","html-keyboard-response","202","211794","0.0-131.0","3VAR3R6G1QNEZXEXV4J888R9AII8OX","A3EC3OP6U52JYC","3DFYDSXB2WMWAZWJRSN67LWQ0PPJUT","","","null","","","","","","","",""
"682","","image-keyboard-response","203","212476","0.0-132.0","3VAR3R6G1QNEZXEXV4J888R9AII8OX","A3EC3OP6U52JYC","3DFYDSXB2WMWAZWJRSN67LWQ0PPJUT","","img/set1/S1.jpg","72","1","structured_incentive","83","false","structured_incentive,random,structured_normal","1,2,2,3","",""
"null","","html-keyboard-response","204","212833","0.0-133.0","3VAR3R6G1QNEZXEXV4J888R9AII8OX","A3EC3OP6U52JYC","3DFYDSXB2WMWAZWJRSN67LWQ0PPJUT","","<img src=""img/set1/S1.jpg"" width=""540"" height = ""360"">","null","","","","","","","",""
"null","","html-keyboard-response","205","212835","0.0-134.0","3VAR3R6G1QNEZXEXV4J888R9AII8OX","A3EC3OP6U52JYC","3DFYDSXB2WMWAZWJRSN67LWQ0PPJUT","","","null","","","","","","","",""
"696","","image-keyboard-response","206","213531","0.0-135.0","3VAR3R6G1QNEZXEXV4J888R9AII8OX","A3EC3OP6U52JYC","3DFYDSXB2WMWAZWJRSN67LWQ0PPJUT","","img/set1/S2.jpg","68","2","structured_incentive","68","true","structured_incentive,random,structured_normal","1,2,2,3","",""
"null","","html-keyboard-response","207","213893","0.0-136.0","3VAR3R6G1QNEZXEXV4J888R9AII8OX","A3EC3OP6U52JYC","3DFYDSXB2WMWAZWJRSN67LWQ0PPJUT","","<img src=""img/set1/S2.jpg"" width=""540"" height = ""360"" style=""border:16px solid orange"">","null","","","","","","","",""
"null","","html-keyboard-response","208","213895","0.0-137.0","3VAR3R6G1QNEZXEXV4J888R9AII8OX","A3EC3OP6U52JYC","3DFYDSXB2WMWAZWJRSN67LWQ0PPJUT","","","null","","","","","","","",""
"735","","image-keyboard-response","209","214629","0.0-138.0","3VAR3R6G1QNEZXEXV4J888R9AII8OX","A3EC3OP6U52JYC","3DFYDSXB2WMWAZWJRSN67LWQ0PPJUT","","img/set1/S1.jpg","74","1","structured_incentive","83","false","structured_incentive,random,structured_normal","1,2,2,3","",""
"null","","html-keyboard-response","210","214993","0.0-139.0","3VAR3R6G1QNEZXEXV4J888R9AII8OX","A3EC3OP6U52JYC","3DFYDSXB2WMWAZWJRSN67LWQ0PPJUT","","<img src=""img/set1/S1.jpg"" width=""540"" height = ""360"">","null","","","","","","","",""
"null","","html-keyboard-response","211","214994","0.0-140.0","3VAR3R6G1QNEZXEXV4J888R9AII8OX","A3EC3OP6U52JYC","3DFYDSXB2WMWAZWJRSN67LWQ0PPJUT","","","null","","","","","","","",""
"778","","image-keyboard-response","212","215773","0.0-141.0","3VAR3R6G1QNEZXEXV4J888R9AII8OX","A3EC3OP6U52JYC","3DFYDSXB2WMWAZWJRSN67LWQ0PPJUT","","img/set1/S2.jpg","68","2","structured_incentive","68","true","structured_incentive,random,structured_normal","1,2,2,3","",""
"null","","html-keyboard-response","213","216133","0.0-142.0","3VAR3R6G1QNEZXEXV4J888R9AII8OX","A3EC3OP6U52JYC","3DFYDSXB2WMWAZWJRSN67LWQ0PPJUT","","<img src=""img/set1/S2.jpg"" width=""540"" height = ""360"" style=""border:16px solid orange"">","null","","","","","","","",""
"null","","html-keyboard-response","214","216134","0.0-143.0","3VAR3R6G1QNEZXEXV4J888R9AII8OX","A3EC3OP6U52JYC","3DFYDSXB2WMWAZWJRSN67LWQ0PPJUT","","","null","","","","","","","",""
"881","","image-keyboard-response","215","217016","0.0-144.0","3VAR3R6G1QNEZXEXV4J888R9AII8OX","A3EC3OP6U52JYC","3DFYDSXB2WMWAZWJRSN67LWQ0PPJUT","","img/set1/S3.jpg","72","3","structured_incentive","72","true","structured_incentive,random,structured_normal","1,2,2,3","",""
"null","","html-keyboard-response","216","217373","0.0-145.0","3VAR3R6G1QNEZXEXV4J888R9AII8OX","A3EC3OP6U52JYC","3DFYDSXB2WMWAZWJRSN67LWQ0PPJUT","","<img src=""img/set1/S3.jpg"" width=""540"" height = ""360"" style=""border:16px solid Violet"">","null","","","","","","","",""
"null","","html-keyboard-response","217","217375","0.0-146.0","3VAR3R6G1QNEZXEXV4J888R9AII8OX","A3EC3OP6U52JYC","3DFYDSXB2WMWAZWJRSN67LWQ0PPJUT","","","null","","","","","","","",""
"805","","image-keyboard-response","218","218180","0.0-147.0","3VAR3R6G1QNEZXEXV4J888R9AII8OX","A3EC3OP6U52JYC","3DFYDSXB2WMWAZWJRSN67LWQ0PPJUT","","img/set1/S1.jpg","83","1","structured_incentive","83","true","structured_incentive,random,structured_normal","1,2,2,3","",""
"null","","html-keyboard-response","219","218531","0.0-148.0","3VAR3R6G1QNEZXEXV4J888R9AII8OX","A3EC3OP6U52JYC","3DFYDSXB2WMWAZWJRSN67LWQ0PPJUT","","<img src=""img/set1/S1.jpg"" width=""540"" height = ""360"" style=""border:16px solid orange"">","null","","","","","","","",""
"null","","html-keyboard-response","220","218532","0.0-149.0","3VAR3R6G1QNEZXEXV4J888R9AII8OX","A3EC3OP6U52JYC","3DFYDSXB2WMWAZWJRSN67LWQ0PPJUT","","","null","","","","","","","",""
"773","","image-keyboard-response","221","219305","0.0-150.0","3VAR3R6G1QNEZXEXV4J888R9AII8OX","A3EC3OP6U52JYC","3DFYDSXB2WMWAZWJRSN67LWQ0PPJUT","","img/set1/S3.jpg","72","3","structured_incentive","72","true","structured_incentive,random,structured_normal","1,2,2,3","",""
"null","","html-keyboard-response","222","219673","0.0-151.0","3VAR3R6G1QNEZXEXV4J888R9AII8OX","A3EC3OP6U52JYC","3DFYDSXB2WMWAZWJRSN67LWQ0PPJUT","","<img src=""img/set1/S3.jpg"" width=""540"" height = ""360"" style=""border:16px solid Violet"">","null","","","","","","","",""
"null","","html-keyboard-response","223","219675","0.0-152.0","3VAR3R6G1QNEZXEXV4J888R9AII8OX","A3EC3OP6U52JYC","3DFYDSXB2WMWAZWJRSN67LWQ0PPJUT","","","null","","","","","","","",""
"700","","image-keyboard-response","224","220375","0.0-153.0","3VAR3R6G1QNEZXEXV4J888R9AII8OX","A3EC3OP6U52JYC","3DFYDSXB2WMWAZWJRSN67LWQ0PPJUT","","img/set1/S1.jpg","83","1","structured_incentive","83","true","structured_incentive,random,structured_normal","1,2,2,3","",""
"null","","html-keyboard-response","225","220733","0.0-154.0","3VAR3R6G1QNEZXEXV4J888R9AII8OX","A3EC3OP6U52JYC","3DFYDSXB2WMWAZWJRSN67LWQ0PPJUT","","<img src=""img/set1/S1.jpg"" width=""540"" height = ""360"" style=""border:16px solid orange"">","null","","","","","","","",""
"null","","html-keyboard-response","226","220734","0.0-155.0","3VAR3R6G1QNEZXEXV4J888R9AII8OX","A3EC3OP6U52JYC","3DFYDSXB2WMWAZWJRSN67LWQ0PPJUT","","","null","","","","","","","",""
"881","","image-keyboard-response","227","221616","0.0-156.0","3VAR3R6G1QNEZXEXV4J888R9AII8OX","A3EC3OP6U52JYC","3DFYDSXB2WMWAZWJRSN67LWQ0PPJUT","","img/set1/S2.jpg","74","2","structured_incentive","68","false","structured_incentive,random,structured_normal","1,2,2,3","",""
"null","","html-keyboard-response","228","221974","0.0-157.0","3VAR3R6G1QNEZXEXV4J888R9AII8OX","A3EC3OP6U52JYC","3DFYDSXB2WMWAZWJRSN67LWQ0PPJUT","","<img src=""img/set1/S2.jpg"" width=""540"" height = ""360"">","null","","","","","","","",""
"null","","html-keyboard-response","229","221974","0.0-158.0","3VAR3R6G1QNEZXEXV4J888R9AII8OX","A3EC3OP6U52JYC","3DFYDSXB2WMWAZWJRSN67LWQ0PPJUT","","","null","","","","","","","",""
"64","","image-keyboard-response","230","222039","0.0-159.0","3VAR3R6G1QNEZXEXV4J888R9AII8OX","A3EC3OP6U52JYC","3DFYDSXB2WMWAZWJRSN67LWQ0PPJUT","","img/set1/S1.jpg","83","1","structured_incentive","83","true","structured_incentive,random,structured_normal","1,2,2,3","",""
"null","","html-keyboard-response","231","222393","0.0-160.0","3VAR3R6G1QNEZXEXV4J888R9AII8OX","A3EC3OP6U52JYC","3DFYDSXB2WMWAZWJRSN67LWQ0PPJUT","","<img src=""img/set1/S1.jpg"" width=""540"" height = ""360"" style=""border:16px solid orange"">","null","","","","","","","",""
"null","","html-keyboard-response","232","222394","0.0-161.0","3VAR3R6G1QNEZXEXV4J888R9AII8OX","A3EC3OP6U52JYC","3DFYDSXB2WMWAZWJRSN67LWQ0PPJUT","","","null","","","","","","","",""
"1150","","image-keyboard-response","233","223545","0.0-162.0","3VAR3R6G1QNEZXEXV4J888R9AII8OX","A3EC3OP6U52JYC","3DFYDSXB2WMWAZWJRSN67LWQ0PPJUT","","img/set1/S3.jpg","72","3","structured_incentive","72","true","structured_incentive,random,structured_normal","1,2,2,3","",""
"null","","html-keyboard-response","234","223913","0.0-163.0","3VAR3R6G1QNEZXEXV4J888R9AII8OX","A3EC3OP6U52JYC","3DFYDSXB2WMWAZWJRSN67LWQ0PPJUT","","<img src=""img/set1/S3.jpg"" width=""540"" height = ""360"" style=""border:16px solid Violet"">","null","","","","","","","",""
"null","","html-keyboard-response","235","223913","0.0-164.0","3VAR3R6G1QNEZXEXV4J888R9AII8OX","A3EC3OP6U52JYC","3DFYDSXB2WMWAZWJRSN67LWQ0PPJUT","","","null","","","","","","","",""
"556","","image-keyboard-response","236","224470","0.0-165.0","3VAR3R6G1QNEZXEXV4J888R9AII8OX","A3EC3OP6U52JYC","3DFYDSXB2WMWAZWJRSN67LWQ0PPJUT","","img/set1/S3.jpg","72","3","structured_incentive","72","true","structured_incentive,random,structured_normal","1,2,2,3","",""
"null","","html-keyboard-response","237","224834","0.0-166.0","3VAR3R6G1QNEZXEXV4J888R9AII8OX","A3EC3OP6U52JYC","3DFYDSXB2WMWAZWJRSN67LWQ0PPJUT","","<img src=""img/set1/S3.jpg"" width=""540"" height = ""360"" style=""border:16px solid Violet"">","null","","","","","","","",""
"null","","html-keyboard-response","238","224835","0.0-167.0","3VAR3R6G1QNEZXEXV4J888R9AII8OX","A3EC3OP6U52JYC","3DFYDSXB2WMWAZWJRSN67LWQ0PPJUT","","","null","","","","","","","",""
"462","","image-keyboard-response","239","225297","0.0-168.0","3VAR3R6G1QNEZXEXV4J888R9AII8OX","A3EC3OP6U52JYC","3DFYDSXB2WMWAZWJRSN67LWQ0PPJUT","","img/set1/S3.jpg","72","3","structured_incentive","72","true","structured_incentive,random,structured_normal","1,2,2,3","",""
"null","","html-keyboard-response","240","225652","0.0-169.0","3VAR3R6G1QNEZXEXV4J888R9AII8OX","A3EC3OP6U52JYC","3DFYDSXB2WMWAZWJRSN67LWQ0PPJUT","","<img src=""img/set1/S3.jpg"" width=""540"" height = ""360"" style=""border:16px solid Violet"">","null","","","","","","","",""
"null","","html-keyboard-response","241","225653","0.0-170.0","3VAR3R6G1QNEZXEXV4J888R9AII8OX","A3EC3OP6U52JYC","3DFYDSXB2WMWAZWJRSN67LWQ0PPJUT","","","null","","","","","","","",""
"751","","image-keyboard-response","242","226404","0.0-171.0","3VAR3R6G1QNEZXEXV4J888R9AII8OX","A3EC3OP6U52JYC","3DFYDSXB2WMWAZWJRSN67LWQ0PPJUT","","img/set1/S1.jpg","83","1","structured_incentive","83","true","structured_incentive,random,structured_normal","1,2,2,3","",""
"null","","html-keyboard-response","243","226774","0.0-172.0","3VAR3R6G1QNEZXEXV4J888R9AII8OX","A3EC3OP6U52JYC","3DFYDSXB2WMWAZWJRSN67LWQ0PPJUT","","<img src=""img/set1/S1.jpg"" width=""540"" height = ""360"" style=""border:16px solid orange"">","null","","","","","","","",""
"null","","html-keyboard-response","244","226774","0.0-173.0","3VAR3R6G1QNEZXEXV4J888R9AII8OX","A3EC3OP6U52JYC","3DFYDSXB2WMWAZWJRSN67LWQ0PPJUT","","","null","","","","","","","",""
"910","","image-keyboard-response","245","227684","0.0-174.0","3VAR3R6G1QNEZXEXV4J888R9AII8OX","A3EC3OP6U52JYC","3DFYDSXB2WMWAZWJRSN67LWQ0PPJUT","","img/set1/S2.jpg","68","2","structured_incentive","68","true","structured_incentive,random,structured_normal","1,2,2,3","",""
"null","","html-keyboard-response","246","228053","0.0-175.0","3VAR3R6G1QNEZXEXV4J888R9AII8OX","A3EC3OP6U52JYC","3DFYDSXB2WMWAZWJRSN67LWQ0PPJUT","","<img src=""img/set1/S2.jpg"" width=""540"" height = ""360"" style=""border:16px solid orange"">","null","","","","","","","",""
"null","","html-keyboard-response","247","228054","0.0-176.0","3VAR3R6G1QNEZXEXV4J888R9AII8OX","A3EC3OP6U52JYC","3DFYDSXB2WMWAZWJRSN67LWQ0PPJUT","","","null","","","","","","","",""
"686","","image-keyboard-response","248","228743","0.0-177.0","3VAR3R6G1QNEZXEXV4J888R9AII8OX","A3EC3OP6U52JYC","3DFYDSXB2WMWAZWJRSN67LWQ0PPJUT","","img/set1/S4.jpg","74","4","structured_incentive","74","true","structured_incentive,random,structured_normal","1,2,2,3","",""
"null","","html-keyboard-response","249","229114","0.0-178.0","3VAR3R6G1QNEZXEXV4J888R9AII8OX","A3EC3OP6U52JYC","3DFYDSXB2WMWAZWJRSN67LWQ0PPJUT","","<img src=""img/set1/S4.jpg"" width=""540"" height = ""360"" style=""border:16px solid orange"">","null","","","","","","","",""
"null","","html-keyboard-response","250","229114","0.0-179.0","3VAR3R6G1QNEZXEXV4J888R9AII8OX","A3EC3OP6U52JYC","3DFYDSXB2WMWAZWJRSN67LWQ0PPJUT","","","null","","","","","","","",""
"931","","image-keyboard-response","251","230046","0.0-180.0","3VAR3R6G1QNEZXEXV4J888R9AII8OX","A3EC3OP6U52JYC","3DFYDSXB2WMWAZWJRSN67LWQ0PPJUT","","img/set1/S1.jpg","83","1","structured_incentive","83","true","structured_incentive,random,structured_normal","1,2,2,3","",""
"null","","html-keyboard-response","252","230413","0.0-181.0","3VAR3R6G1QNEZXEXV4J888R9AII8OX","A3EC3OP6U52JYC","3DFYDSXB2WMWAZWJRSN67LWQ0PPJUT","","<img src=""img/set1/S1.jpg"" width=""540"" height = ""360"" style=""border:16px solid orange"">","null","","","","","","","",""
"null","","html-keyboard-response","253","230414","0.0-182.0","3VAR3R6G1QNEZXEXV4J888R9AII8OX","A3EC3OP6U52JYC","3DFYDSXB2WMWAZWJRSN67LWQ0PPJUT","","","null","","","","","","","",""
"954","","image-keyboard-response","254","231369","0.0-183.0","3VAR3R6G1QNEZXEXV4J888R9AII8OX","A3EC3OP6U52JYC","3DFYDSXB2WMWAZWJRSN67LWQ0PPJUT","","img/set1/S2.jpg","68","2","structured_incentive","68","true","structured_incentive,random,structured_normal","1,2,2,3","",""
"null","","html-keyboard-response","255","231723","0.0-184.0","3VAR3R6G1QNEZXEXV4J888R9AII8OX","A3EC3OP6U52JYC","3DFYDSXB2WMWAZWJRSN67LWQ0PPJUT","","<img src=""img/set1/S2.jpg"" width=""540"" height = ""360"" style=""border:16px solid orange"">","null","","","","","","","",""
"null","","html-keyboard-response","256","231725","0.0-185.0","3VAR3R6G1QNEZXEXV4J888R9AII8OX","A3EC3OP6U52JYC","3DFYDSXB2WMWAZWJRSN67LWQ0PPJUT","","","null","","","","","","","",""
"865","","image-keyboard-response","257","232590","0.0-186.0","3VAR3R6G1QNEZXEXV4J888R9AII8OX","A3EC3OP6U52JYC","3DFYDSXB2WMWAZWJRSN67LWQ0PPJUT","","img/set1/S3.jpg","74","3","structured_incentive","72","false","structured_incentive,random,structured_normal","1,2,2,3","",""
"null","","html-keyboard-response","258","232943","0.0-187.0","3VAR3R6G1QNEZXEXV4J888R9AII8OX","A3EC3OP6U52JYC","3DFYDSXB2WMWAZWJRSN67LWQ0PPJUT","","<img src=""img/set1/S3.jpg"" width=""540"" height = ""360"">","null","","","","","","","",""
"null","","html-keyboard-response","259","232944","0.0-188.0","3VAR3R6G1QNEZXEXV4J888R9AII8OX","A3EC3OP6U52JYC","3DFYDSXB2WMWAZWJRSN67LWQ0PPJUT","","","null","","","","","","","",""
"7","","image-keyboard-response","260","232953","0.0-189.0","3VAR3R6G1QNEZXEXV4J888R9AII8OX","A3EC3OP6U52JYC","3DFYDSXB2WMWAZWJRSN67LWQ0PPJUT","","img/set1/S4.jpg","72","4","structured_incentive","74","false","structured_incentive,random,structured_normal","1,2,2,3","",""
"null","","html-keyboard-response","261","233324","0.0-190.0","3VAR3R6G1QNEZXEXV4J888R9AII8OX","A3EC3OP6U52JYC","3DFYDSXB2WMWAZWJRSN67LWQ0PPJUT","","<img src=""img/set1/S4.jpg"" width=""540"" height = ""360"">","null","","","","","","","",""
"null","","html-keyboard-response","262","233324","0.0-191.0","3VAR3R6G1QNEZXEXV4J888R9AII8OX","A3EC3OP6U52JYC","3DFYDSXB2WMWAZWJRSN67LWQ0PPJUT","","","null","","","","","","","",""
"601","","image-keyboard-response","263","233927","0.0-192.0","3VAR3R6G1QNEZXEXV4J888R9AII8OX","A3EC3OP6U52JYC","3DFYDSXB2WMWAZWJRSN67LWQ0PPJUT","","img/set1/S4.jpg","83","4","structured_incentive","74","false","structured_incentive,random,structured_normal","1,2,2,3","",""
"null","","html-keyboard-response","264","234283","0.0-193.0","3VAR3R6G1QNEZXEXV4J888R9AII8OX","A3EC3OP6U52JYC","3DFYDSXB2WMWAZWJRSN67LWQ0PPJUT","","<img src=""img/set1/S4.jpg"" width=""540"" height = ""360"">","null","","","","","","","",""
"null","","html-keyboard-response","265","234284","0.0-194.0","3VAR3R6G1QNEZXEXV4J888R9AII8OX","A3EC3OP6U52JYC","3DFYDSXB2WMWAZWJRSN67LWQ0PPJUT","","","null","","","","","","","",""
"67","","image-keyboard-response","266","234350","0.0-195.0","3VAR3R6G1QNEZXEXV4J888R9AII8OX","A3EC3OP6U52JYC","3DFYDSXB2WMWAZWJRSN67LWQ0PPJUT","","img/set1/S4.jpg","74","4","structured_incentive","74","true","structured_incentive,random,structured_normal","1,2,2,3","",""
"null","","html-keyboard-response","267","234703","0.0-196.0","3VAR3R6G1QNEZXEXV4J888R9AII8OX","A3EC3OP6U52JYC","3DFYDSXB2WMWAZWJRSN67LWQ0PPJUT","","<img src=""img/set1/S4.jpg"" width=""540"" height = ""360"" style=""border:16px solid orange"">","null","","","","","","","",""
"null","","html-keyboard-response","268","234704","0.0-197.0","3VAR3R6G1QNEZXEXV4J888R9AII8OX","A3EC3OP6U52JYC","3DFYDSXB2WMWAZWJRSN67LWQ0PPJUT","","","null","","","","","","","",""
"441","","image-keyboard-response","269","235146","0.0-198.0","3VAR3R6G1QNEZXEXV4J888R9AII8OX","A3EC3OP6U52JYC","3DFYDSXB2WMWAZWJRSN67LWQ0PPJUT","","img/set1/S4.jpg","74","4","structured_incentive","74","true","structured_incentive,random,structured_normal","1,2,2,3","",""
"null","","html-keyboard-response","270","235504","0.0-199.0","3VAR3R6G1QNEZXEXV4J888R9AII8OX","A3EC3OP6U52JYC","3DFYDSXB2WMWAZWJRSN67LWQ0PPJUT","","<img src=""img/set1/S4.jpg"" width=""540"" height = ""360"" style=""border:16px solid orange"">","null","","","","","","","",""
"null","","html-keyboard-response","271","235505","0.0-200.0","3VAR3R6G1QNEZXEXV4J888R9AII8OX","A3EC3OP6U52JYC","3DFYDSXB2WMWAZWJRSN67LWQ0PPJUT","","","null","","","","","","","",""
"1102","","image-keyboard-response","272","236608","0.0-201.0","3VAR3R6G1QNEZXEXV4J888R9AII8OX","A3EC3OP6U52JYC","3DFYDSXB2WMWAZWJRSN67LWQ0PPJUT","","img/set1/S1.jpg","83","1","structured_incentive","83","true","structured_incentive,random,structured_normal","1,2,2,3","",""
"null","","html-keyboard-response","273","236963","0.0-202.0","3VAR3R6G1QNEZXEXV4J888R9AII8OX","A3EC3OP6U52JYC","3DFYDSXB2WMWAZWJRSN67LWQ0PPJUT","","<img src=""img/set1/S1.jpg"" width=""540"" height = ""360"" style=""border:16px solid orange"">","null","","","","","","","",""
"null","","html-keyboard-response","274","236965","0.0-203.0","3VAR3R6G1QNEZXEXV4J888R9AII8OX","A3EC3OP6U52JYC","3DFYDSXB2WMWAZWJRSN67LWQ0PPJUT","","","null","","","","","","","",""
"998","","image-keyboard-response","275","237961","0.0-204.0","3VAR3R6G1QNEZXEXV4J888R9AII8OX","A3EC3OP6U52JYC","3DFYDSXB2WMWAZWJRSN67LWQ0PPJUT","","img/set1/S2.jpg","68","2","structured_incentive","68","true","structured_incentive,random,structured_normal","1,2,2,3","",""
"null","","html-keyboard-response","276","238323","0.0-205.0","3VAR3R6G1QNEZXEXV4J888R9AII8OX","A3EC3OP6U52JYC","3DFYDSXB2WMWAZWJRSN67LWQ0PPJUT","","<img src=""img/set1/S2.jpg"" width=""540"" height = ""360"" style=""border:16px solid orange"">","null","","","","","","","",""
"null","","html-keyboard-response","277","238325","0.0-206.0","3VAR3R6G1QNEZXEXV4J888R9AII8OX","A3EC3OP6U52JYC","3DFYDSXB2WMWAZWJRSN67LWQ0PPJUT","","","null","","","","","","","",""
"1075","","image-keyboard-response","278","239400","0.0-207.0","3VAR3R6G1QNEZXEXV4J888R9AII8OX","A3EC3OP6U52JYC","3DFYDSXB2WMWAZWJRSN67LWQ0PPJUT","","img/set1/S4.jpg","74","4","structured_incentive","74","true","structured_incentive,random,structured_normal","1,2,2,3","",""
"null","","html-keyboard-response","279","239763","0.0-208.0","3VAR3R6G1QNEZXEXV4J888R9AII8OX","A3EC3OP6U52JYC","3DFYDSXB2WMWAZWJRSN67LWQ0PPJUT","","<img src=""img/set1/S4.jpg"" width=""540"" height = ""360"" style=""border:16px solid orange"">","null","","","","","","","",""
"null","","html-keyboard-response","280","239764","0.0-209.0","3VAR3R6G1QNEZXEXV4J888R9AII8OX","A3EC3OP6U52JYC","3DFYDSXB2WMWAZWJRSN67LWQ0PPJUT","","","null","","","","","","","",""
"1066","","image-keyboard-response","281","240830","0.0-210.0","3VAR3R6G1QNEZXEXV4J888R9AII8OX","A3EC3OP6U52JYC","3DFYDSXB2WMWAZWJRSN67LWQ0PPJUT","","img/set1/S2.jpg","83","2","structured_incentive","68","false","structured_incentive,random,structured_normal","1,2,2,3","",""
"null","","html-keyboard-response","282","241183","0.0-211.0","3VAR3R6G1QNEZXEXV4J888R9AII8OX","A3EC3OP6U52JYC","3DFYDSXB2WMWAZWJRSN67LWQ0PPJUT","","<img src=""img/set1/S2.jpg"" width=""540"" height = ""360"">","null","","","","","","","",""
"null","","html-keyboard-response","283","241184","0.0-212.0","3VAR3R6G1QNEZXEXV4J888R9AII8OX","A3EC3OP6U52JYC","3DFYDSXB2WMWAZWJRSN67LWQ0PPJUT","","","null","","","","","","","",""
"87","","image-keyboard-response","284","241272","0.0-213.0","3VAR3R6G1QNEZXEXV4J888R9AII8OX","A3EC3OP6U52JYC","3DFYDSXB2WMWAZWJRSN67LWQ0PPJUT","","img/set1/S3.jpg","68","3","structured_incentive","72","false","structured_incentive,random,structured_normal","1,2,2,3","",""
"null","","html-keyboard-response","285","241623","0.0-214.0","3VAR3R6G1QNEZXEXV4J888R9AII8OX","A3EC3OP6U52JYC","3DFYDSXB2WMWAZWJRSN67LWQ0PPJUT","","<img src=""img/set1/S3.jpg"" width=""540"" height = ""360"">","null","","","","","","","",""
"null","","html-keyboard-response","286","241624","0.0-215.0","3VAR3R6G1QNEZXEXV4J888R9AII8OX","A3EC3OP6U52JYC","3DFYDSXB2WMWAZWJRSN67LWQ0PPJUT","","","null","","","","","","","",""
"1067","","image-keyboard-response","287","242690","0.0-216.0","3VAR3R6G1QNEZXEXV4J888R9AII8OX","A3EC3OP6U52JYC","3DFYDSXB2WMWAZWJRSN67LWQ0PPJUT","","img/set1/S4.jpg","74","4","structured_incentive","74","true","structured_incentive,random,structured_normal","1,2,2,3","",""
"null","","html-keyboard-response","288","243053","0.0-217.0","3VAR3R6G1QNEZXEXV4J888R9AII8OX","A3EC3OP6U52JYC","3DFYDSXB2WMWAZWJRSN67LWQ0PPJUT","","<img src=""img/set1/S4.jpg"" width=""540"" height = ""360"" style=""border:16px solid orange"">","null","","","","","","","",""
"null","","html-keyboard-response","289","243054","0.0-218.0","3VAR3R6G1QNEZXEXV4J888R9AII8OX","A3EC3OP6U52JYC","3DFYDSXB2WMWAZWJRSN67LWQ0PPJUT","","","null","","","","","","","",""
"619","","image-keyboard-response","290","243674","0.0-219.0","3VAR3R6G1QNEZXEXV4J888R9AII8OX","A3EC3OP6U52JYC","3DFYDSXB2WMWAZWJRSN67LWQ0PPJUT","","img/set1/S3.jpg","72","3","structured_incentive","72","true","structured_incentive,random,structured_normal","1,2,2,3","",""
"null","","html-keyboard-response","291","244033","0.0-220.0","3VAR3R6G1QNEZXEXV4J888R9AII8OX","A3EC3OP6U52JYC","3DFYDSXB2WMWAZWJRSN67LWQ0PPJUT","","<img src=""img/set1/S3.jpg"" width=""540"" height = ""360"" style=""border:16px solid Violet"">","null","","","","","","","",""
"null","","html-keyboard-response","292","244034","0.0-221.0","3VAR3R6G1QNEZXEXV4J888R9AII8OX","A3EC3OP6U52JYC","3DFYDSXB2WMWAZWJRSN67LWQ0PPJUT","","","null","","","","","","","",""
"867","","image-keyboard-response","293","244902","0.0-222.0","3VAR3R6G1QNEZXEXV4J888R9AII8OX","A3EC3OP6U52JYC","3DFYDSXB2WMWAZWJRSN67LWQ0PPJUT","","img/set1/S4.jpg","74","4","structured_incentive","74","true","structured_incentive,random,structured_normal","1,2,2,3","",""
"null","","html-keyboard-response","294","245253","0.0-223.0","3VAR3R6G1QNEZXEXV4J888R9AII8OX","A3EC3OP6U52JYC","3DFYDSXB2WMWAZWJRSN67LWQ0PPJUT","","<img src=""img/set1/S4.jpg"" width=""540"" height = ""360"" style=""border:16px solid orange"">","null","","","","","","","",""
"null","","html-keyboard-response","295","245255","0.0-224.0","3VAR3R6G1QNEZXEXV4J888R9AII8OX","A3EC3OP6U52JYC","3DFYDSXB2WMWAZWJRSN67LWQ0PPJUT","","","null","","","","","","","",""
"507","","image-keyboard-response","296","245762","0.0-225.0","3VAR3R6G1QNEZXEXV4J888R9AII8OX","A3EC3OP6U52JYC","3DFYDSXB2WMWAZWJRSN67LWQ0PPJUT","","img/set1/S4.jpg","74","4","structured_incentive","74","true","structured_incentive,random,structured_normal","1,2,2,3","",""
"null","","html-keyboard-response","297","246113","0.0-226.0","3VAR3R6G1QNEZXEXV4J888R9AII8OX","A3EC3OP6U52JYC","3DFYDSXB2WMWAZWJRSN67LWQ0PPJUT","","<img src=""img/set1/S4.jpg"" width=""540"" height = ""360"" style=""border:16px solid orange"">","null","","","","","","","",""
"null","","html-keyboard-response","298","246114","0.0-227.0","3VAR3R6G1QNEZXEXV4J888R9AII8OX","A3EC3OP6U52JYC","3DFYDSXB2WMWAZWJRSN67LWQ0PPJUT","","","null","","","","","","","",""
"608","","image-keyboard-response","299","246724","0.0-228.0","3VAR3R6G1QNEZXEXV4J888R9AII8OX","A3EC3OP6U52JYC","3DFYDSXB2WMWAZWJRSN67LWQ0PPJUT","","img/set1/S3.jpg","72","3","structured_incentive","72","true","structured_incentive,random,structured_normal","1,2,2,3","",""
"null","","html-keyboard-response","300","247093","0.0-229.0","3VAR3R6G1QNEZXEXV4J888R9AII8OX","A3EC3OP6U52JYC","3DFYDSXB2WMWAZWJRSN67LWQ0PPJUT","","<img src=""img/set1/S3.jpg"" width=""540"" height = ""360"" style=""border:16px solid Violet"">","null","","","","","","","",""
"null","","html-keyboard-response","301","247094","0.0-230.0","3VAR3R6G1QNEZXEXV4J888R9AII8OX","A3EC3OP6U52JYC","3DFYDSXB2WMWAZWJRSN67LWQ0PPJUT","","","null","","","","","","","",""
"449","","image-keyboard-response","302","247544","0.0-231.0","3VAR3R6G1QNEZXEXV4J888R9AII8OX","A3EC3OP6U52JYC","3DFYDSXB2WMWAZWJRSN67LWQ0PPJUT","","img/set1/S3.jpg","72","3","structured_incentive","72","true","structured_incentive,random,structured_normal","1,2,2,3","",""
"null","","html-keyboard-response","303","247913","0.0-232.0","3VAR3R6G1QNEZXEXV4J888R9AII8OX","A3EC3OP6U52JYC","3DFYDSXB2WMWAZWJRSN67LWQ0PPJUT","","<img src=""img/set1/S3.jpg"" width=""540"" height = ""360"" style=""border:16px solid Violet"">","null","","","","","","","",""
"null","","html-keyboard-response","304","247914","0.0-233.0","3VAR3R6G1QNEZXEXV4J888R9AII8OX","A3EC3OP6U52JYC","3DFYDSXB2WMWAZWJRSN67LWQ0PPJUT","","","null","","","","","","","",""
"789","","image-keyboard-response","305","248703","0.0-234.0","3VAR3R6G1QNEZXEXV4J888R9AII8OX","A3EC3OP6U52JYC","3DFYDSXB2WMWAZWJRSN67LWQ0PPJUT","","img/set1/S1.jpg","83","1","structured_incentive","83","true","structured_incentive,random,structured_normal","1,2,2,3","",""
"null","","html-keyboard-response","306","249073","0.0-235.0","3VAR3R6G1QNEZXEXV4J888R9AII8OX","A3EC3OP6U52JYC","3DFYDSXB2WMWAZWJRSN67LWQ0PPJUT","","<img src=""img/set1/S1.jpg"" width=""540"" height = ""360"" style=""border:16px solid orange"">","null","","","","","","","",""
"null","","html-keyboard-response","307","249074","0.0-236.0","3VAR3R6G1QNEZXEXV4J888R9AII8OX","A3EC3OP6U52JYC","3DFYDSXB2WMWAZWJRSN67LWQ0PPJUT","","","null","","","","","","","",""
"1316","","image-keyboard-response","308","250392","0.0-237.0","3VAR3R6G1QNEZXEXV4J888R9AII8OX","A3EC3OP6U52JYC","3DFYDSXB2WMWAZWJRSN67LWQ0PPJUT","","img/set1/S2.jpg","68","2","structured_incentive","68","true","structured_incentive,random,structured_normal","1,2,2,3","",""
"null","","html-keyboard-response","309","250753","0.0-238.0","3VAR3R6G1QNEZXEXV4J888R9AII8OX","A3EC3OP6U52JYC","3DFYDSXB2WMWAZWJRSN67LWQ0PPJUT","","<img src=""img/set1/S2.jpg"" width=""540"" height = ""360"" style=""border:16px solid orange"">","null","","","","","","","",""
"null","","html-keyboard-response","310","250754","0.0-239.0","3VAR3R6G1QNEZXEXV4J888R9AII8OX","A3EC3OP6U52JYC","3DFYDSXB2WMWAZWJRSN67LWQ0PPJUT","","","null","","","","","","","",""
"828","","image-keyboard-response","311","251584","0.0-240.0","3VAR3R6G1QNEZXEXV4J888R9AII8OX","A3EC3OP6U52JYC","3DFYDSXB2WMWAZWJRSN67LWQ0PPJUT","","img/set1/S3.jpg","72","3","structured_incentive","72","true","structured_incentive,random,structured_normal","1,2,2,3","",""
"null","","html-keyboard-response","312","251953","0.0-241.0","3VAR3R6G1QNEZXEXV4J888R9AII8OX","A3EC3OP6U52JYC","3DFYDSXB2WMWAZWJRSN67LWQ0PPJUT","","<img src=""img/set1/S3.jpg"" width=""540"" height = ""360"" style=""border:16px solid Violet"">","null","","","","","","","",""
"null","","html-keyboard-response","313","251954","0.0-242.0","3VAR3R6G1QNEZXEXV4J888R9AII8OX","A3EC3OP6U52JYC","3DFYDSXB2WMWAZWJRSN67LWQ0PPJUT","","","null","","","","","","","",""
"908","","image-keyboard-response","314","252864","0.0-243.0","3VAR3R6G1QNEZXEXV4J888R9AII8OX","A3EC3OP6U52JYC","3DFYDSXB2WMWAZWJRSN67LWQ0PPJUT","","img/set1/S1.jpg","83","1","structured_incentive","83","true","structured_incentive,random,structured_normal","1,2,2,3","",""
"null","","html-keyboard-response","315","253233","0.0-244.0","3VAR3R6G1QNEZXEXV4J888R9AII8OX","A3EC3OP6U52JYC","3DFYDSXB2WMWAZWJRSN67LWQ0PPJUT","","<img src=""img/set1/S1.jpg"" width=""540"" height = ""360"" style=""border:16px solid orange"">","null","","","","","","","",""
"null","","html-keyboard-response","316","253235","0.0-245.0","3VAR3R6G1QNEZXEXV4J888R9AII8OX","A3EC3OP6U52JYC","3DFYDSXB2WMWAZWJRSN67LWQ0PPJUT","","","null","","","","","","","",""
"1199","","image-keyboard-response","317","254435","0.0-246.0","3VAR3R6G1QNEZXEXV4J888R9AII8OX","A3EC3OP6U52JYC","3DFYDSXB2WMWAZWJRSN67LWQ0PPJUT","","img/set1/S2.jpg","68","2","structured_incentive","68","true","structured_incentive,random,structured_normal","1,2,2,3","",""
"null","","html-keyboard-response","318","254793","0.0-247.0","3VAR3R6G1QNEZXEXV4J888R9AII8OX","A3EC3OP6U52JYC","3DFYDSXB2WMWAZWJRSN67LWQ0PPJUT","","<img src=""img/set1/S2.jpg"" width=""540"" height = ""360"" style=""border:16px solid orange"">","null","","","","","","","",""
"null","","html-keyboard-response","319","254794","0.0-248.0","3VAR3R6G1QNEZXEXV4J888R9AII8OX","A3EC3OP6U52JYC","3DFYDSXB2WMWAZWJRSN67LWQ0PPJUT","","","null","","","","","","","",""
"945","","image-keyboard-response","320","255741","0.0-249.0","3VAR3R6G1QNEZXEXV4J888R9AII8OX","A3EC3OP6U52JYC","3DFYDSXB2WMWAZWJRSN67LWQ0PPJUT","","img/set1/S1.jpg","83","1","structured_incentive","83","true","structured_incentive,random,structured_normal","1,2,2,3","",""
"null","","html-keyboard-response","321","256093","0.0-250.0","3VAR3R6G1QNEZXEXV4J888R9AII8OX","A3EC3OP6U52JYC","3DFYDSXB2WMWAZWJRSN67LWQ0PPJUT","","<img src=""img/set1/S1.jpg"" width=""540"" height = ""360"" style=""border:16px solid orange"">","null","","","","","","","",""
"null","","html-keyboard-response","322","256094","0.0-251.0","3VAR3R6G1QNEZXEXV4J888R9AII8OX","A3EC3OP6U52JYC","3DFYDSXB2WMWAZWJRSN67LWQ0PPJUT","","","null","","","","","","","",""
"594","","image-keyboard-response","323","256689","0.0-252.0","3VAR3R6G1QNEZXEXV4J888R9AII8OX","A3EC3OP6U52JYC","3DFYDSXB2WMWAZWJRSN67LWQ0PPJUT","","img/set1/S2.jpg","68","2","structured_incentive","68","true","structured_incentive,random,structured_normal","1,2,2,3","",""
"null","","html-keyboard-response","324","257054","0.0-253.0","3VAR3R6G1QNEZXEXV4J888R9AII8OX","A3EC3OP6U52JYC","3DFYDSXB2WMWAZWJRSN67LWQ0PPJUT","","<img src=""img/set1/S2.jpg"" width=""540"" height = ""360"" style=""border:16px solid orange"">","null","","","","","","","",""
"null","","html-keyboard-response","325","257055","0.0-254.0","3VAR3R6G1QNEZXEXV4J888R9AII8OX","A3EC3OP6U52JYC","3DFYDSXB2WMWAZWJRSN67LWQ0PPJUT","","","null","","","","","","","",""
"869","","image-keyboard-response","326","257925","0.0-255.0","3VAR3R6G1QNEZXEXV4J888R9AII8OX","A3EC3OP6U52JYC","3DFYDSXB2WMWAZWJRSN67LWQ0PPJUT","","img/set1/S4.jpg","74","4","structured_incentive","74","true","structured_incentive,random,structured_normal","1,2,2,3","",""
"null","","html-keyboard-response","327","258291","0.0-256.0","3VAR3R6G1QNEZXEXV4J888R9AII8OX","A3EC3OP6U52JYC","3DFYDSXB2WMWAZWJRSN67LWQ0PPJUT","","<img src=""img/set1/S4.jpg"" width=""540"" height = ""360"" style=""border:16px solid orange"">","null","","","","","","","",""
"null","","html-keyboard-response","328","258292","0.0-257.0","3VAR3R6G1QNEZXEXV4J888R9AII8OX","A3EC3OP6U52JYC","3DFYDSXB2WMWAZWJRSN67LWQ0PPJUT","","","null","","","","","","","",""
"975","","image-keyboard-response","329","259267","0.0-258.0","3VAR3R6G1QNEZXEXV4J888R9AII8OX","A3EC3OP6U52JYC","3DFYDSXB2WMWAZWJRSN67LWQ0PPJUT","","img/set1/S1.jpg","83","1","structured_incentive","83","true","structured_incentive,random,structured_normal","1,2,2,3","",""
"null","","html-keyboard-response","330","259633","0.0-259.0","3VAR3R6G1QNEZXEXV4J888R9AII8OX","A3EC3OP6U52JYC","3DFYDSXB2WMWAZWJRSN67LWQ0PPJUT","","<img src=""img/set1/S1.jpg"" width=""540"" height = ""360"" style=""border:16px solid orange"">","null","","","","","","","",""
"null","","html-keyboard-response","331","259634","0.0-260.0","3VAR3R6G1QNEZXEXV4J888R9AII8OX","A3EC3OP6U52JYC","3DFYDSXB2WMWAZWJRSN67LWQ0PPJUT","","","null","","","","","","","",""
"996","","image-keyboard-response","332","260629","0.0-261.0","3VAR3R6G1QNEZXEXV4J888R9AII8OX","A3EC3OP6U52JYC","3DFYDSXB2WMWAZWJRSN67LWQ0PPJUT","","img/set1/S2.jpg","68","2","structured_incentive","68","true","structured_incentive,random,structured_normal","1,2,2,3","",""
"null","","html-keyboard-response","333","260993","0.0-262.0","3VAR3R6G1QNEZXEXV4J888R9AII8OX","A3EC3OP6U52JYC","3DFYDSXB2WMWAZWJRSN67LWQ0PPJUT","","<img src=""img/set1/S2.jpg"" width=""540"" height = ""360"" style=""border:16px solid orange"">","null","","","","","","","",""
"null","","html-keyboard-response","334","260994","0.0-263.0","3VAR3R6G1QNEZXEXV4J888R9AII8OX","A3EC3OP6U52JYC","3DFYDSXB2WMWAZWJRSN67LWQ0PPJUT","","","null","","","","","","","",""
"942","","image-keyboard-response","335","261936","0.0-264.0","3VAR3R6G1QNEZXEXV4J888R9AII8OX","A3EC3OP6U52JYC","3DFYDSXB2WMWAZWJRSN67LWQ0PPJUT","","img/set1/S4.jpg","74","4","structured_incentive","74","true","structured_incentive,random,structured_normal","1,2,2,3","",""
"null","","html-keyboard-response","336","262290","0.0-265.0","3VAR3R6G1QNEZXEXV4J888R9AII8OX","A3EC3OP6U52JYC","3DFYDSXB2WMWAZWJRSN67LWQ0PPJUT","","<img src=""img/set1/S4.jpg"" width=""540"" height = ""360"" style=""border:16px solid orange"">","null","","","","","","","",""
"null","","html-keyboard-response","337","262291","0.0-266.0","3VAR3R6G1QNEZXEXV4J888R9AII8OX","A3EC3OP6U52JYC","3DFYDSXB2WMWAZWJRSN67LWQ0PPJUT","","","null","","","","","","","",""
"1090","","image-keyboard-response","338","263381","0.0-267.0","3VAR3R6G1QNEZXEXV4J888R9AII8OX","A3EC3OP6U52JYC","3DFYDSXB2WMWAZWJRSN67LWQ0PPJUT","","img/set1/S2.jpg","68","2","structured_incentive","68","true","structured_incentive,random,structured_normal","1,2,2,3","",""
"null","","html-keyboard-response","339","263733","0.0-268.0","3VAR3R6G1QNEZXEXV4J888R9AII8OX","A3EC3OP6U52JYC","3DFYDSXB2WMWAZWJRSN67LWQ0PPJUT","","<img src=""img/set1/S2.jpg"" width=""540"" height = ""360"" style=""border:16px solid orange"">","null","","","","","","","",""
"null","","html-keyboard-response","340","263734","0.0-269.0","3VAR3R6G1QNEZXEXV4J888R9AII8OX","A3EC3OP6U52JYC","3DFYDSXB2WMWAZWJRSN67LWQ0PPJUT","","","null","","","","","","","",""
"756","","image-keyboard-response","341","264492","0.0-270.0","3VAR3R6G1QNEZXEXV4J888R9AII8OX","A3EC3OP6U52JYC","3DFYDSXB2WMWAZWJRSN67LWQ0PPJUT","","img/set1/S4.jpg","74","4","structured_incentive","74","true","structured_incentive,random,structured_normal","1,2,2,3","",""
"null","","html-keyboard-response","342","264853","0.0-271.0","3VAR3R6G1QNEZXEXV4J888R9AII8OX","A3EC3OP6U52JYC","3DFYDSXB2WMWAZWJRSN67LWQ0PPJUT","","<img src=""img/set1/S4.jpg"" width=""540"" height = ""360"" style=""border:16px solid orange"">","null","","","","","","","",""
"null","","html-keyboard-response","343","264854","0.0-272.0","3VAR3R6G1QNEZXEXV4J888R9AII8OX","A3EC3OP6U52JYC","3DFYDSXB2WMWAZWJRSN67LWQ0PPJUT","","","null","","","","","","","",""
"474","","image-keyboard-response","344","265329","0.0-273.0","3VAR3R6G1QNEZXEXV4J888R9AII8OX","A3EC3OP6U52JYC","3DFYDSXB2WMWAZWJRSN67LWQ0PPJUT","","img/set1/S4.jpg","74","4","structured_incentive","74","true","structured_incentive,random,structured_normal","1,2,2,3","",""
"null","","html-keyboard-response","345","265693","0.0-274.0","3VAR3R6G1QNEZXEXV4J888R9AII8OX","A3EC3OP6U52JYC","3DFYDSXB2WMWAZWJRSN67LWQ0PPJUT","","<img src=""img/set1/S4.jpg"" width=""540"" height = ""360"" style=""border:16px solid orange"">","null","","","","","","","",""
"null","","html-keyboard-response","346","265693","0.0-275.0","3VAR3R6G1QNEZXEXV4J888R9AII8OX","A3EC3OP6U52JYC","3DFYDSXB2WMWAZWJRSN67LWQ0PPJUT","","","null","","","","","","","",""
"901","","image-keyboard-response","347","266596","0.0-276.0","3VAR3R6G1QNEZXEXV4J888R9AII8OX","A3EC3OP6U52JYC","3DFYDSXB2WMWAZWJRSN67LWQ0PPJUT","","img/set1/S1.jpg","83","1","structured_incentive","83","true","structured_incentive,random,structured_normal","1,2,2,3","",""
"null","","html-keyboard-response","348","266953","0.0-277.0","3VAR3R6G1QNEZXEXV4J888R9AII8OX","A3EC3OP6U52JYC","3DFYDSXB2WMWAZWJRSN67LWQ0PPJUT","","<img src=""img/set1/S1.jpg"" width=""540"" height = ""360"" style=""border:16px solid orange"">","null","","","","","","","",""
"null","","html-keyboard-response","349","266954","0.0-278.0","3VAR3R6G1QNEZXEXV4J888R9AII8OX","A3EC3OP6U52JYC","3DFYDSXB2WMWAZWJRSN67LWQ0PPJUT","","","null","","","","","","","",""
"1225","","image-keyboard-response","350","268179","0.0-279.0","3VAR3R6G1QNEZXEXV4J888R9AII8OX","A3EC3OP6U52JYC","3DFYDSXB2WMWAZWJRSN67LWQ0PPJUT","","img/set1/S2.jpg","68","2","structured_incentive","68","true","structured_incentive,random,structured_normal","1,2,2,3","",""
"null","","html-keyboard-response","351","268534","0.0-280.0","3VAR3R6G1QNEZXEXV4J888R9AII8OX","A3EC3OP6U52JYC","3DFYDSXB2WMWAZWJRSN67LWQ0PPJUT","","<img src=""img/set1/S2.jpg"" width=""540"" height = ""360"" style=""border:16px solid orange"">","null","","","","","","","",""
"null","","html-keyboard-response","352","268535","0.0-281.0","3VAR3R6G1QNEZXEXV4J888R9AII8OX","A3EC3OP6U52JYC","3DFYDSXB2WMWAZWJRSN67LWQ0PPJUT","","","null","","","","","","","",""
"829","","image-keyboard-response","353","269365","0.0-282.0","3VAR3R6G1QNEZXEXV4J888R9AII8OX","A3EC3OP6U52JYC","3DFYDSXB2WMWAZWJRSN67LWQ0PPJUT","","img/set1/S1.jpg","83","1","structured_incentive","83","true","structured_incentive,random,structured_normal","1,2,2,3","",""
"null","","html-keyboard-response","354","269733","0.0-283.0","3VAR3R6G1QNEZXEXV4J888R9AII8OX","A3EC3OP6U52JYC","3DFYDSXB2WMWAZWJRSN67LWQ0PPJUT","","<img src=""img/set1/S1.jpg"" width=""540"" height = ""360"" style=""border:16px solid orange"">","null","","","","","","","",""
"null","","html-keyboard-response","355","269735","0.0-284.0","3VAR3R6G1QNEZXEXV4J888R9AII8OX","A3EC3OP6U52JYC","3DFYDSXB2WMWAZWJRSN67LWQ0PPJUT","","","null","","","","","","","",""
"907","","image-keyboard-response","356","270643","0.0-285.0","3VAR3R6G1QNEZXEXV4J888R9AII8OX","A3EC3OP6U52JYC","3DFYDSXB2WMWAZWJRSN67LWQ0PPJUT","","img/set1/S3.jpg","72","3","structured_incentive","72","true","structured_incentive,random,structured_normal","1,2,2,3","",""
"null","","html-keyboard-response","357","271013","0.0-286.0","3VAR3R6G1QNEZXEXV4J888R9AII8OX","A3EC3OP6U52JYC","3DFYDSXB2WMWAZWJRSN67LWQ0PPJUT","","<img src=""img/set1/S3.jpg"" width=""540"" height = ""360"" style=""border:16px solid Violet"">","null","","","","","","","",""
"null","","html-keyboard-response","358","271014","0.0-287.0","3VAR3R6G1QNEZXEXV4J888R9AII8OX","A3EC3OP6U52JYC","3DFYDSXB2WMWAZWJRSN67LWQ0PPJUT","","","null","","","","","","","",""
"506","","image-keyboard-response","359","271521","0.0-288.0","3VAR3R6G1QNEZXEXV4J888R9AII8OX","A3EC3OP6U52JYC","3DFYDSXB2WMWAZWJRSN67LWQ0PPJUT","","img/set1/S3.jpg","72","3","structured_incentive","72","true","structured_incentive,random,structured_normal","1,2,2,3","",""
"null","","html-keyboard-response","360","271874","0.0-289.0","3VAR3R6G1QNEZXEXV4J888R9AII8OX","A3EC3OP6U52JYC","3DFYDSXB2WMWAZWJRSN67LWQ0PPJUT","","<img src=""img/set1/S3.jpg"" width=""540"" height = ""360"" style=""border:16px solid Violet"">","null","","","","","","","",""
"null","","html-keyboard-response","361","271875","0.0-290.0","3VAR3R6G1QNEZXEXV4J888R9AII8OX","A3EC3OP6U52JYC","3DFYDSXB2WMWAZWJRSN67LWQ0PPJUT","","","null","","","","","","","",""
"892","","image-keyboard-response","362","272767","0.0-291.0","3VAR3R6G1QNEZXEXV4J888R9AII8OX","A3EC3OP6U52JYC","3DFYDSXB2WMWAZWJRSN67LWQ0PPJUT","","img/set1/S4.jpg","74","4","structured_incentive","74","true","structured_incentive,random,structured_normal","1,2,2,3","",""
"null","","html-keyboard-response","363","273133","0.0-292.0","3VAR3R6G1QNEZXEXV4J888R9AII8OX","A3EC3OP6U52JYC","3DFYDSXB2WMWAZWJRSN67LWQ0PPJUT","","<img src=""img/set1/S4.jpg"" width=""540"" height = ""360"" style=""border:16px solid orange"">","null","","","","","","","",""
"null","","html-keyboard-response","364","273134","0.0-293.0","3VAR3R6G1QNEZXEXV4J888R9AII8OX","A3EC3OP6U52JYC","3DFYDSXB2WMWAZWJRSN67LWQ0PPJUT","","","null","","","","","","","",""
"654","","image-keyboard-response","365","273789","0.0-294.0","3VAR3R6G1QNEZXEXV4J888R9AII8OX","A3EC3OP6U52JYC","3DFYDSXB2WMWAZWJRSN67LWQ0PPJUT","","img/set1/S3.jpg","72","3","structured_incentive","72","true","structured_incentive,random,structured_normal","1,2,2,3","",""
"null","","html-keyboard-response","366","274149","0.0-295.0","3VAR3R6G1QNEZXEXV4J888R9AII8OX","A3EC3OP6U52JYC","3DFYDSXB2WMWAZWJRSN67LWQ0PPJUT","","<img src=""img/set1/S3.jpg"" width=""540"" height = ""360"" style=""border:16px solid Violet"">","null","","","","","","","",""
"null","","html-keyboard-response","367","274150","0.0-296.0","3VAR3R6G1QNEZXEXV4J888R9AII8OX","A3EC3OP6U52JYC","3DFYDSXB2WMWAZWJRSN67LWQ0PPJUT","","","null","","","","","","","",""
"709","","image-keyboard-response","368","274860","0.0-297.0","3VAR3R6G1QNEZXEXV4J888R9AII8OX","A3EC3OP6U52JYC","3DFYDSXB2WMWAZWJRSN67LWQ0PPJUT","","img/set1/S4.jpg","74","4","structured_incentive","74","true","structured_incentive,random,structured_normal","1,2,2,3","",""
"null","","html-keyboard-response","369","275213","0.0-298.0","3VAR3R6G1QNEZXEXV4J888R9AII8OX","A3EC3OP6U52JYC","3DFYDSXB2WMWAZWJRSN67LWQ0PPJUT","","<img src=""img/set1/S4.jpg"" width=""540"" height = ""360"" style=""border:16px solid orange"">","null","","","","","","","",""
"null","","html-keyboard-response","370","275214","0.0-299.0","3VAR3R6G1QNEZXEXV4J888R9AII8OX","A3EC3OP6U52JYC","3DFYDSXB2WMWAZWJRSN67LWQ0PPJUT","","","null","","","","","","","",""
"581","","image-keyboard-response","371","275796","0.0-300.0","3VAR3R6G1QNEZXEXV4J888R9AII8OX","A3EC3OP6U52JYC","3DFYDSXB2WMWAZWJRSN67LWQ0PPJUT","","img/set1/S3.jpg","72","3","structured_incentive","72","true","structured_incentive,random,structured_normal","1,2,2,3","",""
"null","","html-keyboard-response","372","276153","0.0-301.0","3VAR3R6G1QNEZXEXV4J888R9AII8OX","A3EC3OP6U52JYC","3DFYDSXB2WMWAZWJRSN67LWQ0PPJUT","","<img src=""img/set1/S3.jpg"" width=""540"" height = ""360"" style=""border:16px solid Violet"">","null","","","","","","","",""
"null","","html-keyboard-response","373","276154","0.0-302.0","3VAR3R6G1QNEZXEXV4J888R9AII8OX","A3EC3OP6U52JYC","3DFYDSXB2WMWAZWJRSN67LWQ0PPJUT","","","null","","","","","","","",""
"705","","image-keyboard-response","374","276859","0.0-303.0","3VAR3R6G1QNEZXEXV4J888R9AII8OX","A3EC3OP6U52JYC","3DFYDSXB2WMWAZWJRSN67LWQ0PPJUT","","img/set1/S1.jpg","83","1","structured_incentive","83","true","structured_incentive,random,structured_normal","1,2,2,3","",""
"null","","html-keyboard-response","375","277214","0.0-304.0","3VAR3R6G1QNEZXEXV4J888R9AII8OX","A3EC3OP6U52JYC","3DFYDSXB2WMWAZWJRSN67LWQ0PPJUT","","<img src=""img/set1/S1.jpg"" width=""540"" height = ""360"" style=""border:16px solid orange"">","null","","","","","","","",""
"null","","html-keyboard-response","376","277215","0.0-305.0","3VAR3R6G1QNEZXEXV4J888R9AII8OX","A3EC3OP6U52JYC","3DFYDSXB2WMWAZWJRSN67LWQ0PPJUT","","","null","","","","","","","",""
"865","","image-keyboard-response","377","278080","0.0-306.0","3VAR3R6G1QNEZXEXV4J888R9AII8OX","A3EC3OP6U52JYC","3DFYDSXB2WMWAZWJRSN67LWQ0PPJUT","","img/set1/S2.jpg","68","2","structured_incentive","68","true","structured_incentive,random,structured_normal","1,2,2,3","",""
"null","","html-keyboard-response","378","278433","0.0-307.0","3VAR3R6G1QNEZXEXV4J888R9AII8OX","A3EC3OP6U52JYC","3DFYDSXB2WMWAZWJRSN67LWQ0PPJUT","","<img src=""img/set1/S2.jpg"" width=""540"" height = ""360"" style=""border:16px solid orange"">","null","","","","","","","",""
"null","","html-keyboard-response","379","278434","0.0-308.0","3VAR3R6G1QNEZXEXV4J888R9AII8OX","A3EC3OP6U52JYC","3DFYDSXB2WMWAZWJRSN67LWQ0PPJUT","","","null","","","","","","","",""
"670","","image-keyboard-response","380","279106","0.0-309.0","3VAR3R6G1QNEZXEXV4J888R9AII8OX","A3EC3OP6U52JYC","3DFYDSXB2WMWAZWJRSN67LWQ0PPJUT","","img/set1/S4.jpg","74","4","structured_incentive","74","true","structured_incentive,random,structured_normal","1,2,2,3","",""
"null","","html-keyboard-response","381","279474","0.0-310.0","3VAR3R6G1QNEZXEXV4J888R9AII8OX","A3EC3OP6U52JYC","3DFYDSXB2WMWAZWJRSN67LWQ0PPJUT","","<img src=""img/set1/S4.jpg"" width=""540"" height = ""360"" style=""border:16px solid orange"">","null","","","","","","","",""
"null","","html-keyboard-response","382","279475","0.0-311.0","3VAR3R6G1QNEZXEXV4J888R9AII8OX","A3EC3OP6U52JYC","3DFYDSXB2WMWAZWJRSN67LWQ0PPJUT","","","null","","","","","","","",""
"666","","image-keyboard-response","383","280139","0.0-312.0","3VAR3R6G1QNEZXEXV4J888R9AII8OX","A3EC3OP6U52JYC","3DFYDSXB2WMWAZWJRSN67LWQ0PPJUT","","img/set1/S3.jpg","72","3","structured_incentive","72","true","structured_incentive,random,structured_normal","1,2,2,3","",""
"null","","html-keyboard-response","384","280493","0.0-313.0","3VAR3R6G1QNEZXEXV4J888R9AII8OX","A3EC3OP6U52JYC","3DFYDSXB2WMWAZWJRSN67LWQ0PPJUT","","<img src=""img/set1/S3.jpg"" width=""540"" height = ""360"" style=""border:16px solid Violet"">","null","","","","","","","",""
"null","","html-keyboard-response","385","280494","0.0-314.0","3VAR3R6G1QNEZXEXV4J888R9AII8OX","A3EC3OP6U52JYC","3DFYDSXB2WMWAZWJRSN67LWQ0PPJUT","","","null","","","","","","","",""
"1351","","image-keyboard-response","386","281845","0.0-315.0","3VAR3R6G1QNEZXEXV4J888R9AII8OX","A3EC3OP6U52JYC","3DFYDSXB2WMWAZWJRSN67LWQ0PPJUT","","img/set1/S2.jpg","68","2","structured_incentive","68","true","structured_incentive,random,structured_normal","1,2,2,3","",""
"null","","html-keyboard-response","387","282213","0.0-316.0","3VAR3R6G1QNEZXEXV4J888R9AII8OX","A3EC3OP6U52JYC","3DFYDSXB2WMWAZWJRSN67LWQ0PPJUT","","<img src=""img/set1/S2.jpg"" width=""540"" height = ""360"" style=""border:16px solid orange"">","null","","","","","","","",""
"null","","html-keyboard-response","388","282214","0.0-317.0","3VAR3R6G1QNEZXEXV4J888R9AII8OX","A3EC3OP6U52JYC","3DFYDSXB2WMWAZWJRSN67LWQ0PPJUT","","","null","","","","","","","",""
"777","","image-keyboard-response","389","282992","0.0-318.0","3VAR3R6G1QNEZXEXV4J888R9AII8OX","A3EC3OP6U52JYC","3DFYDSXB2WMWAZWJRSN67LWQ0PPJUT","","img/set1/S3.jpg","72","3","structured_incentive","72","true","structured_incentive,random,structured_normal","1,2,2,3","",""
"null","","html-keyboard-response","390","283353","0.0-319.0","3VAR3R6G1QNEZXEXV4J888R9AII8OX","A3EC3OP6U52JYC","3DFYDSXB2WMWAZWJRSN67LWQ0PPJUT","","<img src=""img/set1/S3.jpg"" width=""540"" height = ""360"" style=""border:16px solid Violet"">","null","","","","","","","",""
"null","","html-keyboard-response","391","283354","0.0-320.0","3VAR3R6G1QNEZXEXV4J888R9AII8OX","A3EC3OP6U52JYC","3DFYDSXB2WMWAZWJRSN67LWQ0PPJUT","","","null","","","","","","","",""
"860","","image-keyboard-response","392","284215","0.0-321.0","3VAR3R6G1QNEZXEXV4J888R9AII8OX","A3EC3OP6U52JYC","3DFYDSXB2WMWAZWJRSN67LWQ0PPJUT","","img/set1/S4.jpg","74","4","structured_incentive","74","true","structured_incentive,random,structured_normal","1,2,2,3","",""
"null","","html-keyboard-response","393","284573","0.0-322.0","3VAR3R6G1QNEZXEXV4J888R9AII8OX","A3EC3OP6U52JYC","3DFYDSXB2WMWAZWJRSN67LWQ0PPJUT","","<img src=""img/set1/S4.jpg"" width=""540"" height = ""360"" style=""border:16px solid orange"">","null","","","","","","","",""
"null","","html-keyboard-response","394","284574","0.0-323.0","3VAR3R6G1QNEZXEXV4J888R9AII8OX","A3EC3OP6U52JYC","3DFYDSXB2WMWAZWJRSN67LWQ0PPJUT","","","null","","","","","","","",""
"730","","image-keyboard-response","395","285303","0.0-324.0","3VAR3R6G1QNEZXEXV4J888R9AII8OX","A3EC3OP6U52JYC","3DFYDSXB2WMWAZWJRSN67LWQ0PPJUT","","img/set1/S1.jpg","83","1","structured_incentive","83","true","structured_incentive,random,structured_normal","1,2,2,3","",""
"null","","html-keyboard-response","396","285663","0.0-325.0","3VAR3R6G1QNEZXEXV4J888R9AII8OX","A3EC3OP6U52JYC","3DFYDSXB2WMWAZWJRSN67LWQ0PPJUT","","<img src=""img/set1/S1.jpg"" width=""540"" height = ""360"" style=""border:16px solid orange"">","null","","","","","","","",""
"null","","html-keyboard-response","397","285664","0.0-326.0","3VAR3R6G1QNEZXEXV4J888R9AII8OX","A3EC3OP6U52JYC","3DFYDSXB2WMWAZWJRSN67LWQ0PPJUT","","","null","","","","","","","",""
"872","","image-keyboard-response","398","286537","0.0-327.0","3VAR3R6G1QNEZXEXV4J888R9AII8OX","A3EC3OP6U52JYC","3DFYDSXB2WMWAZWJRSN67LWQ0PPJUT","","img/set1/S2.jpg","68","2","structured_incentive","68","true","structured_incentive,random,structured_normal","1,2,2,3","",""
"null","","html-keyboard-response","399","286903","0.0-328.0","3VAR3R6G1QNEZXEXV4J888R9AII8OX","A3EC3OP6U52JYC","3DFYDSXB2WMWAZWJRSN67LWQ0PPJUT","","<img src=""img/set1/S2.jpg"" width=""540"" height = ""360"" style=""border:16px solid orange"">","null","","","","","","","",""
"null","","html-keyboard-response","400","286905","0.0-329.0","3VAR3R6G1QNEZXEXV4J888R9AII8OX","A3EC3OP6U52JYC","3DFYDSXB2WMWAZWJRSN67LWQ0PPJUT","","","null","","","","","","","",""
"726","","image-keyboard-response","401","287631","0.0-330.0","3VAR3R6G1QNEZXEXV4J888R9AII8OX","A3EC3OP6U52JYC","3DFYDSXB2WMWAZWJRSN67LWQ0PPJUT","","img/set1/S3.jpg","72","3","structured_incentive","72","true","structured_incentive,random,structured_normal","1,2,2,3","",""
"null","","html-keyboard-response","402","287983","0.0-331.0","3VAR3R6G1QNEZXEXV4J888R9AII8OX","A3EC3OP6U52JYC","3DFYDSXB2WMWAZWJRSN67LWQ0PPJUT","","<img src=""img/set1/S3.jpg"" width=""540"" height = ""360"" style=""border:16px solid Violet"">","null","","","","","","","",""
"null","","html-keyboard-response","403","287984","0.0-332.0","3VAR3R6G1QNEZXEXV4J888R9AII8OX","A3EC3OP6U52JYC","3DFYDSXB2WMWAZWJRSN67LWQ0PPJUT","","","null","","","","","","","",""
"878","","image-keyboard-response","404","288863","0.0-333.0","3VAR3R6G1QNEZXEXV4J888R9AII8OX","A3EC3OP6U52JYC","3DFYDSXB2WMWAZWJRSN67LWQ0PPJUT","","img/set1/S4.jpg","74","4","structured_incentive","74","true","structured_incentive,random,structured_normal","1,2,2,3","",""
"null","","html-keyboard-response","405","289224","0.0-334.0","3VAR3R6G1QNEZXEXV4J888R9AII8OX","A3EC3OP6U52JYC","3DFYDSXB2WMWAZWJRSN67LWQ0PPJUT","","<img src=""img/set1/S4.jpg"" width=""540"" height = ""360"" style=""border:16px solid orange"">","null","","","","","","","",""
"null","","html-keyboard-response","406","289225","0.0-335.0","3VAR3R6G1QNEZXEXV4J888R9AII8OX","A3EC3OP6U52JYC","3DFYDSXB2WMWAZWJRSN67LWQ0PPJUT","","","null","","","","","","","",""
"705","","image-keyboard-response","407","289931","0.0-336.0","3VAR3R6G1QNEZXEXV4J888R9AII8OX","A3EC3OP6U52JYC","3DFYDSXB2WMWAZWJRSN67LWQ0PPJUT","","img/set1/S3.jpg","72","3","structured_incentive","72","true","structured_incentive,random,structured_normal","1,2,2,3","",""
"null","","html-keyboard-response","408","290283","0.0-337.0","3VAR3R6G1QNEZXEXV4J888R9AII8OX","A3EC3OP6U52JYC","3DFYDSXB2WMWAZWJRSN67LWQ0PPJUT","","<img src=""img/set1/S3.jpg"" width=""540"" height = ""360"" style=""border:16px solid Violet"">","null","","","","","","","",""
"null","","html-keyboard-response","409","290285","0.0-338.0","3VAR3R6G1QNEZXEXV4J888R9AII8OX","A3EC3OP6U52JYC","3DFYDSXB2WMWAZWJRSN67LWQ0PPJUT","","","null","","","","","","","",""
"688","","image-keyboard-response","410","290973","0.0-339.0","3VAR3R6G1QNEZXEXV4J888R9AII8OX","A3EC3OP6U52JYC","3DFYDSXB2WMWAZWJRSN67LWQ0PPJUT","","img/set1/S1.jpg","83","1","structured_incentive","83","true","structured_incentive,random,structured_normal","1,2,2,3","",""
"null","","html-keyboard-response","411","291324","0.0-340.0","3VAR3R6G1QNEZXEXV4J888R9AII8OX","A3EC3OP6U52JYC","3DFYDSXB2WMWAZWJRSN67LWQ0PPJUT","","<img src=""img/set1/S1.jpg"" width=""540"" height = ""360"" style=""border:16px solid orange"">","null","","","","","","","",""
"null","","html-keyboard-response","412","291325","0.0-341.0","3VAR3R6G1QNEZXEXV4J888R9AII8OX","A3EC3OP6U52JYC","3DFYDSXB2WMWAZWJRSN67LWQ0PPJUT","","","null","","","","","","","",""
"660","","image-keyboard-response","413","291986","0.0-342.0","3VAR3R6G1QNEZXEXV4J888R9AII8OX","A3EC3OP6U52JYC","3DFYDSXB2WMWAZWJRSN67LWQ0PPJUT","","img/set1/S2.jpg","68","2","structured_incentive","68","true","structured_incentive,random,structured_normal","1,2,2,3","",""
"null","","html-keyboard-response","414","292354","0.0-343.0","3VAR3R6G1QNEZXEXV4J888R9AII8OX","A3EC3OP6U52JYC","3DFYDSXB2WMWAZWJRSN67LWQ0PPJUT","","<img src=""img/set1/S2.jpg"" width=""540"" height = ""360"" style=""border:16px solid orange"">","null","","","","","","","",""
"null","","html-keyboard-response","415","292355","0.0-344.0","3VAR3R6G1QNEZXEXV4J888R9AII8OX","A3EC3OP6U52JYC","3DFYDSXB2WMWAZWJRSN67LWQ0PPJUT","","","null","","","","","","","",""
