"rt","url","trial_type","trial_index","time_elapsed","internal_node_id","assignmentID","mturkID","hitID","view_history","stimulus","key_press","state","test_part","correct_response","correct","order_block","order_chunk","bonus","responses"
"21904.39999999851","consent.html","external-html","0","22076","0.0-0.0","3WQ3B2KGE92C5353SE57NE42PDTB1C","A3FOKP72T5I4FR","33Q5P9PUSP8QOKKNNN5S19YACNVCZX","","","","","","","","","","",""
"51883.89999999851","","instructions","1","73961","0.0-1.0","3WQ3B2KGE92C5353SE57NE42PDTB1C","A3FOKP72T5I4FR","33Q5P9PUSP8QOKKNNN5S19YACNVCZX","[{""page_index"":0,""viewing_time"":2302.099999997765},{""page_index"":1,""viewing_time"":7339},{""page_index"":2,""viewing_time"":7096.20000000298},{""page_index"":3,""viewing_time"":7344.599999997765},{""page_index"":4,""viewing_time"":5196.10000000149},{""page_index"":5,""viewing_time"":8972.699999999255},{""page_index"":6,""viewing_time"":8883.5},{""page_index"":7,""viewing_time"":4748.10000000149}]","","","","","","","","","",""
"703.6999999992549","","image-keyboard-response","2","74669","0.0-2.0-0.0","3WQ3B2KGE92C5353SE57NE42PDTB1C","A3FOKP72T5I4FR","33Q5P9PUSP8QOKKNNN5S19YACNVCZX","","img/practice/S1.jpg","68","1","practice","83","false","","","",""
"null","","html-keyboard-response","3","74977","0.0-2.0-1.0","3WQ3B2KGE92C5353SE57NE42PDTB1C","A3FOKP72T5I4FR","33Q5P9PUSP8QOKKNNN5S19YACNVCZX","","<img src=""img/practice/S1.jpg"" width=""540"" height = ""360"">","null","","","","","","","",""
"null","","html-keyboard-response","4","74984","0.0-2.0-2.0","3WQ3B2KGE92C5353SE57NE42PDTB1C","A3FOKP72T5I4FR","33Q5P9PUSP8QOKKNNN5S19YACNVCZX","","","null","","","","","","","",""
"614.4000000022352","","image-keyboard-response","5","75601","0.0-2.0-0.1","3WQ3B2KGE92C5353SE57NE42PDTB1C","A3FOKP72T5I4FR","33Q5P9PUSP8QOKKNNN5S19YACNVCZX","","img/practice/S3.jpg","68","3","practice","72","false","","","",""
"null","","html-keyboard-response","6","75909","0.0-2.0-1.1","3WQ3B2KGE92C5353SE57NE42PDTB1C","A3FOKP72T5I4FR","33Q5P9PUSP8QOKKNNN5S19YACNVCZX","","<img src=""img/practice/S3.jpg"" width=""540"" height = ""360"">","null","","","","","","","",""
"null","","html-keyboard-response","7","75916","0.0-2.0-2.1","3WQ3B2KGE92C5353SE57NE42PDTB1C","A3FOKP72T5I4FR","33Q5P9PUSP8QOKKNNN5S19YACNVCZX","","","null","","","","","","","",""
"564.0999999977648","","image-keyboard-response","8","76483","0.0-2.0-0.2","3WQ3B2KGE92C5353SE57NE42PDTB1C","A3FOKP72T5I4FR","33Q5P9PUSP8QOKKNNN5S19YACNVCZX","","img/practice/S4.jpg","72","4","practice","74","false","","","",""
"null","","html-keyboard-response","9","76787","0.0-2.0-1.2","3WQ3B2KGE92C5353SE57NE42PDTB1C","A3FOKP72T5I4FR","33Q5P9PUSP8QOKKNNN5S19YACNVCZX","","<img src=""img/practice/S4.jpg"" width=""540"" height = ""360"">","null","","","","","","","",""
"null","","html-keyboard-response","10","76792","0.0-2.0-2.2","3WQ3B2KGE92C5353SE57NE42PDTB1C","A3FOKP72T5I4FR","33Q5P9PUSP8QOKKNNN5S19YACNVCZX","","","null","","","","","","","",""
"596","","image-keyboard-response","11","77392","0.0-2.0-0.3","3WQ3B2KGE92C5353SE57NE42PDTB1C","A3FOKP72T5I4FR","33Q5P9PUSP8QOKKNNN5S19YACNVCZX","","img/practice/S2.jpg","74","2","practice","68","false","","","",""
"null","","html-keyboard-response","12","77703","0.0-2.0-1.3","3WQ3B2KGE92C5353SE57NE42PDTB1C","A3FOKP72T5I4FR","33Q5P9PUSP8QOKKNNN5S19YACNVCZX","","<img src=""img/practice/S2.jpg"" width=""540"" height = ""360"">","null","","","","","","","",""
"null","","html-keyboard-response","13","77708","0.0-2.0-2.3","3WQ3B2KGE92C5353SE57NE42PDTB1C","A3FOKP72T5I4FR","33Q5P9PUSP8QOKKNNN5S19YACNVCZX","","","null","","","","","","","",""
"1261.5999999977648","","image-keyboard-response","14","78973","0.0-2.0-0.4","3WQ3B2KGE92C5353SE57NE42PDTB1C","A3FOKP72T5I4FR","33Q5P9PUSP8QOKKNNN5S19YACNVCZX","","img/practice/S2.jpg","74","2","practice","68","false","","","",""
"null","","html-keyboard-response","15","79279","0.0-2.0-1.4","3WQ3B2KGE92C5353SE57NE42PDTB1C","A3FOKP72T5I4FR","33Q5P9PUSP8QOKKNNN5S19YACNVCZX","","<img src=""img/practice/S2.jpg"" width=""540"" height = ""360"">","null","","","","","","","",""
"null","","html-keyboard-response","16","79285","0.0-2.0-2.4","3WQ3B2KGE92C5353SE57NE42PDTB1C","A3FOKP72T5I4FR","33Q5P9PUSP8QOKKNNN5S19YACNVCZX","","","null","","","","","","","",""
"686.5","","image-keyboard-response","17","79974","0.0-2.0-0.5","3WQ3B2KGE92C5353SE57NE42PDTB1C","A3FOKP72T5I4FR","33Q5P9PUSP8QOKKNNN5S19YACNVCZX","","img/practice/S4.jpg","72","4","practice","74","false","","","",""
"null","","html-keyboard-response","18","80276","0.0-2.0-1.5","3WQ3B2KGE92C5353SE57NE42PDTB1C","A3FOKP72T5I4FR","33Q5P9PUSP8QOKKNNN5S19YACNVCZX","","<img src=""img/practice/S4.jpg"" width=""540"" height = ""360"">","null","","","","","","","",""
"null","","html-keyboard-response","19","80313","0.0-2.0-2.5","3WQ3B2KGE92C5353SE57NE42PDTB1C","A3FOKP72T5I4FR","33Q5P9PUSP8QOKKNNN5S19YACNVCZX","","","null","","","","","","","",""
"552.5999999940395","","image-keyboard-response","20","80868","0.0-2.0-0.6","3WQ3B2KGE92C5353SE57NE42PDTB1C","A3FOKP72T5I4FR","33Q5P9PUSP8QOKKNNN5S19YACNVCZX","","img/practice/S1.jpg","83","1","practice","83","true","","","",""
"null","","html-keyboard-response","21","81174","0.0-2.0-1.6","3WQ3B2KGE92C5353SE57NE42PDTB1C","A3FOKP72T5I4FR","33Q5P9PUSP8QOKKNNN5S19YACNVCZX","","<img src=""img/practice/S1.jpg"" width=""540"" height = ""360"" style=""border:16px solid orange"">","null","","","","","","","",""
"null","","html-keyboard-response","22","81182","0.0-2.0-2.6","3WQ3B2KGE92C5353SE57NE42PDTB1C","A3FOKP72T5I4FR","33Q5P9PUSP8QOKKNNN5S19YACNVCZX","","","null","","","","","","","",""
"1028.6999999955297","","image-keyboard-response","23","82213","0.0-2.0-0.7","3WQ3B2KGE92C5353SE57NE42PDTB1C","A3FOKP72T5I4FR","33Q5P9PUSP8QOKKNNN5S19YACNVCZX","","img/practice/S3.jpg","68","3","practice","72","false","","","",""
"null","","html-keyboard-response","24","82516","0.0-2.0-1.7","3WQ3B2KGE92C5353SE57NE42PDTB1C","A3FOKP72T5I4FR","33Q5P9PUSP8QOKKNNN5S19YACNVCZX","","<img src=""img/practice/S3.jpg"" width=""540"" height = ""360"">","null","","","","","","","",""
"null","","html-keyboard-response","25","82520","0.0-2.0-2.7","3WQ3B2KGE92C5353SE57NE42PDTB1C","A3FOKP72T5I4FR","33Q5P9PUSP8QOKKNNN5S19YACNVCZX","","","null","","","","","","","",""
"829.8000000044703","","image-keyboard-response","26","83353","0.0-2.0-0.8","3WQ3B2KGE92C5353SE57NE42PDTB1C","A3FOKP72T5I4FR","33Q5P9PUSP8QOKKNNN5S19YACNVCZX","","img/practice/S3.jpg","72","3","practice","72","true","","","",""
"null","","html-keyboard-response","27","83661","0.0-2.0-1.8","3WQ3B2KGE92C5353SE57NE42PDTB1C","A3FOKP72T5I4FR","33Q5P9PUSP8QOKKNNN5S19YACNVCZX","","<img src=""img/practice/S3.jpg"" width=""540"" height = ""360"" style=""border:16px solid orange"">","null","","","","","","","",""
"null","","html-keyboard-response","28","83666","0.0-2.0-2.8","3WQ3B2KGE92C5353SE57NE42PDTB1C","A3FOKP72T5I4FR","33Q5P9PUSP8QOKKNNN5S19YACNVCZX","","","null","","","","","","","",""
"684.6999999955297","","image-keyboard-response","29","84354","0.0-2.0-0.9","3WQ3B2KGE92C5353SE57NE42PDTB1C","A3FOKP72T5I4FR","33Q5P9PUSP8QOKKNNN5S19YACNVCZX","","img/practice/S1.jpg","83","1","practice","83","true","","","",""
"null","","html-keyboard-response","30","84662","0.0-2.0-1.9","3WQ3B2KGE92C5353SE57NE42PDTB1C","A3FOKP72T5I4FR","33Q5P9PUSP8QOKKNNN5S19YACNVCZX","","<img src=""img/practice/S1.jpg"" width=""540"" height = ""360"" style=""border:16px solid orange"">","null","","","","","","","",""
"null","","html-keyboard-response","31","84672","0.0-2.0-2.9","3WQ3B2KGE92C5353SE57NE42PDTB1C","A3FOKP72T5I4FR","33Q5P9PUSP8QOKKNNN5S19YACNVCZX","","","null","","","","","","","",""
"781.5","","image-keyboard-response","32","85457","0.0-2.0-0.10","3WQ3B2KGE92C5353SE57NE42PDTB1C","A3FOKP72T5I4FR","33Q5P9PUSP8QOKKNNN5S19YACNVCZX","","img/practice/S4.jpg","74","4","practice","74","true","","","",""
"null","","html-keyboard-response","33","85760","0.0-2.0-1.10","3WQ3B2KGE92C5353SE57NE42PDTB1C","A3FOKP72T5I4FR","33Q5P9PUSP8QOKKNNN5S19YACNVCZX","","<img src=""img/practice/S4.jpg"" width=""540"" height = ""360"" style=""border:16px solid orange"">","null","","","","","","","",""
"null","","html-keyboard-response","34","85766","0.0-2.0-2.10","3WQ3B2KGE92C5353SE57NE42PDTB1C","A3FOKP72T5I4FR","33Q5P9PUSP8QOKKNNN5S19YACNVCZX","","","null","","","","","","","",""
"962.6000000014901","","image-keyboard-response","35","86731","0.0-2.0-0.11","3WQ3B2KGE92C5353SE57NE42PDTB1C","A3FOKP72T5I4FR","33Q5P9PUSP8QOKKNNN5S19YACNVCZX","","img/practice/S2.jpg","68","2","practice","68","true","","","",""
"null","","html-keyboard-response","36","87044","0.0-2.0-1.11","3WQ3B2KGE92C5353SE57NE42PDTB1C","A3FOKP72T5I4FR","33Q5P9PUSP8QOKKNNN5S19YACNVCZX","","<img src=""img/practice/S2.jpg"" width=""540"" height = ""360"" style=""border:16px solid orange"">","null","","","","","","","",""
"null","","html-keyboard-response","37","87053","0.0-2.0-2.11","3WQ3B2KGE92C5353SE57NE42PDTB1C","A3FOKP72T5I4FR","33Q5P9PUSP8QOKKNNN5S19YACNVCZX","","","null","","","","","","","",""
"741.3999999985099","","image-keyboard-response","38","87798","0.0-2.0-0.12","3WQ3B2KGE92C5353SE57NE42PDTB1C","A3FOKP72T5I4FR","33Q5P9PUSP8QOKKNNN5S19YACNVCZX","","img/practice/S4.jpg","74","4","practice","74","true","","","",""
"null","","html-keyboard-response","39","88106","0.0-2.0-1.12","3WQ3B2KGE92C5353SE57NE42PDTB1C","A3FOKP72T5I4FR","33Q5P9PUSP8QOKKNNN5S19YACNVCZX","","<img src=""img/practice/S4.jpg"" width=""540"" height = ""360"" style=""border:16px solid orange"">","null","","","","","","","",""
"null","","html-keyboard-response","40","88119","0.0-2.0-2.12","3WQ3B2KGE92C5353SE57NE42PDTB1C","A3FOKP72T5I4FR","33Q5P9PUSP8QOKKNNN5S19YACNVCZX","","","null","","","","","","","",""
"584.7000000029802","","image-keyboard-response","41","88706","0.0-2.0-0.13","3WQ3B2KGE92C5353SE57NE42PDTB1C","A3FOKP72T5I4FR","33Q5P9PUSP8QOKKNNN5S19YACNVCZX","","img/practice/S2.jpg","68","2","practice","68","true","","","",""
"null","","html-keyboard-response","42","89011","0.0-2.0-1.13","3WQ3B2KGE92C5353SE57NE42PDTB1C","A3FOKP72T5I4FR","33Q5P9PUSP8QOKKNNN5S19YACNVCZX","","<img src=""img/practice/S2.jpg"" width=""540"" height = ""360"" style=""border:16px solid orange"">","null","","","","","","","",""
"null","","html-keyboard-response","43","89020","0.0-2.0-2.13","3WQ3B2KGE92C5353SE57NE42PDTB1C","A3FOKP72T5I4FR","33Q5P9PUSP8QOKKNNN5S19YACNVCZX","","","null","","","","","","","",""
"576.7999999970198","","image-keyboard-response","44","89599","0.0-2.0-0.14","3WQ3B2KGE92C5353SE57NE42PDTB1C","A3FOKP72T5I4FR","33Q5P9PUSP8QOKKNNN5S19YACNVCZX","","img/practice/S1.jpg","83","1","practice","83","true","","","",""
"null","","html-keyboard-response","45","89902","0.0-2.0-1.14","3WQ3B2KGE92C5353SE57NE42PDTB1C","A3FOKP72T5I4FR","33Q5P9PUSP8QOKKNNN5S19YACNVCZX","","<img src=""img/practice/S1.jpg"" width=""540"" height = ""360"" style=""border:16px solid orange"">","null","","","","","","","",""
"null","","html-keyboard-response","46","89910","0.0-2.0-2.14","3WQ3B2KGE92C5353SE57NE42PDTB1C","A3FOKP72T5I4FR","33Q5P9PUSP8QOKKNNN5S19YACNVCZX","","","null","","","","","","","",""
"462.8999999985099","","image-keyboard-response","47","90375","0.0-2.0-0.15","3WQ3B2KGE92C5353SE57NE42PDTB1C","A3FOKP72T5I4FR","33Q5P9PUSP8QOKKNNN5S19YACNVCZX","","img/practice/S3.jpg","72","3","practice","72","true","","","",""
"null","","html-keyboard-response","48","90685","0.0-2.0-1.15","3WQ3B2KGE92C5353SE57NE42PDTB1C","A3FOKP72T5I4FR","33Q5P9PUSP8QOKKNNN5S19YACNVCZX","","<img src=""img/practice/S3.jpg"" width=""540"" height = ""360"" style=""border:16px solid orange"">","null","","","","","","","",""
"null","","html-keyboard-response","49","90695","0.0-2.0-2.15","3WQ3B2KGE92C5353SE57NE42PDTB1C","A3FOKP72T5I4FR","33Q5P9PUSP8QOKKNNN5S19YACNVCZX","","","null","","","","","","","",""
"469.19999999552965","","image-keyboard-response","50","91167","0.0-2.0-0.16","3WQ3B2KGE92C5353SE57NE42PDTB1C","A3FOKP72T5I4FR","33Q5P9PUSP8QOKKNNN5S19YACNVCZX","","img/practice/S3.jpg","72","3","practice","72","true","","","",""
"null","","html-keyboard-response","51","91473","0.0-2.0-1.16","3WQ3B2KGE92C5353SE57NE42PDTB1C","A3FOKP72T5I4FR","33Q5P9PUSP8QOKKNNN5S19YACNVCZX","","<img src=""img/practice/S3.jpg"" width=""540"" height = ""360"" style=""border:16px solid orange"">","null","","","","","","","",""
"null","","html-keyboard-response","52","91482","0.0-2.0-2.16","3WQ3B2KGE92C5353SE57NE42PDTB1C","A3FOKP72T5I4FR","33Q5P9PUSP8QOKKNNN5S19YACNVCZX","","","null","","","","","","","",""
"630.8000000044703","","image-keyboard-response","53","92114","0.0-2.0-0.17","3WQ3B2KGE92C5353SE57NE42PDTB1C","A3FOKP72T5I4FR","33Q5P9PUSP8QOKKNNN5S19YACNVCZX","","img/practice/S4.jpg","74","4","practice","74","true","","","",""
"null","","html-keyboard-response","54","92419","0.0-2.0-1.17","3WQ3B2KGE92C5353SE57NE42PDTB1C","A3FOKP72T5I4FR","33Q5P9PUSP8QOKKNNN5S19YACNVCZX","","<img src=""img/practice/S4.jpg"" width=""540"" height = ""360"" style=""border:16px solid orange"">","null","","","","","","","",""
"null","","html-keyboard-response","55","92433","0.0-2.0-2.17","3WQ3B2KGE92C5353SE57NE42PDTB1C","A3FOKP72T5I4FR","33Q5P9PUSP8QOKKNNN5S19YACNVCZX","","","null","","","","","","","",""
"582.7999999970198","","image-keyboard-response","56","93019","0.0-2.0-0.18","3WQ3B2KGE92C5353SE57NE42PDTB1C","A3FOKP72T5I4FR","33Q5P9PUSP8QOKKNNN5S19YACNVCZX","","img/practice/S2.jpg","68","2","practice","68","true","","","",""
"null","","html-keyboard-response","57","93326","0.0-2.0-1.18","3WQ3B2KGE92C5353SE57NE42PDTB1C","A3FOKP72T5I4FR","33Q5P9PUSP8QOKKNNN5S19YACNVCZX","","<img src=""img/practice/S2.jpg"" width=""540"" height = ""360"" style=""border:16px solid orange"">","null","","","","","","","",""
"null","","html-keyboard-response","58","93332","0.0-2.0-2.18","3WQ3B2KGE92C5353SE57NE42PDTB1C","A3FOKP72T5I4FR","33Q5P9PUSP8QOKKNNN5S19YACNVCZX","","","null","","","","","","","",""
"406.40000000596046","","image-keyboard-response","59","93741","0.0-2.0-0.19","3WQ3B2KGE92C5353SE57NE42PDTB1C","A3FOKP72T5I4FR","33Q5P9PUSP8QOKKNNN5S19YACNVCZX","","img/practice/S1.jpg","83","1","practice","83","true","","","",""
"null","","html-keyboard-response","60","94049","0.0-2.0-1.19","3WQ3B2KGE92C5353SE57NE42PDTB1C","A3FOKP72T5I4FR","33Q5P9PUSP8QOKKNNN5S19YACNVCZX","","<img src=""img/practice/S1.jpg"" width=""540"" height = ""360"" style=""border:16px solid orange"">","null","","","","","","","",""
"null","","html-keyboard-response","61","94055","0.0-2.0-2.19","3WQ3B2KGE92C5353SE57NE42PDTB1C","A3FOKP72T5I4FR","33Q5P9PUSP8QOKKNNN5S19YACNVCZX","","","null","","","","","","","",""
"595.1999999955297","","image-keyboard-response","62","94653","0.0-2.0-0.20","3WQ3B2KGE92C5353SE57NE42PDTB1C","A3FOKP72T5I4FR","33Q5P9PUSP8QOKKNNN5S19YACNVCZX","","img/practice/S2.jpg","68","2","practice","68","true","","","",""
"null","","html-keyboard-response","63","94957","0.0-2.0-1.20","3WQ3B2KGE92C5353SE57NE42PDTB1C","A3FOKP72T5I4FR","33Q5P9PUSP8QOKKNNN5S19YACNVCZX","","<img src=""img/practice/S2.jpg"" width=""540"" height = ""360"" style=""border:16px solid orange"">","null","","","","","","","",""
"null","","html-keyboard-response","64","94965","0.0-2.0-2.20","3WQ3B2KGE92C5353SE57NE42PDTB1C","A3FOKP72T5I4FR","33Q5P9PUSP8QOKKNNN5S19YACNVCZX","","","null","","","","","","","",""
"720.8999999985099","","image-keyboard-response","65","95688","0.0-2.0-0.21","3WQ3B2KGE92C5353SE57NE42PDTB1C","A3FOKP72T5I4FR","33Q5P9PUSP8QOKKNNN5S19YACNVCZX","","img/practice/S3.jpg","72","3","practice","72","true","","","",""
"null","","html-keyboard-response","66","96001","0.0-2.0-1.21","3WQ3B2KGE92C5353SE57NE42PDTB1C","A3FOKP72T5I4FR","33Q5P9PUSP8QOKKNNN5S19YACNVCZX","","<img src=""img/practice/S3.jpg"" width=""540"" height = ""360"" style=""border:16px solid orange"">","null","","","","","","","",""
"null","","html-keyboard-response","67","96009","0.0-2.0-2.21","3WQ3B2KGE92C5353SE57NE42PDTB1C","A3FOKP72T5I4FR","33Q5P9PUSP8QOKKNNN5S19YACNVCZX","","","null","","","","","","","",""
"829.5","","image-keyboard-response","68","96840","0.0-2.0-0.22","3WQ3B2KGE92C5353SE57NE42PDTB1C","A3FOKP72T5I4FR","33Q5P9PUSP8QOKKNNN5S19YACNVCZX","","img/practice/S4.jpg","74","4","practice","74","true","","","",""
"null","","html-keyboard-response","69","97147","0.0-2.0-1.22","3WQ3B2KGE92C5353SE57NE42PDTB1C","A3FOKP72T5I4FR","33Q5P9PUSP8QOKKNNN5S19YACNVCZX","","<img src=""img/practice/S4.jpg"" width=""540"" height = ""360"" style=""border:16px solid orange"">","null","","","","","","","",""
"null","","html-keyboard-response","70","97156","0.0-2.0-2.22","3WQ3B2KGE92C5353SE57NE42PDTB1C","A3FOKP72T5I4FR","33Q5P9PUSP8QOKKNNN5S19YACNVCZX","","","null","","","","","","","",""
"577.3000000044703","","image-keyboard-response","71","97737","0.0-2.0-0.23","3WQ3B2KGE92C5353SE57NE42PDTB1C","A3FOKP72T5I4FR","33Q5P9PUSP8QOKKNNN5S19YACNVCZX","","img/practice/S1.jpg","83","1","practice","83","true","","","",""
"null","","html-keyboard-response","72","98043","0.0-2.0-1.23","3WQ3B2KGE92C5353SE57NE42PDTB1C","A3FOKP72T5I4FR","33Q5P9PUSP8QOKKNNN5S19YACNVCZX","","<img src=""img/practice/S1.jpg"" width=""540"" height = ""360"" style=""border:16px solid orange"">","null","","","","","","","",""
"null","","html-keyboard-response","73","98050","0.0-2.0-2.23","3WQ3B2KGE92C5353SE57NE42PDTB1C","A3FOKP72T5I4FR","33Q5P9PUSP8QOKKNNN5S19YACNVCZX","","","null","","","","","","","",""
"5603.70000000298","","instructions","74","103655","0.0-3.0","3WQ3B2KGE92C5353SE57NE42PDTB1C","A3FOKP72T5I4FR","33Q5P9PUSP8QOKKNNN5S19YACNVCZX","[{""page_index"":0,""viewing_time"":5603.10000000149}]","","","","","","","","","",""
"4154","","instructions","75","107810","0.0-4.0","3WQ3B2KGE92C5353SE57NE42PDTB1C","A3FOKP72T5I4FR","33Q5P9PUSP8QOKKNNN5S19YACNVCZX","[{""page_index"":0,""viewing_time"":4153.39999999851}]","","","","","","","","","",""
"5097.9000000059605","","instructions","76","112909","0.0-5.0","3WQ3B2KGE92C5353SE57NE42PDTB1C","A3FOKP72T5I4FR","33Q5P9PUSP8QOKKNNN5S19YACNVCZX","[{""page_index"":0,""viewing_time"":5097.4000000059605}]","","","","","","","","","",""
"914","","image-keyboard-response","77","113825","0.0-6.0","3WQ3B2KGE92C5353SE57NE42PDTB1C","A3FOKP72T5I4FR","33Q5P9PUSP8QOKKNNN5S19YACNVCZX","","img/set1/S3.jpg","83","3","random","72","false","random,structured_normal,structured_incentive","2,3,1,2","",""
"null","","html-keyboard-response","78","114181","0.0-7.0","3WQ3B2KGE92C5353SE57NE42PDTB1C","A3FOKP72T5I4FR","33Q5P9PUSP8QOKKNNN5S19YACNVCZX","","<img src=""img/set1/S3.jpg"" width=""540"" height = ""360"">","null","","","","","","","",""
"null","","html-keyboard-response","79","114189","0.0-8.0","3WQ3B2KGE92C5353SE57NE42PDTB1C","A3FOKP72T5I4FR","33Q5P9PUSP8QOKKNNN5S19YACNVCZX","","","null","","","","","","","",""
"821.1000000014901","","image-keyboard-response","80","115012","0.0-9.0","3WQ3B2KGE92C5353SE57NE42PDTB1C","A3FOKP72T5I4FR","33Q5P9PUSP8QOKKNNN5S19YACNVCZX","","img/set1/S2.jpg","83","2","random","68","false","random,structured_normal,structured_incentive","2,3,1,2","",""
"null","","html-keyboard-response","81","115374","0.0-10.0","3WQ3B2KGE92C5353SE57NE42PDTB1C","A3FOKP72T5I4FR","33Q5P9PUSP8QOKKNNN5S19YACNVCZX","","<img src=""img/set1/S2.jpg"" width=""540"" height = ""360"">","null","","","","","","","",""
"null","","html-keyboard-response","82","115386","0.0-11.0","3WQ3B2KGE92C5353SE57NE42PDTB1C","A3FOKP72T5I4FR","33Q5P9PUSP8QOKKNNN5S19YACNVCZX","","","null","","","","","","","",""
"729.1000000014901","","image-keyboard-response","83","116116","0.0-12.0","3WQ3B2KGE92C5353SE57NE42PDTB1C","A3FOKP72T5I4FR","33Q5P9PUSP8QOKKNNN5S19YACNVCZX","","img/set1/S3.jpg","68","3","random","72","false","random,structured_normal,structured_incentive","2,3,1,2","",""
"null","","html-keyboard-response","84","116469","0.0-13.0","3WQ3B2KGE92C5353SE57NE42PDTB1C","A3FOKP72T5I4FR","33Q5P9PUSP8QOKKNNN5S19YACNVCZX","","<img src=""img/set1/S3.jpg"" width=""540"" height = ""360"">","null","","","","","","","",""
"null","","html-keyboard-response","85","116475","0.0-14.0","3WQ3B2KGE92C5353SE57NE42PDTB1C","A3FOKP72T5I4FR","33Q5P9PUSP8QOKKNNN5S19YACNVCZX","","","null","","","","","","","",""
"1425.6999999955297","","image-keyboard-response","86","117903","0.0-15.0","3WQ3B2KGE92C5353SE57NE42PDTB1C","A3FOKP72T5I4FR","33Q5P9PUSP8QOKKNNN5S19YACNVCZX","","img/set1/S2.jpg","72","2","random","68","false","random,structured_normal,structured_incentive","2,3,1,2","",""
"null","","html-keyboard-response","87","118260","0.0-16.0","3WQ3B2KGE92C5353SE57NE42PDTB1C","A3FOKP72T5I4FR","33Q5P9PUSP8QOKKNNN5S19YACNVCZX","","<img src=""img/set1/S2.jpg"" width=""540"" height = ""360"">","null","","","","","","","",""
"null","","html-keyboard-response","88","118271","0.0-17.0","3WQ3B2KGE92C5353SE57NE42PDTB1C","A3FOKP72T5I4FR","33Q5P9PUSP8QOKKNNN5S19YACNVCZX","","","null","","","","","","","",""
"561.5","","image-keyboard-response","89","118834","0.0-18.0","3WQ3B2KGE92C5353SE57NE42PDTB1C","A3FOKP72T5I4FR","33Q5P9PUSP8QOKKNNN5S19YACNVCZX","","img/set1/S2.jpg","72","2","random","68","false","random,structured_normal,structured_incentive","2,3,1,2","",""
"null","","html-keyboard-response","90","119195","0.0-19.0","3WQ3B2KGE92C5353SE57NE42PDTB1C","A3FOKP72T5I4FR","33Q5P9PUSP8QOKKNNN5S19YACNVCZX","","<img src=""img/set1/S2.jpg"" width=""540"" height = ""360"">","null","","","","","","","",""
"null","","html-keyboard-response","91","119203","0.0-20.0","3WQ3B2KGE92C5353SE57NE42PDTB1C","A3FOKP72T5I4FR","33Q5P9PUSP8QOKKNNN5S19YACNVCZX","","","null","","","","","","","",""
"1094.5","","image-keyboard-response","92","120300","0.0-21.0","3WQ3B2KGE92C5353SE57NE42PDTB1C","A3FOKP72T5I4FR","33Q5P9PUSP8QOKKNNN5S19YACNVCZX","","img/set1/S3.jpg","72","3","random","72","true","random,structured_normal,structured_incentive","2,3,1,2","",""
"null","","html-keyboard-response","93","120656","0.0-22.0","3WQ3B2KGE92C5353SE57NE42PDTB1C","A3FOKP72T5I4FR","33Q5P9PUSP8QOKKNNN5S19YACNVCZX","","<img src=""img/set1/S3.jpg"" width=""540"" height = ""360"" style=""border:16px solid orange"">","null","","","","","","","",""
"null","","html-keyboard-response","94","120677","0.0-23.0","3WQ3B2KGE92C5353SE57NE42PDTB1C","A3FOKP72T5I4FR","33Q5P9PUSP8QOKKNNN5S19YACNVCZX","","","null","","","","","","","",""
"545.3999999985099","","image-keyboard-response","95","121230","0.0-24.0","3WQ3B2KGE92C5353SE57NE42PDTB1C","A3FOKP72T5I4FR","33Q5P9PUSP8QOKKNNN5S19YACNVCZX","","img/set1/S3.jpg","72","3","random","72","true","random,structured_normal,structured_incentive","2,3,1,2","",""
"null","","html-keyboard-response","96","121587","0.0-25.0","3WQ3B2KGE92C5353SE57NE42PDTB1C","A3FOKP72T5I4FR","33Q5P9PUSP8QOKKNNN5S19YACNVCZX","","<img src=""img/set1/S3.jpg"" width=""540"" height = ""360"" style=""border:16px solid orange"">","null","","","","","","","",""
"null","","html-keyboard-response","97","121594","0.0-26.0","3WQ3B2KGE92C5353SE57NE42PDTB1C","A3FOKP72T5I4FR","33Q5P9PUSP8QOKKNNN5S19YACNVCZX","","","null","","","","","","","",""
"482.20000000298023","","image-keyboard-response","98","122078","0.0-27.0","3WQ3B2KGE92C5353SE57NE42PDTB1C","A3FOKP72T5I4FR","33Q5P9PUSP8QOKKNNN5S19YACNVCZX","","img/set1/S3.jpg","72","3","random","72","true","random,structured_normal,structured_incentive","2,3,1,2","",""
"null","","html-keyboard-response","99","122433","0.0-28.0","3WQ3B2KGE92C5353SE57NE42PDTB1C","A3FOKP72T5I4FR","33Q5P9PUSP8QOKKNNN5S19YACNVCZX","","<img src=""img/set1/S3.jpg"" width=""540"" height = ""360"" style=""border:16px solid orange"">","null","","","","","","","",""
"null","","html-keyboard-response","100","122441","0.0-29.0","3WQ3B2KGE92C5353SE57NE42PDTB1C","A3FOKP72T5I4FR","33Q5P9PUSP8QOKKNNN5S19YACNVCZX","","","null","","","","","","","",""
"822.3000000044703","","image-keyboard-response","101","123265","0.0-30.0","3WQ3B2KGE92C5353SE57NE42PDTB1C","A3FOKP72T5I4FR","33Q5P9PUSP8QOKKNNN5S19YACNVCZX","","img/set1/S2.jpg","74","2","random","68","false","random,structured_normal,structured_incentive","2,3,1,2","",""
"null","","html-keyboard-response","102","123626","0.0-31.0","3WQ3B2KGE92C5353SE57NE42PDTB1C","A3FOKP72T5I4FR","33Q5P9PUSP8QOKKNNN5S19YACNVCZX","","<img src=""img/set1/S2.jpg"" width=""540"" height = ""360"">","null","","","","","","","",""
"null","","html-keyboard-response","103","123639","0.0-32.0","3WQ3B2KGE92C5353SE57NE42PDTB1C","A3FOKP72T5I4FR","33Q5P9PUSP8QOKKNNN5S19YACNVCZX","","","null","","","","","","","",""
"1202.5","","image-keyboard-response","104","124845","0.0-33.0","3WQ3B2KGE92C5353SE57NE42PDTB1C","A3FOKP72T5I4FR","33Q5P9PUSP8QOKKNNN5S19YACNVCZX","","img/set1/S4.jpg","74","4","random","74","true","random,structured_normal,structured_incentive","2,3,1,2","",""
"null","","html-keyboard-response","105","125246","0.0-34.0","3WQ3B2KGE92C5353SE57NE42PDTB1C","A3FOKP72T5I4FR","33Q5P9PUSP8QOKKNNN5S19YACNVCZX","","<img src=""img/set1/S4.jpg"" width=""540"" height = ""360"" style=""border:16px solid orange"">","null","","","","","","","",""
"null","","html-keyboard-response","106","125258","0.0-35.0","3WQ3B2KGE92C5353SE57NE42PDTB1C","A3FOKP72T5I4FR","33Q5P9PUSP8QOKKNNN5S19YACNVCZX","","","null","","","","","","","",""
"828.8999999985099","","image-keyboard-response","107","126088","0.0-36.0","3WQ3B2KGE92C5353SE57NE42PDTB1C","A3FOKP72T5I4FR","33Q5P9PUSP8QOKKNNN5S19YACNVCZX","","img/set1/S2.jpg","68","2","random","68","true","random,structured_normal,structured_incentive","2,3,1,2","",""
"null","","html-keyboard-response","108","126448","0.0-37.0","3WQ3B2KGE92C5353SE57NE42PDTB1C","A3FOKP72T5I4FR","33Q5P9PUSP8QOKKNNN5S19YACNVCZX","","<img src=""img/set1/S2.jpg"" width=""540"" height = ""360"" style=""border:16px solid orange"">","null","","","","","","","",""
"null","","html-keyboard-response","109","126458","0.0-38.0","3WQ3B2KGE92C5353SE57NE42PDTB1C","A3FOKP72T5I4FR","33Q5P9PUSP8QOKKNNN5S19YACNVCZX","","","null","","","","","","","",""
"728.1999999955297","","image-keyboard-response","110","127188","0.0-39.0","3WQ3B2KGE92C5353SE57NE42PDTB1C","A3FOKP72T5I4FR","33Q5P9PUSP8QOKKNNN5S19YACNVCZX","","img/set1/S1.jpg","83","1","random","83","true","random,structured_normal,structured_incentive","2,3,1,2","",""
"null","","html-keyboard-response","111","127547","0.0-40.0","3WQ3B2KGE92C5353SE57NE42PDTB1C","A3FOKP72T5I4FR","33Q5P9PUSP8QOKKNNN5S19YACNVCZX","","<img src=""img/set1/S1.jpg"" width=""540"" height = ""360"" style=""border:16px solid orange"">","null","","","","","","","",""
"null","","html-keyboard-response","112","127553","0.0-41.0","3WQ3B2KGE92C5353SE57NE42PDTB1C","A3FOKP72T5I4FR","33Q5P9PUSP8QOKKNNN5S19YACNVCZX","","","null","","","","","","","",""
"824","","image-keyboard-response","113","128379","0.0-42.0","3WQ3B2KGE92C5353SE57NE42PDTB1C","A3FOKP72T5I4FR","33Q5P9PUSP8QOKKNNN5S19YACNVCZX","","img/set1/S3.jpg","72","3","random","72","true","random,structured_normal,structured_incentive","2,3,1,2","",""
"null","","html-keyboard-response","114","128746","0.0-43.0","3WQ3B2KGE92C5353SE57NE42PDTB1C","A3FOKP72T5I4FR","33Q5P9PUSP8QOKKNNN5S19YACNVCZX","","<img src=""img/set1/S3.jpg"" width=""540"" height = ""360"" style=""border:16px solid orange"">","null","","","","","","","",""
"null","","html-keyboard-response","115","128756","0.0-44.0","3WQ3B2KGE92C5353SE57NE42PDTB1C","A3FOKP72T5I4FR","33Q5P9PUSP8QOKKNNN5S19YACNVCZX","","","null","","","","","","","",""
"800.7999999970198","","image-keyboard-response","116","129558","0.0-45.0","3WQ3B2KGE92C5353SE57NE42PDTB1C","A3FOKP72T5I4FR","33Q5P9PUSP8QOKKNNN5S19YACNVCZX","","img/set1/S2.jpg","68","2","random","68","true","random,structured_normal,structured_incentive","2,3,1,2","",""
"null","","html-keyboard-response","117","129912","0.0-46.0","3WQ3B2KGE92C5353SE57NE42PDTB1C","A3FOKP72T5I4FR","33Q5P9PUSP8QOKKNNN5S19YACNVCZX","","<img src=""img/set1/S2.jpg"" width=""540"" height = ""360"" style=""border:16px solid orange"">","null","","","","","","","",""
"null","","html-keyboard-response","118","129936","0.0-47.0","3WQ3B2KGE92C5353SE57NE42PDTB1C","A3FOKP72T5I4FR","33Q5P9PUSP8QOKKNNN5S19YACNVCZX","","","null","","","","","","","",""
"439.19999999552965","","image-keyboard-response","119","130377","0.0-48.0","3WQ3B2KGE92C5353SE57NE42PDTB1C","A3FOKP72T5I4FR","33Q5P9PUSP8QOKKNNN5S19YACNVCZX","","img/set1/S2.jpg","68","2","random","68","true","random,structured_normal,structured_incentive","2,3,1,2","",""
"null","","html-keyboard-response","120","130742","0.0-49.0","3WQ3B2KGE92C5353SE57NE42PDTB1C","A3FOKP72T5I4FR","33Q5P9PUSP8QOKKNNN5S19YACNVCZX","","<img src=""img/set1/S2.jpg"" width=""540"" height = ""360"" style=""border:16px solid orange"">","null","","","","","","","",""
"null","","html-keyboard-response","121","130749","0.0-50.0","3WQ3B2KGE92C5353SE57NE42PDTB1C","A3FOKP72T5I4FR","33Q5P9PUSP8QOKKNNN5S19YACNVCZX","","","null","","","","","","","",""
"457.09999999403954","","image-keyboard-response","122","131208","0.0-51.0","3WQ3B2KGE92C5353SE57NE42PDTB1C","A3FOKP72T5I4FR","33Q5P9PUSP8QOKKNNN5S19YACNVCZX","","img/set1/S2.jpg","68","2","random","68","true","random,structured_normal,structured_incentive","2,3,1,2","",""
"null","","html-keyboard-response","123","131563","0.0-52.0","3WQ3B2KGE92C5353SE57NE42PDTB1C","A3FOKP72T5I4FR","33Q5P9PUSP8QOKKNNN5S19YACNVCZX","","<img src=""img/set1/S2.jpg"" width=""540"" height = ""360"" style=""border:16px solid orange"">","null","","","","","","","",""
"null","","html-keyboard-response","124","131569","0.0-53.0","3WQ3B2KGE92C5353SE57NE42PDTB1C","A3FOKP72T5I4FR","33Q5P9PUSP8QOKKNNN5S19YACNVCZX","","","null","","","","","","","",""
"842.5","","image-keyboard-response","125","132414","0.0-54.0","3WQ3B2KGE92C5353SE57NE42PDTB1C","A3FOKP72T5I4FR","33Q5P9PUSP8QOKKNNN5S19YACNVCZX","","img/set1/S4.jpg","83","4","random","74","false","random,structured_normal,structured_incentive","2,3,1,2","",""
"null","","html-keyboard-response","126","132774","0.0-55.0","3WQ3B2KGE92C5353SE57NE42PDTB1C","A3FOKP72T5I4FR","33Q5P9PUSP8QOKKNNN5S19YACNVCZX","","<img src=""img/set1/S4.jpg"" width=""540"" height = ""360"">","null","","","","","","","",""
"null","","html-keyboard-response","127","132784","0.0-56.0","3WQ3B2KGE92C5353SE57NE42PDTB1C","A3FOKP72T5I4FR","33Q5P9PUSP8QOKKNNN5S19YACNVCZX","","","null","","","","","","","",""
"685.7000000029802","","image-keyboard-response","128","133472","0.0-57.0","3WQ3B2KGE92C5353SE57NE42PDTB1C","A3FOKP72T5I4FR","33Q5P9PUSP8QOKKNNN5S19YACNVCZX","","img/set1/S2.jpg","68","2","random","68","true","random,structured_normal,structured_incentive","2,3,1,2","",""
"null","","html-keyboard-response","129","133827","0.0-58.0","3WQ3B2KGE92C5353SE57NE42PDTB1C","A3FOKP72T5I4FR","33Q5P9PUSP8QOKKNNN5S19YACNVCZX","","<img src=""img/set1/S2.jpg"" width=""540"" height = ""360"" style=""border:16px solid orange"">","null","","","","","","","",""
"null","","html-keyboard-response","130","133834","0.0-59.0","3WQ3B2KGE92C5353SE57NE42PDTB1C","A3FOKP72T5I4FR","33Q5P9PUSP8QOKKNNN5S19YACNVCZX","","","null","","","","","","","",""
"384","","image-keyboard-response","131","134220","0.0-60.0","3WQ3B2KGE92C5353SE57NE42PDTB1C","A3FOKP72T5I4FR","33Q5P9PUSP8QOKKNNN5S19YACNVCZX","","img/set1/S2.jpg","68","2","random","68","true","random,structured_normal,structured_incentive","2,3,1,2","",""
"null","","html-keyboard-response","132","134578","0.0-61.0","3WQ3B2KGE92C5353SE57NE42PDTB1C","A3FOKP72T5I4FR","33Q5P9PUSP8QOKKNNN5S19YACNVCZX","","<img src=""img/set1/S2.jpg"" width=""540"" height = ""360"" style=""border:16px solid orange"">","null","","","","","","","",""
"null","","html-keyboard-response","133","134590","0.0-62.0","3WQ3B2KGE92C5353SE57NE42PDTB1C","A3FOKP72T5I4FR","33Q5P9PUSP8QOKKNNN5S19YACNVCZX","","","null","","","","","","","",""
"778.7999999970198","","image-keyboard-response","134","135371","0.0-63.0","3WQ3B2KGE92C5353SE57NE42PDTB1C","A3FOKP72T5I4FR","33Q5P9PUSP8QOKKNNN5S19YACNVCZX","","img/set1/S4.jpg","74","4","random","74","true","random,structured_normal,structured_incentive","2,3,1,2","",""
"null","","html-keyboard-response","135","135726","0.0-64.0","3WQ3B2KGE92C5353SE57NE42PDTB1C","A3FOKP72T5I4FR","33Q5P9PUSP8QOKKNNN5S19YACNVCZX","","<img src=""img/set1/S4.jpg"" width=""540"" height = ""360"" style=""border:16px solid orange"">","null","","","","","","","",""
"null","","html-keyboard-response","136","135733","0.0-65.0","3WQ3B2KGE92C5353SE57NE42PDTB1C","A3FOKP72T5I4FR","33Q5P9PUSP8QOKKNNN5S19YACNVCZX","","","null","","","","","","","",""
"null","","image-keyboard-response","137","138245","0.0-66.0","3WQ3B2KGE92C5353SE57NE42PDTB1C","A3FOKP72T5I4FR","33Q5P9PUSP8QOKKNNN5S19YACNVCZX","","img/set1/S1.jpg","null","1","random","83","false","random,structured_normal,structured_incentive","2,3,1,2","",""
"null","","html-keyboard-response","138","138605","0.0-67.0","3WQ3B2KGE92C5353SE57NE42PDTB1C","A3FOKP72T5I4FR","33Q5P9PUSP8QOKKNNN5S19YACNVCZX","","<img src=""img/set1/S1.jpg"" width=""540"" height = ""360"">","null","","","","","","","",""
"null","","html-keyboard-response","139","138612","0.0-68.0","3WQ3B2KGE92C5353SE57NE42PDTB1C","A3FOKP72T5I4FR","33Q5P9PUSP8QOKKNNN5S19YACNVCZX","","","null","","","","","","","",""
"882.8000000044703","","image-keyboard-response","140","139497","0.0-69.0","3WQ3B2KGE92C5353SE57NE42PDTB1C","A3FOKP72T5I4FR","33Q5P9PUSP8QOKKNNN5S19YACNVCZX","","img/set1/S3.jpg","72","3","random","72","true","random,structured_normal,structured_incentive","2,3,1,2","",""
"null","","html-keyboard-response","141","139855","0.0-70.0","3WQ3B2KGE92C5353SE57NE42PDTB1C","A3FOKP72T5I4FR","33Q5P9PUSP8QOKKNNN5S19YACNVCZX","","<img src=""img/set1/S3.jpg"" width=""540"" height = ""360"" style=""border:16px solid orange"">","null","","","","","","","",""
"null","","html-keyboard-response","142","139862","0.0-71.0","3WQ3B2KGE92C5353SE57NE42PDTB1C","A3FOKP72T5I4FR","33Q5P9PUSP8QOKKNNN5S19YACNVCZX","","","null","","","","","","","",""
"898.1999999955297","","image-keyboard-response","143","140762","0.0-72.0","3WQ3B2KGE92C5353SE57NE42PDTB1C","A3FOKP72T5I4FR","33Q5P9PUSP8QOKKNNN5S19YACNVCZX","","img/set1/S2.jpg","74","2","random","68","false","random,structured_normal,structured_incentive","2,3,1,2","",""
"null","","html-keyboard-response","144","141123","0.0-73.0","3WQ3B2KGE92C5353SE57NE42PDTB1C","A3FOKP72T5I4FR","33Q5P9PUSP8QOKKNNN5S19YACNVCZX","","<img src=""img/set1/S2.jpg"" width=""540"" height = ""360"">","null","","","","","","","",""
"null","","html-keyboard-response","145","141134","0.0-74.0","3WQ3B2KGE92C5353SE57NE42PDTB1C","A3FOKP72T5I4FR","33Q5P9PUSP8QOKKNNN5S19YACNVCZX","","","null","","","","","","","",""
"888.1000000014901","","image-keyboard-response","146","142024","0.0-75.0","3WQ3B2KGE92C5353SE57NE42PDTB1C","A3FOKP72T5I4FR","33Q5P9PUSP8QOKKNNN5S19YACNVCZX","","img/set1/S1.jpg","74","1","random","83","false","random,structured_normal,structured_incentive","2,3,1,2","",""
"null","","html-keyboard-response","147","142379","0.0-76.0","3WQ3B2KGE92C5353SE57NE42PDTB1C","A3FOKP72T5I4FR","33Q5P9PUSP8QOKKNNN5S19YACNVCZX","","<img src=""img/set1/S1.jpg"" width=""540"" height = ""360"">","null","","","","","","","",""
"null","","html-keyboard-response","148","142390","0.0-77.0","3WQ3B2KGE92C5353SE57NE42PDTB1C","A3FOKP72T5I4FR","33Q5P9PUSP8QOKKNNN5S19YACNVCZX","","","null","","","","","","","",""
"642.3999999985099","","image-keyboard-response","149","143034","0.0-78.0","3WQ3B2KGE92C5353SE57NE42PDTB1C","A3FOKP72T5I4FR","33Q5P9PUSP8QOKKNNN5S19YACNVCZX","","img/set1/S2.jpg","68","2","random","68","true","random,structured_normal,structured_incentive","2,3,1,2","",""
"null","","html-keyboard-response","150","143394","0.0-79.0","3WQ3B2KGE92C5353SE57NE42PDTB1C","A3FOKP72T5I4FR","33Q5P9PUSP8QOKKNNN5S19YACNVCZX","","<img src=""img/set1/S2.jpg"" width=""540"" height = ""360"" style=""border:16px solid orange"">","null","","","","","","","",""
"null","","html-keyboard-response","151","143406","0.0-80.0","3WQ3B2KGE92C5353SE57NE42PDTB1C","A3FOKP72T5I4FR","33Q5P9PUSP8QOKKNNN5S19YACNVCZX","","","null","","","","","","","",""
"890.6000000014901","","image-keyboard-response","152","144299","0.0-81.0","3WQ3B2KGE92C5353SE57NE42PDTB1C","A3FOKP72T5I4FR","33Q5P9PUSP8QOKKNNN5S19YACNVCZX","","img/set1/S3.jpg","72","3","random","72","true","random,structured_normal,structured_incentive","2,3,1,2","",""
"null","","html-keyboard-response","153","144657","0.0-82.0","3WQ3B2KGE92C5353SE57NE42PDTB1C","A3FOKP72T5I4FR","33Q5P9PUSP8QOKKNNN5S19YACNVCZX","","<img src=""img/set1/S3.jpg"" width=""540"" height = ""360"" style=""border:16px solid orange"">","null","","","","","","","",""
"null","","html-keyboard-response","154","144664","0.0-83.0","3WQ3B2KGE92C5353SE57NE42PDTB1C","A3FOKP72T5I4FR","33Q5P9PUSP8QOKKNNN5S19YACNVCZX","","","null","","","","","","","",""
"820","","image-keyboard-response","155","145487","0.0-84.0","3WQ3B2KGE92C5353SE57NE42PDTB1C","A3FOKP72T5I4FR","33Q5P9PUSP8QOKKNNN5S19YACNVCZX","","img/set1/S4.jpg","83","4","random","74","false","random,structured_normal,structured_incentive","2,3,1,2","",""
"null","","html-keyboard-response","156","145848","0.0-85.0","3WQ3B2KGE92C5353SE57NE42PDTB1C","A3FOKP72T5I4FR","33Q5P9PUSP8QOKKNNN5S19YACNVCZX","","<img src=""img/set1/S4.jpg"" width=""540"" height = ""360"">","null","","","","","","","",""
"null","","html-keyboard-response","157","145855","0.0-86.0","3WQ3B2KGE92C5353SE57NE42PDTB1C","A3FOKP72T5I4FR","33Q5P9PUSP8QOKKNNN5S19YACNVCZX","","","null","","","","","","","",""
"1745.1000000014901","","image-keyboard-response","158","147602","0.0-87.0","3WQ3B2KGE92C5353SE57NE42PDTB1C","A3FOKP72T5I4FR","33Q5P9PUSP8QOKKNNN5S19YACNVCZX","","img/set1/S2.jpg","68","2","random","68","true","random,structured_normal,structured_incentive","2,3,1,2","",""
"null","","html-keyboard-response","159","147969","0.0-88.0","3WQ3B2KGE92C5353SE57NE42PDTB1C","A3FOKP72T5I4FR","33Q5P9PUSP8QOKKNNN5S19YACNVCZX","","<img src=""img/set1/S2.jpg"" width=""540"" height = ""360"" style=""border:16px solid orange"">","null","","","","","","","",""
"null","","html-keyboard-response","160","147984","0.0-89.0","3WQ3B2KGE92C5353SE57NE42PDTB1C","A3FOKP72T5I4FR","33Q5P9PUSP8QOKKNNN5S19YACNVCZX","","","null","","","","","","","",""
"625","","image-keyboard-response","161","148612","0.0-90.0","3WQ3B2KGE92C5353SE57NE42PDTB1C","A3FOKP72T5I4FR","33Q5P9PUSP8QOKKNNN5S19YACNVCZX","","img/set1/S3.jpg","72","3","random","72","true","random,structured_normal,structured_incentive","2,3,1,2","",""
"null","","html-keyboard-response","162","148978","0.0-91.0","3WQ3B2KGE92C5353SE57NE42PDTB1C","A3FOKP72T5I4FR","33Q5P9PUSP8QOKKNNN5S19YACNVCZX","","<img src=""img/set1/S3.jpg"" width=""540"" height = ""360"" style=""border:16px solid orange"">","null","","","","","","","",""
"null","","html-keyboard-response","163","148990","0.0-92.0","3WQ3B2KGE92C5353SE57NE42PDTB1C","A3FOKP72T5I4FR","33Q5P9PUSP8QOKKNNN5S19YACNVCZX","","","null","","","","","","","",""
"938.3000000044703","","image-keyboard-response","164","149930","0.0-93.0","3WQ3B2KGE92C5353SE57NE42PDTB1C","A3FOKP72T5I4FR","33Q5P9PUSP8QOKKNNN5S19YACNVCZX","","img/set1/S4.jpg","74","4","random","74","true","random,structured_normal,structured_incentive","2,3,1,2","",""
"null","","html-keyboard-response","165","150287","0.0-94.0","3WQ3B2KGE92C5353SE57NE42PDTB1C","A3FOKP72T5I4FR","33Q5P9PUSP8QOKKNNN5S19YACNVCZX","","<img src=""img/set1/S4.jpg"" width=""540"" height = ""360"" style=""border:16px solid orange"">","null","","","","","","","",""
"null","","html-keyboard-response","166","150292","0.0-95.0","3WQ3B2KGE92C5353SE57NE42PDTB1C","A3FOKP72T5I4FR","33Q5P9PUSP8QOKKNNN5S19YACNVCZX","","","null","","","","","","","",""
"834.6000000014901","","image-keyboard-response","167","151129","0.0-96.0","3WQ3B2KGE92C5353SE57NE42PDTB1C","A3FOKP72T5I4FR","33Q5P9PUSP8QOKKNNN5S19YACNVCZX","","img/set1/S3.jpg","72","3","random","72","true","random,structured_normal,structured_incentive","2,3,1,2","",""
"null","","html-keyboard-response","168","151485","0.0-97.0","3WQ3B2KGE92C5353SE57NE42PDTB1C","A3FOKP72T5I4FR","33Q5P9PUSP8QOKKNNN5S19YACNVCZX","","<img src=""img/set1/S3.jpg"" width=""540"" height = ""360"" style=""border:16px solid orange"">","null","","","","","","","",""
"null","","html-keyboard-response","169","151501","0.0-98.0","3WQ3B2KGE92C5353SE57NE42PDTB1C","A3FOKP72T5I4FR","33Q5P9PUSP8QOKKNNN5S19YACNVCZX","","","null","","","","","","","",""
"542.6000000014901","","image-keyboard-response","170","152046","0.0-99.0","3WQ3B2KGE92C5353SE57NE42PDTB1C","A3FOKP72T5I4FR","33Q5P9PUSP8QOKKNNN5S19YACNVCZX","","img/set1/S4.jpg","74","4","random","74","true","random,structured_normal,structured_incentive","2,3,1,2","",""
"null","","html-keyboard-response","171","152403","0.0-100.0","3WQ3B2KGE92C5353SE57NE42PDTB1C","A3FOKP72T5I4FR","33Q5P9PUSP8QOKKNNN5S19YACNVCZX","","<img src=""img/set1/S4.jpg"" width=""540"" height = ""360"" style=""border:16px solid orange"">","null","","","","","","","",""
"null","","html-keyboard-response","172","152411","0.0-101.0","3WQ3B2KGE92C5353SE57NE42PDTB1C","A3FOKP72T5I4FR","33Q5P9PUSP8QOKKNNN5S19YACNVCZX","","","null","","","","","","","",""
"500.70000000298023","","image-keyboard-response","173","152913","0.0-102.0","3WQ3B2KGE92C5353SE57NE42PDTB1C","A3FOKP72T5I4FR","33Q5P9PUSP8QOKKNNN5S19YACNVCZX","","img/set1/S4.jpg","72","4","random","74","false","random,structured_normal,structured_incentive","2,3,1,2","",""
"null","","html-keyboard-response","174","153274","0.0-103.0","3WQ3B2KGE92C5353SE57NE42PDTB1C","A3FOKP72T5I4FR","33Q5P9PUSP8QOKKNNN5S19YACNVCZX","","<img src=""img/set1/S4.jpg"" width=""540"" height = ""360"">","null","","","","","","","",""
"null","","html-keyboard-response","175","153281","0.0-104.0","3WQ3B2KGE92C5353SE57NE42PDTB1C","A3FOKP72T5I4FR","33Q5P9PUSP8QOKKNNN5S19YACNVCZX","","","null","","","","","","","",""
"587.8999999985099","","image-keyboard-response","176","153871","0.0-105.0","3WQ3B2KGE92C5353SE57NE42PDTB1C","A3FOKP72T5I4FR","33Q5P9PUSP8QOKKNNN5S19YACNVCZX","","img/set1/S4.jpg","72","4","random","74","false","random,structured_normal,structured_incentive","2,3,1,2","",""
"null","","html-keyboard-response","177","154230","0.0-106.0","3WQ3B2KGE92C5353SE57NE42PDTB1C","A3FOKP72T5I4FR","33Q5P9PUSP8QOKKNNN5S19YACNVCZX","","<img src=""img/set1/S4.jpg"" width=""540"" height = ""360"">","null","","","","","","","",""
"null","","html-keyboard-response","178","154237","0.0-107.0","3WQ3B2KGE92C5353SE57NE42PDTB1C","A3FOKP72T5I4FR","33Q5P9PUSP8QOKKNNN5S19YACNVCZX","","","null","","","","","","","",""
"697.5","","image-keyboard-response","179","154937","0.0-108.0","3WQ3B2KGE92C5353SE57NE42PDTB1C","A3FOKP72T5I4FR","33Q5P9PUSP8QOKKNNN5S19YACNVCZX","","img/set1/S3.jpg","74","3","random","72","false","random,structured_normal,structured_incentive","2,3,1,2","",""
"null","","html-keyboard-response","180","155294","0.0-109.0","3WQ3B2KGE92C5353SE57NE42PDTB1C","A3FOKP72T5I4FR","33Q5P9PUSP8QOKKNNN5S19YACNVCZX","","<img src=""img/set1/S3.jpg"" width=""540"" height = ""360"">","null","","","","","","","",""
"null","","html-keyboard-response","181","155309","0.0-110.0","3WQ3B2KGE92C5353SE57NE42PDTB1C","A3FOKP72T5I4FR","33Q5P9PUSP8QOKKNNN5S19YACNVCZX","","","null","","","","","","","",""
"1398.5","","image-keyboard-response","182","156710","0.0-111.0","3WQ3B2KGE92C5353SE57NE42PDTB1C","A3FOKP72T5I4FR","33Q5P9PUSP8QOKKNNN5S19YACNVCZX","","img/set1/S4.jpg","74","4","random","74","true","random,structured_normal,structured_incentive","2,3,1,2","",""
"null","","html-keyboard-response","183","157067","0.0-112.0","3WQ3B2KGE92C5353SE57NE42PDTB1C","A3FOKP72T5I4FR","33Q5P9PUSP8QOKKNNN5S19YACNVCZX","","<img src=""img/set1/S4.jpg"" width=""540"" height = ""360"" style=""border:16px solid orange"">","null","","","","","","","",""
"null","","html-keyboard-response","184","157075","0.0-113.0","3WQ3B2KGE92C5353SE57NE42PDTB1C","A3FOKP72T5I4FR","33Q5P9PUSP8QOKKNNN5S19YACNVCZX","","","null","","","","","","","",""
"827.1999999955297","","image-keyboard-response","185","157905","0.0-114.0","3WQ3B2KGE92C5353SE57NE42PDTB1C","A3FOKP72T5I4FR","33Q5P9PUSP8QOKKNNN5S19YACNVCZX","","img/set1/S1.jpg","83","1","random","83","true","random,structured_normal,structured_incentive","2,3,1,2","",""
"null","","html-keyboard-response","186","158264","0.0-115.0","3WQ3B2KGE92C5353SE57NE42PDTB1C","A3FOKP72T5I4FR","33Q5P9PUSP8QOKKNNN5S19YACNVCZX","","<img src=""img/set1/S1.jpg"" width=""540"" height = ""360"" style=""border:16px solid orange"">","null","","","","","","","",""
"null","","html-keyboard-response","187","158270","0.0-116.0","3WQ3B2KGE92C5353SE57NE42PDTB1C","A3FOKP72T5I4FR","33Q5P9PUSP8QOKKNNN5S19YACNVCZX","","","null","","","","","","","",""
"449.59999999403954","","image-keyboard-response","188","158723","0.0-117.0","3WQ3B2KGE92C5353SE57NE42PDTB1C","A3FOKP72T5I4FR","33Q5P9PUSP8QOKKNNN5S19YACNVCZX","","img/set1/S1.jpg","83","1","random","83","true","random,structured_normal,structured_incentive","2,3,1,2","",""
"null","","html-keyboard-response","189","159083","0.0-118.0","3WQ3B2KGE92C5353SE57NE42PDTB1C","A3FOKP72T5I4FR","33Q5P9PUSP8QOKKNNN5S19YACNVCZX","","<img src=""img/set1/S1.jpg"" width=""540"" height = ""360"" style=""border:16px solid orange"">","null","","","","","","","",""
"null","","html-keyboard-response","190","159090","0.0-119.0","3WQ3B2KGE92C5353SE57NE42PDTB1C","A3FOKP72T5I4FR","33Q5P9PUSP8QOKKNNN5S19YACNVCZX","","","null","","","","","","","",""
"622.3999999985099","","image-keyboard-response","191","159714","0.0-120.0","3WQ3B2KGE92C5353SE57NE42PDTB1C","A3FOKP72T5I4FR","33Q5P9PUSP8QOKKNNN5S19YACNVCZX","","img/set1/S3.jpg","72","3","random","72","true","random,structured_normal,structured_incentive","2,3,1,2","",""
"null","","html-keyboard-response","192","160068","0.0-121.0","3WQ3B2KGE92C5353SE57NE42PDTB1C","A3FOKP72T5I4FR","33Q5P9PUSP8QOKKNNN5S19YACNVCZX","","<img src=""img/set1/S3.jpg"" width=""540"" height = ""360"" style=""border:16px solid orange"">","null","","","","","","","",""
"null","","html-keyboard-response","193","160077","0.0-122.0","3WQ3B2KGE92C5353SE57NE42PDTB1C","A3FOKP72T5I4FR","33Q5P9PUSP8QOKKNNN5S19YACNVCZX","","","null","","","","","","","",""
"819","","image-keyboard-response","194","160898","0.0-123.0","3WQ3B2KGE92C5353SE57NE42PDTB1C","A3FOKP72T5I4FR","33Q5P9PUSP8QOKKNNN5S19YACNVCZX","","img/set1/S4.jpg","74","4","random","74","true","random,structured_normal,structured_incentive","2,3,1,2","",""
"null","","html-keyboard-response","195","161260","0.0-124.0","3WQ3B2KGE92C5353SE57NE42PDTB1C","A3FOKP72T5I4FR","33Q5P9PUSP8QOKKNNN5S19YACNVCZX","","<img src=""img/set1/S4.jpg"" width=""540"" height = ""360"" style=""border:16px solid orange"">","null","","","","","","","",""
"null","","html-keyboard-response","196","161277","0.0-125.0","3WQ3B2KGE92C5353SE57NE42PDTB1C","A3FOKP72T5I4FR","33Q5P9PUSP8QOKKNNN5S19YACNVCZX","","","null","","","","","","","",""
"511.6000000014901","","image-keyboard-response","197","161791","0.0-126.0","3WQ3B2KGE92C5353SE57NE42PDTB1C","A3FOKP72T5I4FR","33Q5P9PUSP8QOKKNNN5S19YACNVCZX","","img/set1/S3.jpg","72","3","random","72","true","random,structured_normal,structured_incentive","2,3,1,2","",""
"null","","html-keyboard-response","198","162150","0.0-127.0","3WQ3B2KGE92C5353SE57NE42PDTB1C","A3FOKP72T5I4FR","33Q5P9PUSP8QOKKNNN5S19YACNVCZX","","<img src=""img/set1/S3.jpg"" width=""540"" height = ""360"" style=""border:16px solid orange"">","null","","","","","","","",""
"null","","html-keyboard-response","199","162156","0.0-128.0","3WQ3B2KGE92C5353SE57NE42PDTB1C","A3FOKP72T5I4FR","33Q5P9PUSP8QOKKNNN5S19YACNVCZX","","","null","","","","","","","",""
"707.2999999970198","","image-keyboard-response","200","162865","0.0-129.0","3WQ3B2KGE92C5353SE57NE42PDTB1C","A3FOKP72T5I4FR","33Q5P9PUSP8QOKKNNN5S19YACNVCZX","","img/set1/S1.jpg","83","1","random","83","true","random,structured_normal,structured_incentive","2,3,1,2","",""
"null","","html-keyboard-response","201","163226","0.0-130.0","3WQ3B2KGE92C5353SE57NE42PDTB1C","A3FOKP72T5I4FR","33Q5P9PUSP8QOKKNNN5S19YACNVCZX","","<img src=""img/set1/S1.jpg"" width=""540"" height = ""360"" style=""border:16px solid orange"">","null","","","","","","","",""
"null","","html-keyboard-response","202","163234","0.0-131.0","3WQ3B2KGE92C5353SE57NE42PDTB1C","A3FOKP72T5I4FR","33Q5P9PUSP8QOKKNNN5S19YACNVCZX","","","null","","","","","","","",""
"627.7000000029802","","image-keyboard-response","203","163865","0.0-132.0","3WQ3B2KGE92C5353SE57NE42PDTB1C","A3FOKP72T5I4FR","33Q5P9PUSP8QOKKNNN5S19YACNVCZX","","img/set1/S2.jpg","68","2","random","68","true","random,structured_normal,structured_incentive","2,3,1,2","",""
"null","","html-keyboard-response","204","164221","0.0-133.0","3WQ3B2KGE92C5353SE57NE42PDTB1C","A3FOKP72T5I4FR","33Q5P9PUSP8QOKKNNN5S19YACNVCZX","","<img src=""img/set1/S2.jpg"" width=""540"" height = ""360"" style=""border:16px solid orange"">","null","","","","","","","",""
"null","","html-keyboard-response","205","164233","0.0-134.0","3WQ3B2KGE92C5353SE57NE42PDTB1C","A3FOKP72T5I4FR","33Q5P9PUSP8QOKKNNN5S19YACNVCZX","","","null","","","","","","","",""
"484.79999999701977","","image-keyboard-response","206","164720","0.0-135.0","3WQ3B2KGE92C5353SE57NE42PDTB1C","A3FOKP72T5I4FR","33Q5P9PUSP8QOKKNNN5S19YACNVCZX","","img/set1/S2.jpg","68","2","random","68","true","random,structured_normal,structured_incentive","2,3,1,2","",""
"null","","html-keyboard-response","207","165081","0.0-136.0","3WQ3B2KGE92C5353SE57NE42PDTB1C","A3FOKP72T5I4FR","33Q5P9PUSP8QOKKNNN5S19YACNVCZX","","<img src=""img/set1/S2.jpg"" width=""540"" height = ""360"" style=""border:16px solid orange"">","null","","","","","","","",""
"null","","html-keyboard-response","208","165088","0.0-137.0","3WQ3B2KGE92C5353SE57NE42PDTB1C","A3FOKP72T5I4FR","33Q5P9PUSP8QOKKNNN5S19YACNVCZX","","","null","","","","","","","",""
"1026.6000000014901","","image-keyboard-response","209","166117","0.0-138.0","3WQ3B2KGE92C5353SE57NE42PDTB1C","A3FOKP72T5I4FR","33Q5P9PUSP8QOKKNNN5S19YACNVCZX","","img/set1/S1.jpg","83","1","random","83","true","random,structured_normal,structured_incentive","2,3,1,2","",""
"null","","html-keyboard-response","210","166471","0.0-139.0","3WQ3B2KGE92C5353SE57NE42PDTB1C","A3FOKP72T5I4FR","33Q5P9PUSP8QOKKNNN5S19YACNVCZX","","<img src=""img/set1/S1.jpg"" width=""540"" height = ""360"" style=""border:16px solid orange"">","null","","","","","","","",""
"null","","html-keyboard-response","211","166479","0.0-140.0","3WQ3B2KGE92C5353SE57NE42PDTB1C","A3FOKP72T5I4FR","33Q5P9PUSP8QOKKNNN5S19YACNVCZX","","","null","","","","","","","",""
"462.5","","image-keyboard-response","212","166944","0.0-141.0","3WQ3B2KGE92C5353SE57NE42PDTB1C","A3FOKP72T5I4FR","33Q5P9PUSP8QOKKNNN5S19YACNVCZX","","img/set1/S2.jpg","68","2","random","68","true","random,structured_normal,structured_incentive","2,3,1,2","",""
"null","","html-keyboard-response","213","167311","0.0-142.0","3WQ3B2KGE92C5353SE57NE42PDTB1C","A3FOKP72T5I4FR","33Q5P9PUSP8QOKKNNN5S19YACNVCZX","","<img src=""img/set1/S2.jpg"" width=""540"" height = ""360"" style=""border:16px solid orange"">","null","","","","","","","",""
"null","","html-keyboard-response","214","167319","0.0-143.0","3WQ3B2KGE92C5353SE57NE42PDTB1C","A3FOKP72T5I4FR","33Q5P9PUSP8QOKKNNN5S19YACNVCZX","","","null","","","","","","","",""
"682.3999999985099","","image-keyboard-response","215","168005","0.0-144.0","3WQ3B2KGE92C5353SE57NE42PDTB1C","A3FOKP72T5I4FR","33Q5P9PUSP8QOKKNNN5S19YACNVCZX","","img/set1/S4.jpg","74","4","random","74","true","random,structured_normal,structured_incentive","2,3,1,2","",""
"null","","html-keyboard-response","216","168359","0.0-145.0","3WQ3B2KGE92C5353SE57NE42PDTB1C","A3FOKP72T5I4FR","33Q5P9PUSP8QOKKNNN5S19YACNVCZX","","<img src=""img/set1/S4.jpg"" width=""540"" height = ""360"" style=""border:16px solid orange"">","null","","","","","","","",""
"null","","html-keyboard-response","217","168369","0.0-146.0","3WQ3B2KGE92C5353SE57NE42PDTB1C","A3FOKP72T5I4FR","33Q5P9PUSP8QOKKNNN5S19YACNVCZX","","","null","","","","","","","",""
"730.3999999985099","","image-keyboard-response","218","169101","0.0-147.0","3WQ3B2KGE92C5353SE57NE42PDTB1C","A3FOKP72T5I4FR","33Q5P9PUSP8QOKKNNN5S19YACNVCZX","","img/set1/S3.jpg","72","3","random","72","true","random,structured_normal,structured_incentive","2,3,1,2","",""
"null","","html-keyboard-response","219","169454","0.0-148.0","3WQ3B2KGE92C5353SE57NE42PDTB1C","A3FOKP72T5I4FR","33Q5P9PUSP8QOKKNNN5S19YACNVCZX","","<img src=""img/set1/S3.jpg"" width=""540"" height = ""360"" style=""border:16px solid orange"">","null","","","","","","","",""
"null","","html-keyboard-response","220","169465","0.0-149.0","3WQ3B2KGE92C5353SE57NE42PDTB1C","A3FOKP72T5I4FR","33Q5P9PUSP8QOKKNNN5S19YACNVCZX","","","null","","","","","","","",""
"501.30000000447035","","image-keyboard-response","221","169968","0.0-150.0","3WQ3B2KGE92C5353SE57NE42PDTB1C","A3FOKP72T5I4FR","33Q5P9PUSP8QOKKNNN5S19YACNVCZX","","img/set1/S4.jpg","74","4","random","74","true","random,structured_normal,structured_incentive","2,3,1,2","",""
"null","","html-keyboard-response","222","170328","0.0-151.0","3WQ3B2KGE92C5353SE57NE42PDTB1C","A3FOKP72T5I4FR","33Q5P9PUSP8QOKKNNN5S19YACNVCZX","","<img src=""img/set1/S4.jpg"" width=""540"" height = ""360"" style=""border:16px solid orange"">","null","","","","","","","",""
"null","","html-keyboard-response","223","170339","0.0-152.0","3WQ3B2KGE92C5353SE57NE42PDTB1C","A3FOKP72T5I4FR","33Q5P9PUSP8QOKKNNN5S19YACNVCZX","","","null","","","","","","","",""
"492.3999999985099","","image-keyboard-response","224","170833","0.0-153.0","3WQ3B2KGE92C5353SE57NE42PDTB1C","A3FOKP72T5I4FR","33Q5P9PUSP8QOKKNNN5S19YACNVCZX","","img/set1/S3.jpg","72","3","random","72","true","random,structured_normal,structured_incentive","2,3,1,2","",""
"null","","html-keyboard-response","225","171188","0.0-154.0","3WQ3B2KGE92C5353SE57NE42PDTB1C","A3FOKP72T5I4FR","33Q5P9PUSP8QOKKNNN5S19YACNVCZX","","<img src=""img/set1/S3.jpg"" width=""540"" height = ""360"" style=""border:16px solid orange"">","null","","","","","","","",""
"null","","html-keyboard-response","226","171204","0.0-155.0","3WQ3B2KGE92C5353SE57NE42PDTB1C","A3FOKP72T5I4FR","33Q5P9PUSP8QOKKNNN5S19YACNVCZX","","","null","","","","","","","",""
"1448.3999999985099","","image-keyboard-response","227","172655","0.0-156.0","3WQ3B2KGE92C5353SE57NE42PDTB1C","A3FOKP72T5I4FR","33Q5P9PUSP8QOKKNNN5S19YACNVCZX","","img/set1/S2.jpg","68","2","random","68","true","random,structured_normal,structured_incentive","2,3,1,2","",""
"null","","html-keyboard-response","228","173010","0.0-157.0","3WQ3B2KGE92C5353SE57NE42PDTB1C","A3FOKP72T5I4FR","33Q5P9PUSP8QOKKNNN5S19YACNVCZX","","<img src=""img/set1/S2.jpg"" width=""540"" height = ""360"" style=""border:16px solid orange"">","null","","","","","","","",""
"null","","html-keyboard-response","229","173017","0.0-158.0","3WQ3B2KGE92C5353SE57NE42PDTB1C","A3FOKP72T5I4FR","33Q5P9PUSP8QOKKNNN5S19YACNVCZX","","","null","","","","","","","",""
"560.7000000029802","","image-keyboard-response","230","173580","0.0-159.0","3WQ3B2KGE92C5353SE57NE42PDTB1C","A3FOKP72T5I4FR","33Q5P9PUSP8QOKKNNN5S19YACNVCZX","","img/set1/S1.jpg","83","1","random","83","true","random,structured_normal,structured_incentive","2,3,1,2","",""
"null","","html-keyboard-response","231","173935","0.0-160.0","3WQ3B2KGE92C5353SE57NE42PDTB1C","A3FOKP72T5I4FR","33Q5P9PUSP8QOKKNNN5S19YACNVCZX","","<img src=""img/set1/S1.jpg"" width=""540"" height = ""360"" style=""border:16px solid orange"">","null","","","","","","","",""
"null","","html-keyboard-response","232","173942","0.0-161.0","3WQ3B2KGE92C5353SE57NE42PDTB1C","A3FOKP72T5I4FR","33Q5P9PUSP8QOKKNNN5S19YACNVCZX","","","null","","","","","","","",""
"497.20000000298023","","image-keyboard-response","233","174443","0.0-162.0","3WQ3B2KGE92C5353SE57NE42PDTB1C","A3FOKP72T5I4FR","33Q5P9PUSP8QOKKNNN5S19YACNVCZX","","img/set1/S2.jpg","68","2","random","68","true","random,structured_normal,structured_incentive","2,3,1,2","",""
"null","","html-keyboard-response","234","174810","0.0-163.0","3WQ3B2KGE92C5353SE57NE42PDTB1C","A3FOKP72T5I4FR","33Q5P9PUSP8QOKKNNN5S19YACNVCZX","","<img src=""img/set1/S2.jpg"" width=""540"" height = ""360"" style=""border:16px solid orange"">","null","","","","","","","",""
"null","","html-keyboard-response","235","174818","0.0-164.0","3WQ3B2KGE92C5353SE57NE42PDTB1C","A3FOKP72T5I4FR","33Q5P9PUSP8QOKKNNN5S19YACNVCZX","","","null","","","","","","","",""
"442.69999999552965","","image-keyboard-response","236","175263","0.0-165.0","3WQ3B2KGE92C5353SE57NE42PDTB1C","A3FOKP72T5I4FR","33Q5P9PUSP8QOKKNNN5S19YACNVCZX","","img/set1/S2.jpg","68","2","random","68","true","random,structured_normal,structured_incentive","2,3,1,2","",""
"null","","html-keyboard-response","237","175620","0.0-166.0","3WQ3B2KGE92C5353SE57NE42PDTB1C","A3FOKP72T5I4FR","33Q5P9PUSP8QOKKNNN5S19YACNVCZX","","<img src=""img/set1/S2.jpg"" width=""540"" height = ""360"" style=""border:16px solid orange"">","null","","","","","","","",""
"null","","html-keyboard-response","238","175628","0.0-167.0","3WQ3B2KGE92C5353SE57NE42PDTB1C","A3FOKP72T5I4FR","33Q5P9PUSP8QOKKNNN5S19YACNVCZX","","","null","","","","","","","",""
"1394","","image-keyboard-response","239","177025","0.0-168.0","3WQ3B2KGE92C5353SE57NE42PDTB1C","A3FOKP72T5I4FR","33Q5P9PUSP8QOKKNNN5S19YACNVCZX","","img/set1/S1.jpg","83","1","random","83","true","random,structured_normal,structured_incentive","2,3,1,2","",""
"null","","html-keyboard-response","240","177390","0.0-169.0","3WQ3B2KGE92C5353SE57NE42PDTB1C","A3FOKP72T5I4FR","33Q5P9PUSP8QOKKNNN5S19YACNVCZX","","<img src=""img/set1/S1.jpg"" width=""540"" height = ""360"" style=""border:16px solid orange"">","null","","","","","","","",""
"null","","html-keyboard-response","241","177397","0.0-170.0","3WQ3B2KGE92C5353SE57NE42PDTB1C","A3FOKP72T5I4FR","33Q5P9PUSP8QOKKNNN5S19YACNVCZX","","","null","","","","","","","",""
"940.6000000014901","","image-keyboard-response","242","178340","0.0-171.0","3WQ3B2KGE92C5353SE57NE42PDTB1C","A3FOKP72T5I4FR","33Q5P9PUSP8QOKKNNN5S19YACNVCZX","","img/set1/S3.jpg","72","3","random","72","true","random,structured_normal,structured_incentive","2,3,1,2","",""
"null","","html-keyboard-response","243","178700","0.0-172.0","3WQ3B2KGE92C5353SE57NE42PDTB1C","A3FOKP72T5I4FR","33Q5P9PUSP8QOKKNNN5S19YACNVCZX","","<img src=""img/set1/S3.jpg"" width=""540"" height = ""360"" style=""border:16px solid orange"">","null","","","","","","","",""
"null","","html-keyboard-response","244","178716","0.0-173.0","3WQ3B2KGE92C5353SE57NE42PDTB1C","A3FOKP72T5I4FR","33Q5P9PUSP8QOKKNNN5S19YACNVCZX","","","null","","","","","","","",""
"1716.1999999955297","","image-keyboard-response","245","180436","0.0-174.0","3WQ3B2KGE92C5353SE57NE42PDTB1C","A3FOKP72T5I4FR","33Q5P9PUSP8QOKKNNN5S19YACNVCZX","","img/set1/S2.jpg","68","2","random","68","true","random,structured_normal,structured_incentive","2,3,1,2","",""
"null","","html-keyboard-response","246","180795","0.0-175.0","3WQ3B2KGE92C5353SE57NE42PDTB1C","A3FOKP72T5I4FR","33Q5P9PUSP8QOKKNNN5S19YACNVCZX","","<img src=""img/set1/S2.jpg"" width=""540"" height = ""360"" style=""border:16px solid orange"">","null","","","","","","","",""
"null","","html-keyboard-response","247","180805","0.0-176.0","3WQ3B2KGE92C5353SE57NE42PDTB1C","A3FOKP72T5I4FR","33Q5P9PUSP8QOKKNNN5S19YACNVCZX","","","null","","","","","","","",""
"1744.1000000014901","","image-keyboard-response","248","182551","0.0-177.0","3WQ3B2KGE92C5353SE57NE42PDTB1C","A3FOKP72T5I4FR","33Q5P9PUSP8QOKKNNN5S19YACNVCZX","","img/set1/S1.jpg","83","1","random","83","true","random,structured_normal,structured_incentive","2,3,1,2","",""
"null","","html-keyboard-response","249","182911","0.0-178.0","3WQ3B2KGE92C5353SE57NE42PDTB1C","A3FOKP72T5I4FR","33Q5P9PUSP8QOKKNNN5S19YACNVCZX","","<img src=""img/set1/S1.jpg"" width=""540"" height = ""360"" style=""border:16px solid orange"">","null","","","","","","","",""
"null","","html-keyboard-response","250","182923","0.0-179.0","3WQ3B2KGE92C5353SE57NE42PDTB1C","A3FOKP72T5I4FR","33Q5P9PUSP8QOKKNNN5S19YACNVCZX","","","null","","","","","","","",""
"657.1000000014901","","image-keyboard-response","251","183585","0.0-180.0","3WQ3B2KGE92C5353SE57NE42PDTB1C","A3FOKP72T5I4FR","33Q5P9PUSP8QOKKNNN5S19YACNVCZX","","img/set1/S3.jpg","74","3","random","72","false","random,structured_normal,structured_incentive","2,3,1,2","",""
"null","","html-keyboard-response","252","183944","0.0-181.0","3WQ3B2KGE92C5353SE57NE42PDTB1C","A3FOKP72T5I4FR","33Q5P9PUSP8QOKKNNN5S19YACNVCZX","","<img src=""img/set1/S3.jpg"" width=""540"" height = ""360"">","null","","","","","","","",""
"null","","html-keyboard-response","253","183952","0.0-182.0","3WQ3B2KGE92C5353SE57NE42PDTB1C","A3FOKP72T5I4FR","33Q5P9PUSP8QOKKNNN5S19YACNVCZX","","","null","","","","","","","",""
"668.8999999985099","","image-keyboard-response","254","184622","0.0-183.0","3WQ3B2KGE92C5353SE57NE42PDTB1C","A3FOKP72T5I4FR","33Q5P9PUSP8QOKKNNN5S19YACNVCZX","","img/set1/S2.jpg","68","2","random","68","true","random,structured_normal,structured_incentive","2,3,1,2","",""
"null","","html-keyboard-response","255","184984","0.0-184.0","3WQ3B2KGE92C5353SE57NE42PDTB1C","A3FOKP72T5I4FR","33Q5P9PUSP8QOKKNNN5S19YACNVCZX","","<img src=""img/set1/S2.jpg"" width=""540"" height = ""360"" style=""border:16px solid orange"">","null","","","","","","","",""
"null","","html-keyboard-response","256","185004","0.0-185.0","3WQ3B2KGE92C5353SE57NE42PDTB1C","A3FOKP72T5I4FR","33Q5P9PUSP8QOKKNNN5S19YACNVCZX","","","null","","","","","","","",""
"619.7999999970198","","image-keyboard-response","257","185626","0.0-186.0","3WQ3B2KGE92C5353SE57NE42PDTB1C","A3FOKP72T5I4FR","33Q5P9PUSP8QOKKNNN5S19YACNVCZX","","img/set1/S3.jpg","72","3","random","72","true","random,structured_normal,structured_incentive","2,3,1,2","",""
"null","","html-keyboard-response","258","185984","0.0-187.0","3WQ3B2KGE92C5353SE57NE42PDTB1C","A3FOKP72T5I4FR","33Q5P9PUSP8QOKKNNN5S19YACNVCZX","","<img src=""img/set1/S3.jpg"" width=""540"" height = ""360"" style=""border:16px solid orange"">","null","","","","","","","",""
"null","","html-keyboard-response","259","185993","0.0-188.0","3WQ3B2KGE92C5353SE57NE42PDTB1C","A3FOKP72T5I4FR","33Q5P9PUSP8QOKKNNN5S19YACNVCZX","","","null","","","","","","","",""
"688.5","","image-keyboard-response","260","186684","0.0-189.0","3WQ3B2KGE92C5353SE57NE42PDTB1C","A3FOKP72T5I4FR","33Q5P9PUSP8QOKKNNN5S19YACNVCZX","","img/set1/S4.jpg","74","4","random","74","true","random,structured_normal,structured_incentive","2,3,1,2","",""
"null","","html-keyboard-response","261","187048","0.0-190.0","3WQ3B2KGE92C5353SE57NE42PDTB1C","A3FOKP72T5I4FR","33Q5P9PUSP8QOKKNNN5S19YACNVCZX","","<img src=""img/set1/S4.jpg"" width=""540"" height = ""360"" style=""border:16px solid orange"">","null","","","","","","","",""
"null","","html-keyboard-response","262","187056","0.0-191.0","3WQ3B2KGE92C5353SE57NE42PDTB1C","A3FOKP72T5I4FR","33Q5P9PUSP8QOKKNNN5S19YACNVCZX","","","null","","","","","","","",""
"691.2000000029802","","image-keyboard-response","263","187751","0.0-192.0","3WQ3B2KGE92C5353SE57NE42PDTB1C","A3FOKP72T5I4FR","33Q5P9PUSP8QOKKNNN5S19YACNVCZX","","img/set1/S3.jpg","72","3","random","72","true","random,structured_normal,structured_incentive","2,3,1,2","",""
"null","","html-keyboard-response","264","188112","0.0-193.0","3WQ3B2KGE92C5353SE57NE42PDTB1C","A3FOKP72T5I4FR","33Q5P9PUSP8QOKKNNN5S19YACNVCZX","","<img src=""img/set1/S3.jpg"" width=""540"" height = ""360"" style=""border:16px solid orange"">","null","","","","","","","",""
"null","","html-keyboard-response","265","188119","0.0-194.0","3WQ3B2KGE92C5353SE57NE42PDTB1C","A3FOKP72T5I4FR","33Q5P9PUSP8QOKKNNN5S19YACNVCZX","","","null","","","","","","","",""
"1335.8999999985099","","image-keyboard-response","266","189458","0.0-195.0","3WQ3B2KGE92C5353SE57NE42PDTB1C","A3FOKP72T5I4FR","33Q5P9PUSP8QOKKNNN5S19YACNVCZX","","img/set1/S2.jpg","68","2","random","68","true","random,structured_normal,structured_incentive","2,3,1,2","",""
"null","","html-keyboard-response","267","189816","0.0-196.0","3WQ3B2KGE92C5353SE57NE42PDTB1C","A3FOKP72T5I4FR","33Q5P9PUSP8QOKKNNN5S19YACNVCZX","","<img src=""img/set1/S2.jpg"" width=""540"" height = ""360"" style=""border:16px solid orange"">","null","","","","","","","",""
"null","","html-keyboard-response","268","189824","0.0-197.0","3WQ3B2KGE92C5353SE57NE42PDTB1C","A3FOKP72T5I4FR","33Q5P9PUSP8QOKKNNN5S19YACNVCZX","","","null","","","","","","","",""
"794","","image-keyboard-response","269","190621","0.0-198.0","3WQ3B2KGE92C5353SE57NE42PDTB1C","A3FOKP72T5I4FR","33Q5P9PUSP8QOKKNNN5S19YACNVCZX","","img/set1/S1.jpg","83","1","random","83","true","random,structured_normal,structured_incentive","2,3,1,2","",""
"null","","html-keyboard-response","270","190974","0.0-199.0","3WQ3B2KGE92C5353SE57NE42PDTB1C","A3FOKP72T5I4FR","33Q5P9PUSP8QOKKNNN5S19YACNVCZX","","<img src=""img/set1/S1.jpg"" width=""540"" height = ""360"" style=""border:16px solid orange"">","null","","","","","","","",""
"null","","html-keyboard-response","271","190981","0.0-200.0","3WQ3B2KGE92C5353SE57NE42PDTB1C","A3FOKP72T5I4FR","33Q5P9PUSP8QOKKNNN5S19YACNVCZX","","","null","","","","","","","",""
"561.7999999970198","","image-keyboard-response","272","191545","0.0-201.0","3WQ3B2KGE92C5353SE57NE42PDTB1C","A3FOKP72T5I4FR","33Q5P9PUSP8QOKKNNN5S19YACNVCZX","","img/set1/S2.jpg","68","2","random","68","true","random,structured_normal,structured_incentive","2,3,1,2","",""
"null","","html-keyboard-response","273","191905","0.0-202.0","3WQ3B2KGE92C5353SE57NE42PDTB1C","A3FOKP72T5I4FR","33Q5P9PUSP8QOKKNNN5S19YACNVCZX","","<img src=""img/set1/S2.jpg"" width=""540"" height = ""360"" style=""border:16px solid orange"">","null","","","","","","","",""
"null","","html-keyboard-response","274","191921","0.0-203.0","3WQ3B2KGE92C5353SE57NE42PDTB1C","A3FOKP72T5I4FR","33Q5P9PUSP8QOKKNNN5S19YACNVCZX","","","null","","","","","","","",""
"826.8999999985099","","image-keyboard-response","275","192751","0.0-204.0","3WQ3B2KGE92C5353SE57NE42PDTB1C","A3FOKP72T5I4FR","33Q5P9PUSP8QOKKNNN5S19YACNVCZX","","img/set1/S3.jpg","72","3","random","72","true","random,structured_normal,structured_incentive","2,3,1,2","",""
"null","","html-keyboard-response","276","193112","0.0-205.0","3WQ3B2KGE92C5353SE57NE42PDTB1C","A3FOKP72T5I4FR","33Q5P9PUSP8QOKKNNN5S19YACNVCZX","","<img src=""img/set1/S3.jpg"" width=""540"" height = ""360"" style=""border:16px solid orange"">","null","","","","","","","",""
"null","","html-keyboard-response","277","193124","0.0-206.0","3WQ3B2KGE92C5353SE57NE42PDTB1C","A3FOKP72T5I4FR","33Q5P9PUSP8QOKKNNN5S19YACNVCZX","","","null","","","","","","","",""
"468.6000000014901","","image-keyboard-response","278","193595","0.0-207.0","3WQ3B2KGE92C5353SE57NE42PDTB1C","A3FOKP72T5I4FR","33Q5P9PUSP8QOKKNNN5S19YACNVCZX","","img/set1/S3.jpg","72","3","random","72","true","random,structured_normal,structured_incentive","2,3,1,2","",""
"null","","html-keyboard-response","279","193951","0.0-208.0","3WQ3B2KGE92C5353SE57NE42PDTB1C","A3FOKP72T5I4FR","33Q5P9PUSP8QOKKNNN5S19YACNVCZX","","<img src=""img/set1/S3.jpg"" width=""540"" height = ""360"" style=""border:16px solid orange"">","null","","","","","","","",""
"null","","html-keyboard-response","280","193961","0.0-209.0","3WQ3B2KGE92C5353SE57NE42PDTB1C","A3FOKP72T5I4FR","33Q5P9PUSP8QOKKNNN5S19YACNVCZX","","","null","","","","","","","",""
"824.1999999955297","","image-keyboard-response","281","194787","0.0-210.0","3WQ3B2KGE92C5353SE57NE42PDTB1C","A3FOKP72T5I4FR","33Q5P9PUSP8QOKKNNN5S19YACNVCZX","","img/set1/S1.jpg","68","1","random","83","false","random,structured_normal,structured_incentive","2,3,1,2","",""
"null","","html-keyboard-response","282","195142","0.0-211.0","3WQ3B2KGE92C5353SE57NE42PDTB1C","A3FOKP72T5I4FR","33Q5P9PUSP8QOKKNNN5S19YACNVCZX","","<img src=""img/set1/S1.jpg"" width=""540"" height = ""360"">","null","","","","","","","",""
"null","","html-keyboard-response","283","195148","0.0-212.0","3WQ3B2KGE92C5353SE57NE42PDTB1C","A3FOKP72T5I4FR","33Q5P9PUSP8QOKKNNN5S19YACNVCZX","","","null","","","","","","","",""
"676.3000000044703","","image-keyboard-response","284","195828","0.0-213.0","3WQ3B2KGE92C5353SE57NE42PDTB1C","A3FOKP72T5I4FR","33Q5P9PUSP8QOKKNNN5S19YACNVCZX","","img/set1/S3.jpg","72","3","random","72","true","random,structured_normal,structured_incentive","2,3,1,2","",""
"null","","html-keyboard-response","285","196187","0.0-214.0","3WQ3B2KGE92C5353SE57NE42PDTB1C","A3FOKP72T5I4FR","33Q5P9PUSP8QOKKNNN5S19YACNVCZX","","<img src=""img/set1/S3.jpg"" width=""540"" height = ""360"" style=""border:16px solid orange"">","null","","","","","","","",""
"null","","html-keyboard-response","286","196196","0.0-215.0","3WQ3B2KGE92C5353SE57NE42PDTB1C","A3FOKP72T5I4FR","33Q5P9PUSP8QOKKNNN5S19YACNVCZX","","","null","","","","","","","",""
"601.5","","image-keyboard-response","287","196800","0.0-216.0","3WQ3B2KGE92C5353SE57NE42PDTB1C","A3FOKP72T5I4FR","33Q5P9PUSP8QOKKNNN5S19YACNVCZX","","img/set1/S4.jpg","74","4","random","74","true","random,structured_normal,structured_incentive","2,3,1,2","",""
"null","","html-keyboard-response","288","197157","0.0-217.0","3WQ3B2KGE92C5353SE57NE42PDTB1C","A3FOKP72T5I4FR","33Q5P9PUSP8QOKKNNN5S19YACNVCZX","","<img src=""img/set1/S4.jpg"" width=""540"" height = ""360"" style=""border:16px solid orange"">","null","","","","","","","",""
"null","","html-keyboard-response","289","197167","0.0-218.0","3WQ3B2KGE92C5353SE57NE42PDTB1C","A3FOKP72T5I4FR","33Q5P9PUSP8QOKKNNN5S19YACNVCZX","","","null","","","","","","","",""
"1333.6000000014901","","image-keyboard-response","290","198504","0.0-219.0","3WQ3B2KGE92C5353SE57NE42PDTB1C","A3FOKP72T5I4FR","33Q5P9PUSP8QOKKNNN5S19YACNVCZX","","img/set1/S2.jpg","68","2","random","68","true","random,structured_normal,structured_incentive","2,3,1,2","",""
"null","","html-keyboard-response","291","198861","0.0-220.0","3WQ3B2KGE92C5353SE57NE42PDTB1C","A3FOKP72T5I4FR","33Q5P9PUSP8QOKKNNN5S19YACNVCZX","","<img src=""img/set1/S2.jpg"" width=""540"" height = ""360"" style=""border:16px solid orange"">","null","","","","","","","",""
"null","","html-keyboard-response","292","198871","0.0-221.0","3WQ3B2KGE92C5353SE57NE42PDTB1C","A3FOKP72T5I4FR","33Q5P9PUSP8QOKKNNN5S19YACNVCZX","","","null","","","","","","","",""
"438.1000000014901","","image-keyboard-response","293","199311","0.0-222.0","3WQ3B2KGE92C5353SE57NE42PDTB1C","A3FOKP72T5I4FR","33Q5P9PUSP8QOKKNNN5S19YACNVCZX","","img/set1/S2.jpg","68","2","random","68","true","random,structured_normal,structured_incentive","2,3,1,2","",""
"null","","html-keyboard-response","294","199671","0.0-223.0","3WQ3B2KGE92C5353SE57NE42PDTB1C","A3FOKP72T5I4FR","33Q5P9PUSP8QOKKNNN5S19YACNVCZX","","<img src=""img/set1/S2.jpg"" width=""540"" height = ""360"" style=""border:16px solid orange"">","null","","","","","","","",""
"null","","html-keyboard-response","295","199681","0.0-224.0","3WQ3B2KGE92C5353SE57NE42PDTB1C","A3FOKP72T5I4FR","33Q5P9PUSP8QOKKNNN5S19YACNVCZX","","","null","","","","","","","",""
"1701.1999999955297","","image-keyboard-response","296","201384","0.0-225.0","3WQ3B2KGE92C5353SE57NE42PDTB1C","A3FOKP72T5I4FR","33Q5P9PUSP8QOKKNNN5S19YACNVCZX","","img/set1/S4.jpg","74","4","random","74","true","random,structured_normal,structured_incentive","2,3,1,2","",""
"null","","html-keyboard-response","297","201742","0.0-226.0","3WQ3B2KGE92C5353SE57NE42PDTB1C","A3FOKP72T5I4FR","33Q5P9PUSP8QOKKNNN5S19YACNVCZX","","<img src=""img/set1/S4.jpg"" width=""540"" height = ""360"" style=""border:16px solid orange"">","null","","","","","","","",""
"null","","html-keyboard-response","298","201751","0.0-227.0","3WQ3B2KGE92C5353SE57NE42PDTB1C","A3FOKP72T5I4FR","33Q5P9PUSP8QOKKNNN5S19YACNVCZX","","","null","","","","","","","",""
"null","","image-keyboard-response","299","204259","0.0-228.0","3WQ3B2KGE92C5353SE57NE42PDTB1C","A3FOKP72T5I4FR","33Q5P9PUSP8QOKKNNN5S19YACNVCZX","","img/set1/S2.jpg","null","2","random","68","false","random,structured_normal,structured_incentive","2,3,1,2","",""
"null","","html-keyboard-response","300","204615","0.0-229.0","3WQ3B2KGE92C5353SE57NE42PDTB1C","A3FOKP72T5I4FR","33Q5P9PUSP8QOKKNNN5S19YACNVCZX","","<img src=""img/set1/S2.jpg"" width=""540"" height = ""360"">","null","","","","","","","",""
"null","","html-keyboard-response","301","204626","0.0-230.0","3WQ3B2KGE92C5353SE57NE42PDTB1C","A3FOKP72T5I4FR","33Q5P9PUSP8QOKKNNN5S19YACNVCZX","","","null","","","","","","","",""
"154.89999999850988","","image-keyboard-response","302","204783","0.0-231.0","3WQ3B2KGE92C5353SE57NE42PDTB1C","A3FOKP72T5I4FR","33Q5P9PUSP8QOKKNNN5S19YACNVCZX","","img/set1/S1.jpg","68","1","random","83","false","random,structured_normal,structured_incentive","2,3,1,2","",""
"null","","html-keyboard-response","303","205137","0.0-232.0","3WQ3B2KGE92C5353SE57NE42PDTB1C","A3FOKP72T5I4FR","33Q5P9PUSP8QOKKNNN5S19YACNVCZX","","<img src=""img/set1/S1.jpg"" width=""540"" height = ""360"">","null","","","","","","","",""
"null","","html-keyboard-response","304","205142","0.0-233.0","3WQ3B2KGE92C5353SE57NE42PDTB1C","A3FOKP72T5I4FR","33Q5P9PUSP8QOKKNNN5S19YACNVCZX","","","null","","","","","","","",""
"236.5","","image-keyboard-response","305","205381","0.0-234.0","3WQ3B2KGE92C5353SE57NE42PDTB1C","A3FOKP72T5I4FR","33Q5P9PUSP8QOKKNNN5S19YACNVCZX","","img/set1/S4.jpg","83","4","random","74","false","random,structured_normal,structured_incentive","2,3,1,2","",""
"null","","html-keyboard-response","306","205738","0.0-235.0","3WQ3B2KGE92C5353SE57NE42PDTB1C","A3FOKP72T5I4FR","33Q5P9PUSP8QOKKNNN5S19YACNVCZX","","<img src=""img/set1/S4.jpg"" width=""540"" height = ""360"">","null","","","","","","","",""
"null","","html-keyboard-response","307","205754","0.0-236.0","3WQ3B2KGE92C5353SE57NE42PDTB1C","A3FOKP72T5I4FR","33Q5P9PUSP8QOKKNNN5S19YACNVCZX","","","null","","","","","","","",""
"693.9000000059605","","image-keyboard-response","308","206450","0.0-237.0","3WQ3B2KGE92C5353SE57NE42PDTB1C","A3FOKP72T5I4FR","33Q5P9PUSP8QOKKNNN5S19YACNVCZX","","img/set1/S2.jpg","68","2","random","68","true","random,structured_normal,structured_incentive","2,3,1,2","",""
"null","","html-keyboard-response","309","206805","0.0-238.0","3WQ3B2KGE92C5353SE57NE42PDTB1C","A3FOKP72T5I4FR","33Q5P9PUSP8QOKKNNN5S19YACNVCZX","","<img src=""img/set1/S2.jpg"" width=""540"" height = ""360"" style=""border:16px solid orange"">","null","","","","","","","",""
"null","","html-keyboard-response","310","206810","0.0-239.0","3WQ3B2KGE92C5353SE57NE42PDTB1C","A3FOKP72T5I4FR","33Q5P9PUSP8QOKKNNN5S19YACNVCZX","","","null","","","","","","","",""
"813.8000000044703","","image-keyboard-response","311","207626","0.0-240.0","3WQ3B2KGE92C5353SE57NE42PDTB1C","A3FOKP72T5I4FR","33Q5P9PUSP8QOKKNNN5S19YACNVCZX","","img/set1/S4.jpg","74","4","random","74","true","random,structured_normal,structured_incentive","2,3,1,2","",""
"null","","html-keyboard-response","312","207985","0.0-241.0","3WQ3B2KGE92C5353SE57NE42PDTB1C","A3FOKP72T5I4FR","33Q5P9PUSP8QOKKNNN5S19YACNVCZX","","<img src=""img/set1/S4.jpg"" width=""540"" height = ""360"" style=""border:16px solid orange"">","null","","","","","","","",""
"null","","html-keyboard-response","313","207994","0.0-242.0","3WQ3B2KGE92C5353SE57NE42PDTB1C","A3FOKP72T5I4FR","33Q5P9PUSP8QOKKNNN5S19YACNVCZX","","","null","","","","","","","",""
"746.7000000029802","","image-keyboard-response","314","208743","0.0-243.0","3WQ3B2KGE92C5353SE57NE42PDTB1C","A3FOKP72T5I4FR","33Q5P9PUSP8QOKKNNN5S19YACNVCZX","","img/set1/S2.jpg","68","2","random","68","true","random,structured_normal,structured_incentive","2,3,1,2","",""
"null","","html-keyboard-response","315","209104","0.0-244.0","3WQ3B2KGE92C5353SE57NE42PDTB1C","A3FOKP72T5I4FR","33Q5P9PUSP8QOKKNNN5S19YACNVCZX","","<img src=""img/set1/S2.jpg"" width=""540"" height = ""360"" style=""border:16px solid orange"">","null","","","","","","","",""
"null","","html-keyboard-response","316","209116","0.0-245.0","3WQ3B2KGE92C5353SE57NE42PDTB1C","A3FOKP72T5I4FR","33Q5P9PUSP8QOKKNNN5S19YACNVCZX","","","null","","","","","","","",""
"589.3000000044703","","image-keyboard-response","317","209707","0.0-246.0","3WQ3B2KGE92C5353SE57NE42PDTB1C","A3FOKP72T5I4FR","33Q5P9PUSP8QOKKNNN5S19YACNVCZX","","img/set1/S1.jpg","83","1","random","83","true","random,structured_normal,structured_incentive","2,3,1,2","",""
"null","","html-keyboard-response","318","210068","0.0-247.0","3WQ3B2KGE92C5353SE57NE42PDTB1C","A3FOKP72T5I4FR","33Q5P9PUSP8QOKKNNN5S19YACNVCZX","","<img src=""img/set1/S1.jpg"" width=""540"" height = ""360"" style=""border:16px solid orange"">","null","","","","","","","",""
"null","","html-keyboard-response","319","210076","0.0-248.0","3WQ3B2KGE92C5353SE57NE42PDTB1C","A3FOKP72T5I4FR","33Q5P9PUSP8QOKKNNN5S19YACNVCZX","","","null","","","","","","","",""
"565.7000000029802","","image-keyboard-response","320","210644","0.0-249.0","3WQ3B2KGE92C5353SE57NE42PDTB1C","A3FOKP72T5I4FR","33Q5P9PUSP8QOKKNNN5S19YACNVCZX","","img/set1/S2.jpg","68","2","random","68","true","random,structured_normal,structured_incentive","2,3,1,2","",""
"null","","html-keyboard-response","321","210997","0.0-250.0","3WQ3B2KGE92C5353SE57NE42PDTB1C","A3FOKP72T5I4FR","33Q5P9PUSP8QOKKNNN5S19YACNVCZX","","<img src=""img/set1/S2.jpg"" width=""540"" height = ""360"" style=""border:16px solid orange"">","null","","","","","","","",""
"null","","html-keyboard-response","322","211007","0.0-251.0","3WQ3B2KGE92C5353SE57NE42PDTB1C","A3FOKP72T5I4FR","33Q5P9PUSP8QOKKNNN5S19YACNVCZX","","","null","","","","","","","",""
"1006.5","","image-keyboard-response","323","212018","0.0-252.0","3WQ3B2KGE92C5353SE57NE42PDTB1C","A3FOKP72T5I4FR","33Q5P9PUSP8QOKKNNN5S19YACNVCZX","","img/set1/S1.jpg","83","1","random","83","true","random,structured_normal,structured_incentive","2,3,1,2","",""
"null","","html-keyboard-response","324","212386","0.0-253.0","3WQ3B2KGE92C5353SE57NE42PDTB1C","A3FOKP72T5I4FR","33Q5P9PUSP8QOKKNNN5S19YACNVCZX","","<img src=""img/set1/S1.jpg"" width=""540"" height = ""360"" style=""border:16px solid orange"">","null","","","","","","","",""
"null","","html-keyboard-response","325","212393","0.0-254.0","3WQ3B2KGE92C5353SE57NE42PDTB1C","A3FOKP72T5I4FR","33Q5P9PUSP8QOKKNNN5S19YACNVCZX","","","null","","","","","","","",""
"424.80000000447035","","image-keyboard-response","326","212820","0.0-255.0","3WQ3B2KGE92C5353SE57NE42PDTB1C","A3FOKP72T5I4FR","33Q5P9PUSP8QOKKNNN5S19YACNVCZX","","img/set1/S1.jpg","83","1","random","83","true","random,structured_normal,structured_incentive","2,3,1,2","",""
"null","","html-keyboard-response","327","213174","0.0-256.0","3WQ3B2KGE92C5353SE57NE42PDTB1C","A3FOKP72T5I4FR","33Q5P9PUSP8QOKKNNN5S19YACNVCZX","","<img src=""img/set1/S1.jpg"" width=""540"" height = ""360"" style=""border:16px solid orange"">","null","","","","","","","",""
"null","","html-keyboard-response","328","213185","0.0-257.0","3WQ3B2KGE92C5353SE57NE42PDTB1C","A3FOKP72T5I4FR","33Q5P9PUSP8QOKKNNN5S19YACNVCZX","","","null","","","","","","","",""
"488.09999999403954","","image-keyboard-response","329","213675","0.0-258.0","3WQ3B2KGE92C5353SE57NE42PDTB1C","A3FOKP72T5I4FR","33Q5P9PUSP8QOKKNNN5S19YACNVCZX","","img/set1/S2.jpg","68","2","random","68","true","random,structured_normal,structured_incentive","2,3,1,2","",""
"null","","html-keyboard-response","330","214040","0.0-259.0","3WQ3B2KGE92C5353SE57NE42PDTB1C","A3FOKP72T5I4FR","33Q5P9PUSP8QOKKNNN5S19YACNVCZX","","<img src=""img/set1/S2.jpg"" width=""540"" height = ""360"" style=""border:16px solid orange"">","null","","","","","","","",""
"null","","html-keyboard-response","331","214049","0.0-260.0","3WQ3B2KGE92C5353SE57NE42PDTB1C","A3FOKP72T5I4FR","33Q5P9PUSP8QOKKNNN5S19YACNVCZX","","","null","","","","","","","",""
"669","","image-keyboard-response","332","214720","0.0-261.0","3WQ3B2KGE92C5353SE57NE42PDTB1C","A3FOKP72T5I4FR","33Q5P9PUSP8QOKKNNN5S19YACNVCZX","","img/set1/S4.jpg","74","4","random","74","true","random,structured_normal,structured_incentive","2,3,1,2","",""
"null","","html-keyboard-response","333","215075","0.0-262.0","3WQ3B2KGE92C5353SE57NE42PDTB1C","A3FOKP72T5I4FR","33Q5P9PUSP8QOKKNNN5S19YACNVCZX","","<img src=""img/set1/S4.jpg"" width=""540"" height = ""360"" style=""border:16px solid orange"">","null","","","","","","","",""
"null","","html-keyboard-response","334","215085","0.0-263.0","3WQ3B2KGE92C5353SE57NE42PDTB1C","A3FOKP72T5I4FR","33Q5P9PUSP8QOKKNNN5S19YACNVCZX","","","null","","","","","","","",""
"694.6999999955297","","image-keyboard-response","335","215782","0.0-264.0","3WQ3B2KGE92C5353SE57NE42PDTB1C","A3FOKP72T5I4FR","33Q5P9PUSP8QOKKNNN5S19YACNVCZX","","img/set1/S1.jpg","68","1","random","83","false","random,structured_normal,structured_incentive","2,3,1,2","",""
"null","","html-keyboard-response","336","216139","0.0-265.0","3WQ3B2KGE92C5353SE57NE42PDTB1C","A3FOKP72T5I4FR","33Q5P9PUSP8QOKKNNN5S19YACNVCZX","","<img src=""img/set1/S1.jpg"" width=""540"" height = ""360"">","null","","","","","","","",""
"null","","html-keyboard-response","337","216151","0.0-266.0","3WQ3B2KGE92C5353SE57NE42PDTB1C","A3FOKP72T5I4FR","33Q5P9PUSP8QOKKNNN5S19YACNVCZX","","","null","","","","","","","",""
"1177.6000000014901","","image-keyboard-response","338","217331","0.0-267.0","3WQ3B2KGE92C5353SE57NE42PDTB1C","A3FOKP72T5I4FR","33Q5P9PUSP8QOKKNNN5S19YACNVCZX","","img/set1/S2.jpg","68","2","random","68","true","random,structured_normal,structured_incentive","2,3,1,2","",""
"null","","html-keyboard-response","339","217688","0.0-268.0","3WQ3B2KGE92C5353SE57NE42PDTB1C","A3FOKP72T5I4FR","33Q5P9PUSP8QOKKNNN5S19YACNVCZX","","<img src=""img/set1/S2.jpg"" width=""540"" height = ""360"" style=""border:16px solid orange"">","null","","","","","","","",""
"null","","html-keyboard-response","340","217698","0.0-269.0","3WQ3B2KGE92C5353SE57NE42PDTB1C","A3FOKP72T5I4FR","33Q5P9PUSP8QOKKNNN5S19YACNVCZX","","","null","","","","","","","",""
"426.70000000298023","","image-keyboard-response","341","218126","0.0-270.0","3WQ3B2KGE92C5353SE57NE42PDTB1C","A3FOKP72T5I4FR","33Q5P9PUSP8QOKKNNN5S19YACNVCZX","","img/set1/S2.jpg","68","2","random","68","true","random,structured_normal,structured_incentive","2,3,1,2","",""
"null","","html-keyboard-response","342","218487","0.0-271.0","3WQ3B2KGE92C5353SE57NE42PDTB1C","A3FOKP72T5I4FR","33Q5P9PUSP8QOKKNNN5S19YACNVCZX","","<img src=""img/set1/S2.jpg"" width=""540"" height = ""360"" style=""border:16px solid orange"">","null","","","","","","","",""
"null","","html-keyboard-response","343","218496","0.0-272.0","3WQ3B2KGE92C5353SE57NE42PDTB1C","A3FOKP72T5I4FR","33Q5P9PUSP8QOKKNNN5S19YACNVCZX","","","null","","","","","","","",""
"600.4000000059605","","image-keyboard-response","344","219099","0.0-273.0","3WQ3B2KGE92C5353SE57NE42PDTB1C","A3FOKP72T5I4FR","33Q5P9PUSP8QOKKNNN5S19YACNVCZX","","img/set1/S3.jpg","72","3","random","72","true","random,structured_normal,structured_incentive","2,3,1,2","",""
"null","","html-keyboard-response","345","219465","0.0-274.0","3WQ3B2KGE92C5353SE57NE42PDTB1C","A3FOKP72T5I4FR","33Q5P9PUSP8QOKKNNN5S19YACNVCZX","","<img src=""img/set1/S3.jpg"" width=""540"" height = ""360"" style=""border:16px solid orange"">","null","","","","","","","",""
"null","","html-keyboard-response","346","219473","0.0-275.0","3WQ3B2KGE92C5353SE57NE42PDTB1C","A3FOKP72T5I4FR","33Q5P9PUSP8QOKKNNN5S19YACNVCZX","","","null","","","","","","","",""
"690.2000000029802","","image-keyboard-response","347","220165","0.0-276.0","3WQ3B2KGE92C5353SE57NE42PDTB1C","A3FOKP72T5I4FR","33Q5P9PUSP8QOKKNNN5S19YACNVCZX","","img/set1/S1.jpg","83","1","random","83","true","random,structured_normal,structured_incentive","2,3,1,2","",""
"null","","html-keyboard-response","348","220520","0.0-277.0","3WQ3B2KGE92C5353SE57NE42PDTB1C","A3FOKP72T5I4FR","33Q5P9PUSP8QOKKNNN5S19YACNVCZX","","<img src=""img/set1/S1.jpg"" width=""540"" height = ""360"" style=""border:16px solid orange"">","null","","","","","","","",""
"null","","html-keyboard-response","349","220529","0.0-278.0","3WQ3B2KGE92C5353SE57NE42PDTB1C","A3FOKP72T5I4FR","33Q5P9PUSP8QOKKNNN5S19YACNVCZX","","","null","","","","","","","",""
"695.2999999970198","","image-keyboard-response","350","221227","0.0-279.0","3WQ3B2KGE92C5353SE57NE42PDTB1C","A3FOKP72T5I4FR","33Q5P9PUSP8QOKKNNN5S19YACNVCZX","","img/set1/S4.jpg","74","4","random","74","true","random,structured_normal,structured_incentive","2,3,1,2","",""
"null","","html-keyboard-response","351","221582","0.0-280.0","3WQ3B2KGE92C5353SE57NE42PDTB1C","A3FOKP72T5I4FR","33Q5P9PUSP8QOKKNNN5S19YACNVCZX","","<img src=""img/set1/S4.jpg"" width=""540"" height = ""360"" style=""border:16px solid orange"">","null","","","","","","","",""
"null","","html-keyboard-response","352","221597","0.0-281.0","3WQ3B2KGE92C5353SE57NE42PDTB1C","A3FOKP72T5I4FR","33Q5P9PUSP8QOKKNNN5S19YACNVCZX","","","null","","","","","","","",""
"671.1000000014901","","image-keyboard-response","353","222270","0.0-282.0","3WQ3B2KGE92C5353SE57NE42PDTB1C","A3FOKP72T5I4FR","33Q5P9PUSP8QOKKNNN5S19YACNVCZX","","img/set1/S3.jpg","72","3","random","72","true","random,structured_normal,structured_incentive","2,3,1,2","",""
"null","","html-keyboard-response","354","222626","0.0-283.0","3WQ3B2KGE92C5353SE57NE42PDTB1C","A3FOKP72T5I4FR","33Q5P9PUSP8QOKKNNN5S19YACNVCZX","","<img src=""img/set1/S3.jpg"" width=""540"" height = ""360"" style=""border:16px solid orange"">","null","","","","","","","",""
"null","","html-keyboard-response","355","222634","0.0-284.0","3WQ3B2KGE92C5353SE57NE42PDTB1C","A3FOKP72T5I4FR","33Q5P9PUSP8QOKKNNN5S19YACNVCZX","","","null","","","","","","","",""
"803","","image-keyboard-response","356","223439","0.0-285.0","3WQ3B2KGE92C5353SE57NE42PDTB1C","A3FOKP72T5I4FR","33Q5P9PUSP8QOKKNNN5S19YACNVCZX","","img/set1/S1.jpg","83","1","random","83","true","random,structured_normal,structured_incentive","2,3,1,2","",""
"null","","html-keyboard-response","357","223792","0.0-286.0","3WQ3B2KGE92C5353SE57NE42PDTB1C","A3FOKP72T5I4FR","33Q5P9PUSP8QOKKNNN5S19YACNVCZX","","<img src=""img/set1/S1.jpg"" width=""540"" height = ""360"" style=""border:16px solid orange"">","null","","","","","","","",""
"null","","html-keyboard-response","358","223800","0.0-287.0","3WQ3B2KGE92C5353SE57NE42PDTB1C","A3FOKP72T5I4FR","33Q5P9PUSP8QOKKNNN5S19YACNVCZX","","","null","","","","","","","",""
"466.1000000014901","","image-keyboard-response","359","224268","0.0-288.0","3WQ3B2KGE92C5353SE57NE42PDTB1C","A3FOKP72T5I4FR","33Q5P9PUSP8QOKKNNN5S19YACNVCZX","","img/set1/S1.jpg","83","1","random","83","true","random,structured_normal,structured_incentive","2,3,1,2","",""
"null","","html-keyboard-response","360","224624","0.0-289.0","3WQ3B2KGE92C5353SE57NE42PDTB1C","A3FOKP72T5I4FR","33Q5P9PUSP8QOKKNNN5S19YACNVCZX","","<img src=""img/set1/S1.jpg"" width=""540"" height = ""360"" style=""border:16px solid orange"">","null","","","","","","","",""
"null","","html-keyboard-response","361","224629","0.0-290.0","3WQ3B2KGE92C5353SE57NE42PDTB1C","A3FOKP72T5I4FR","33Q5P9PUSP8QOKKNNN5S19YACNVCZX","","","null","","","","","","","",""
"630.1999999955297","","image-keyboard-response","362","225262","0.0-291.0","3WQ3B2KGE92C5353SE57NE42PDTB1C","A3FOKP72T5I4FR","33Q5P9PUSP8QOKKNNN5S19YACNVCZX","","img/set1/S2.jpg","68","2","random","68","true","random,structured_normal,structured_incentive","2,3,1,2","",""
"null","","html-keyboard-response","363","225620","0.0-292.0","3WQ3B2KGE92C5353SE57NE42PDTB1C","A3FOKP72T5I4FR","33Q5P9PUSP8QOKKNNN5S19YACNVCZX","","<img src=""img/set1/S2.jpg"" width=""540"" height = ""360"" style=""border:16px solid orange"">","null","","","","","","","",""
"null","","html-keyboard-response","364","225626","0.0-293.0","3WQ3B2KGE92C5353SE57NE42PDTB1C","A3FOKP72T5I4FR","33Q5P9PUSP8QOKKNNN5S19YACNVCZX","","","null","","","","","","","",""
"644.1000000014901","","image-keyboard-response","365","226272","0.0-294.0","3WQ3B2KGE92C5353SE57NE42PDTB1C","A3FOKP72T5I4FR","33Q5P9PUSP8QOKKNNN5S19YACNVCZX","","img/set1/S1.jpg","83","1","random","83","true","random,structured_normal,structured_incentive","2,3,1,2","",""
"null","","html-keyboard-response","366","226629","0.0-295.0","3WQ3B2KGE92C5353SE57NE42PDTB1C","A3FOKP72T5I4FR","33Q5P9PUSP8QOKKNNN5S19YACNVCZX","","<img src=""img/set1/S1.jpg"" width=""540"" height = ""360"" style=""border:16px solid orange"">","null","","","","","","","",""
"null","","html-keyboard-response","367","226636","0.0-296.0","3WQ3B2KGE92C5353SE57NE42PDTB1C","A3FOKP72T5I4FR","33Q5P9PUSP8QOKKNNN5S19YACNVCZX","","","null","","","","","","","",""
"777.3000000044703","","image-keyboard-response","368","227415","0.0-297.0","3WQ3B2KGE92C5353SE57NE42PDTB1C","A3FOKP72T5I4FR","33Q5P9PUSP8QOKKNNN5S19YACNVCZX","","img/set1/S3.jpg","72","3","random","72","true","random,structured_normal,structured_incentive","2,3,1,2","",""
"null","","html-keyboard-response","369","227772","0.0-298.0","3WQ3B2KGE92C5353SE57NE42PDTB1C","A3FOKP72T5I4FR","33Q5P9PUSP8QOKKNNN5S19YACNVCZX","","<img src=""img/set1/S3.jpg"" width=""540"" height = ""360"" style=""border:16px solid orange"">","null","","","","","","","",""
"null","","html-keyboard-response","370","227783","0.0-299.0","3WQ3B2KGE92C5353SE57NE42PDTB1C","A3FOKP72T5I4FR","33Q5P9PUSP8QOKKNNN5S19YACNVCZX","","","null","","","","","","","",""
"662.6000000014901","","image-keyboard-response","371","228447","0.0-300.0","3WQ3B2KGE92C5353SE57NE42PDTB1C","A3FOKP72T5I4FR","33Q5P9PUSP8QOKKNNN5S19YACNVCZX","","img/set1/S4.jpg","74","4","random","74","true","random,structured_normal,structured_incentive","2,3,1,2","",""
"null","","html-keyboard-response","372","228817","0.0-301.0","3WQ3B2KGE92C5353SE57NE42PDTB1C","A3FOKP72T5I4FR","33Q5P9PUSP8QOKKNNN5S19YACNVCZX","","<img src=""img/set1/S4.jpg"" width=""540"" height = ""360"" style=""border:16px solid orange"">","null","","","","","","","",""
"null","","html-keyboard-response","373","228834","0.0-302.0","3WQ3B2KGE92C5353SE57NE42PDTB1C","A3FOKP72T5I4FR","33Q5P9PUSP8QOKKNNN5S19YACNVCZX","","","null","","","","","","","",""
"933.7999999970198","","image-keyboard-response","374","229770","0.0-303.0","3WQ3B2KGE92C5353SE57NE42PDTB1C","A3FOKP72T5I4FR","33Q5P9PUSP8QOKKNNN5S19YACNVCZX","","img/set1/S3.jpg","72","3","random","72","true","random,structured_normal,structured_incentive","2,3,1,2","",""
"null","","html-keyboard-response","375","230128","0.0-304.0","3WQ3B2KGE92C5353SE57NE42PDTB1C","A3FOKP72T5I4FR","33Q5P9PUSP8QOKKNNN5S19YACNVCZX","","<img src=""img/set1/S3.jpg"" width=""540"" height = ""360"" style=""border:16px solid orange"">","null","","","","","","","",""
"null","","html-keyboard-response","376","230136","0.0-305.0","3WQ3B2KGE92C5353SE57NE42PDTB1C","A3FOKP72T5I4FR","33Q5P9PUSP8QOKKNNN5S19YACNVCZX","","","null","","","","","","","",""
"642.1999999955297","","image-keyboard-response","377","230781","0.0-306.0","3WQ3B2KGE92C5353SE57NE42PDTB1C","A3FOKP72T5I4FR","33Q5P9PUSP8QOKKNNN5S19YACNVCZX","","img/set1/S2.jpg","68","2","random","68","true","random,structured_normal,structured_incentive","2,3,1,2","",""
"null","","html-keyboard-response","378","231140","0.0-307.0","3WQ3B2KGE92C5353SE57NE42PDTB1C","A3FOKP72T5I4FR","33Q5P9PUSP8QOKKNNN5S19YACNVCZX","","<img src=""img/set1/S2.jpg"" width=""540"" height = ""360"" style=""border:16px solid orange"">","null","","","","","","","",""
"null","","html-keyboard-response","379","231152","0.0-308.0","3WQ3B2KGE92C5353SE57NE42PDTB1C","A3FOKP72T5I4FR","33Q5P9PUSP8QOKKNNN5S19YACNVCZX","","","null","","","","","","","",""
"1174.1000000014901","","image-keyboard-response","380","232329","0.0-309.0","3WQ3B2KGE92C5353SE57NE42PDTB1C","A3FOKP72T5I4FR","33Q5P9PUSP8QOKKNNN5S19YACNVCZX","","img/set1/S3.jpg","72","3","random","72","true","random,structured_normal,structured_incentive","2,3,1,2","",""
"null","","html-keyboard-response","381","232697","0.0-310.0","3WQ3B2KGE92C5353SE57NE42PDTB1C","A3FOKP72T5I4FR","33Q5P9PUSP8QOKKNNN5S19YACNVCZX","","<img src=""img/set1/S3.jpg"" width=""540"" height = ""360"" style=""border:16px solid orange"">","null","","","","","","","",""
"null","","html-keyboard-response","382","232711","0.0-311.0","3WQ3B2KGE92C5353SE57NE42PDTB1C","A3FOKP72T5I4FR","33Q5P9PUSP8QOKKNNN5S19YACNVCZX","","","null","","","","","","","",""
"677.6000000014901","","image-keyboard-response","383","233391","0.0-312.0","3WQ3B2KGE92C5353SE57NE42PDTB1C","A3FOKP72T5I4FR","33Q5P9PUSP8QOKKNNN5S19YACNVCZX","","img/set1/S2.jpg","68","2","random","68","true","random,structured_normal,structured_incentive","2,3,1,2","",""
"null","","html-keyboard-response","384","233748","0.0-313.0","3WQ3B2KGE92C5353SE57NE42PDTB1C","A3FOKP72T5I4FR","33Q5P9PUSP8QOKKNNN5S19YACNVCZX","","<img src=""img/set1/S2.jpg"" width=""540"" height = ""360"" style=""border:16px solid orange"">","null","","","","","","","",""
"null","","html-keyboard-response","385","233756","0.0-314.0","3WQ3B2KGE92C5353SE57NE42PDTB1C","A3FOKP72T5I4FR","33Q5P9PUSP8QOKKNNN5S19YACNVCZX","","","null","","","","","","","",""
"537.2000000029802","","image-keyboard-response","386","234295","0.0-315.0","3WQ3B2KGE92C5353SE57NE42PDTB1C","A3FOKP72T5I4FR","33Q5P9PUSP8QOKKNNN5S19YACNVCZX","","img/set1/S2.jpg","68","2","random","68","true","random,structured_normal,structured_incentive","2,3,1,2","",""
"null","","html-keyboard-response","387","234648","0.0-316.0","3WQ3B2KGE92C5353SE57NE42PDTB1C","A3FOKP72T5I4FR","33Q5P9PUSP8QOKKNNN5S19YACNVCZX","","<img src=""img/set1/S2.jpg"" width=""540"" height = ""360"" style=""border:16px solid orange"">","null","","","","","","","",""
"null","","html-keyboard-response","388","234658","0.0-317.0","3WQ3B2KGE92C5353SE57NE42PDTB1C","A3FOKP72T5I4FR","33Q5P9PUSP8QOKKNNN5S19YACNVCZX","","","null","","","","","","","",""
"1384.6000000014901","","image-keyboard-response","389","236046","0.0-318.0","3WQ3B2KGE92C5353SE57NE42PDTB1C","A3FOKP72T5I4FR","33Q5P9PUSP8QOKKNNN5S19YACNVCZX","","img/set1/S3.jpg","72","3","random","72","true","random,structured_normal,structured_incentive","2,3,1,2","",""
"null","","html-keyboard-response","390","236403","0.0-319.0","3WQ3B2KGE92C5353SE57NE42PDTB1C","A3FOKP72T5I4FR","33Q5P9PUSP8QOKKNNN5S19YACNVCZX","","<img src=""img/set1/S3.jpg"" width=""540"" height = ""360"" style=""border:16px solid orange"">","null","","","","","","","",""
"null","","html-keyboard-response","391","236408","0.0-320.0","3WQ3B2KGE92C5353SE57NE42PDTB1C","A3FOKP72T5I4FR","33Q5P9PUSP8QOKKNNN5S19YACNVCZX","","","null","","","","","","","",""
"2090.0999999940395","","image-keyboard-response","392","238501","0.0-321.0","3WQ3B2KGE92C5353SE57NE42PDTB1C","A3FOKP72T5I4FR","33Q5P9PUSP8QOKKNNN5S19YACNVCZX","","img/set1/S1.jpg","83","1","random","83","true","random,structured_normal,structured_incentive","2,3,1,2","",""
"null","","html-keyboard-response","393","238865","0.0-322.0","3WQ3B2KGE92C5353SE57NE42PDTB1C","A3FOKP72T5I4FR","33Q5P9PUSP8QOKKNNN5S19YACNVCZX","","<img src=""img/set1/S1.jpg"" width=""540"" height = ""360"" style=""border:16px solid orange"">","null","","","","","","","",""
"null","","html-keyboard-response","394","238872","0.0-323.0","3WQ3B2KGE92C5353SE57NE42PDTB1C","A3FOKP72T5I4FR","33Q5P9PUSP8QOKKNNN5S19YACNVCZX","","","null","","","","","","","",""
"730.3000000044703","","image-keyboard-response","395","239604","0.0-324.0","3WQ3B2KGE92C5353SE57NE42PDTB1C","A3FOKP72T5I4FR","33Q5P9PUSP8QOKKNNN5S19YACNVCZX","","img/set1/S2.jpg","68","2","random","68","true","random,structured_normal,structured_incentive","2,3,1,2","",""
"null","","html-keyboard-response","396","239960","0.0-325.0","3WQ3B2KGE92C5353SE57NE42PDTB1C","A3FOKP72T5I4FR","33Q5P9PUSP8QOKKNNN5S19YACNVCZX","","<img src=""img/set1/S2.jpg"" width=""540"" height = ""360"" style=""border:16px solid orange"">","null","","","","","","","",""
"null","","html-keyboard-response","397","239967","0.0-326.0","3WQ3B2KGE92C5353SE57NE42PDTB1C","A3FOKP72T5I4FR","33Q5P9PUSP8QOKKNNN5S19YACNVCZX","","","null","","","","","","","",""
"2186.60000000149","","image-keyboard-response","398","242151","0.0-327.0","3WQ3B2KGE92C5353SE57NE42PDTB1C","A3FOKP72T5I4FR","33Q5P9PUSP8QOKKNNN5S19YACNVCZX","","img/set1/S1.jpg","83","1","random","83","true","random,structured_normal,structured_incentive","2,3,1,2","",""
"null","","html-keyboard-response","399","242513","0.0-328.0","3WQ3B2KGE92C5353SE57NE42PDTB1C","A3FOKP72T5I4FR","33Q5P9PUSP8QOKKNNN5S19YACNVCZX","","<img src=""img/set1/S1.jpg"" width=""540"" height = ""360"" style=""border:16px solid orange"">","null","","","","","","","",""
"null","","html-keyboard-response","400","242526","0.0-329.0","3WQ3B2KGE92C5353SE57NE42PDTB1C","A3FOKP72T5I4FR","33Q5P9PUSP8QOKKNNN5S19YACNVCZX","","","null","","","","","","","",""
"1688.3999999985099","","image-keyboard-response","401","244216","0.0-330.0","3WQ3B2KGE92C5353SE57NE42PDTB1C","A3FOKP72T5I4FR","33Q5P9PUSP8QOKKNNN5S19YACNVCZX","","img/set1/S4.jpg","74","4","random","74","true","random,structured_normal,structured_incentive","2,3,1,2","",""
"null","","html-keyboard-response","402","244573","0.0-331.0","3WQ3B2KGE92C5353SE57NE42PDTB1C","A3FOKP72T5I4FR","33Q5P9PUSP8QOKKNNN5S19YACNVCZX","","<img src=""img/set1/S4.jpg"" width=""540"" height = ""360"" style=""border:16px solid orange"">","null","","","","","","","",""
"null","","html-keyboard-response","403","244582","0.0-332.0","3WQ3B2KGE92C5353SE57NE42PDTB1C","A3FOKP72T5I4FR","33Q5P9PUSP8QOKKNNN5S19YACNVCZX","","","null","","","","","","","",""
"472.8999999985099","","image-keyboard-response","404","245057","0.0-333.0","3WQ3B2KGE92C5353SE57NE42PDTB1C","A3FOKP72T5I4FR","33Q5P9PUSP8QOKKNNN5S19YACNVCZX","","img/set1/S4.jpg","74","4","random","74","true","random,structured_normal,structured_incentive","2,3,1,2","",""
"null","","html-keyboard-response","405","245415","0.0-334.0","3WQ3B2KGE92C5353SE57NE42PDTB1C","A3FOKP72T5I4FR","33Q5P9PUSP8QOKKNNN5S19YACNVCZX","","<img src=""img/set1/S4.jpg"" width=""540"" height = ""360"" style=""border:16px solid orange"">","null","","","","","","","",""
"null","","html-keyboard-response","406","245424","0.0-335.0","3WQ3B2KGE92C5353SE57NE42PDTB1C","A3FOKP72T5I4FR","33Q5P9PUSP8QOKKNNN5S19YACNVCZX","","","null","","","","","","","",""
"680.8999999985099","","image-keyboard-response","407","246107","0.0-336.0","3WQ3B2KGE92C5353SE57NE42PDTB1C","A3FOKP72T5I4FR","33Q5P9PUSP8QOKKNNN5S19YACNVCZX","","img/set1/S3.jpg","72","3","random","72","true","random,structured_normal,structured_incentive","2,3,1,2","",""
"null","","html-keyboard-response","408","246463","0.0-337.0","3WQ3B2KGE92C5353SE57NE42PDTB1C","A3FOKP72T5I4FR","33Q5P9PUSP8QOKKNNN5S19YACNVCZX","","<img src=""img/set1/S3.jpg"" width=""540"" height = ""360"" style=""border:16px solid orange"">","null","","","","","","","",""
"null","","html-keyboard-response","409","246476","0.0-338.0","3WQ3B2KGE92C5353SE57NE42PDTB1C","A3FOKP72T5I4FR","33Q5P9PUSP8QOKKNNN5S19YACNVCZX","","","null","","","","","","","",""
"588.3999999985099","","image-keyboard-response","410","247067","0.0-339.0","3WQ3B2KGE92C5353SE57NE42PDTB1C","A3FOKP72T5I4FR","33Q5P9PUSP8QOKKNNN5S19YACNVCZX","","img/set1/S3.jpg","72","3","random","72","true","random,structured_normal,structured_incentive","2,3,1,2","",""
"null","","html-keyboard-response","411","247427","0.0-340.0","3WQ3B2KGE92C5353SE57NE42PDTB1C","A3FOKP72T5I4FR","33Q5P9PUSP8QOKKNNN5S19YACNVCZX","","<img src=""img/set1/S3.jpg"" width=""540"" height = ""360"" style=""border:16px solid orange"">","null","","","","","","","",""
"null","","html-keyboard-response","412","247435","0.0-341.0","3WQ3B2KGE92C5353SE57NE42PDTB1C","A3FOKP72T5I4FR","33Q5P9PUSP8QOKKNNN5S19YACNVCZX","","","null","","","","","","","",""
"720.5","","image-keyboard-response","413","248158","0.0-342.0","3WQ3B2KGE92C5353SE57NE42PDTB1C","A3FOKP72T5I4FR","33Q5P9PUSP8QOKKNNN5S19YACNVCZX","","img/set1/S2.jpg","68","2","random","68","true","random,structured_normal,structured_incentive","2,3,1,2","",""
