"rt","url","trial_type","trial_index","time_elapsed","internal_node_id","assignmentID","mturkID","hitID","view_history","stimulus","key_press","state","test_part","correct_response","correct","order_block","order_chunk","bonus","responses"
"3639.2999997138977","consent.html","external-html","0","3701","0.0-0.0","3DQQ64TANH77AYMG87CTBOZL2UGWPG","A3HNEYFOIJWPH1","33Q5P9PUSP8QOKKNNN5S19YACNVCZX","","","","","","","","","","",""
"128427.2999997139","","instructions","1","132129","0.0-1.0","3DQQ64TANH77AYMG87CTBOZL2UGWPG","A3HNEYFOIJWPH1","33Q5P9PUSP8QOKKNNN5S19YACNVCZX","[{""page_index"":0,""viewing_time"":5939.199999809265},{""page_index"":1,""viewing_time"":12681.900000095367},{""page_index"":2,""viewing_time"":58029.09999990463},{""page_index"":3,""viewing_time"":19022},{""page_index"":4,""viewing_time"":3815.199999809265},{""page_index"":5,""viewing_time"":10279.900000095367},{""page_index"":6,""viewing_time"":6813},{""page_index"":7,""viewing_time"":11846.400000095367}]","","","","","","","","","",""
"1803.1999998092651","","image-keyboard-response","2","133934","0.0-2.0-0.0","3DQQ64TANH77AYMG87CTBOZL2UGWPG","A3HNEYFOIJWPH1","33Q5P9PUSP8QOKKNNN5S19YACNVCZX","","img/practice/S3.jpg","83","3","practice","72","false","","","",""
"null","","html-keyboard-response","3","134235","0.0-2.0-1.0","3DQQ64TANH77AYMG87CTBOZL2UGWPG","A3HNEYFOIJWPH1","33Q5P9PUSP8QOKKNNN5S19YACNVCZX","","<img src=""img/practice/S3.jpg"" width=""540"" height = ""360"">","null","","","","","","","",""
"null","","html-keyboard-response","4","134238","0.0-2.0-2.0","3DQQ64TANH77AYMG87CTBOZL2UGWPG","A3HNEYFOIJWPH1","33Q5P9PUSP8QOKKNNN5S19YACNVCZX","","","null","","","","","","","",""
"null","","image-keyboard-response","5","136741","0.0-2.0-0.1","3DQQ64TANH77AYMG87CTBOZL2UGWPG","A3HNEYFOIJWPH1","33Q5P9PUSP8QOKKNNN5S19YACNVCZX","","img/practice/S4.jpg","null","4","practice","74","false","","","",""
"null","","html-keyboard-response","6","137044","0.0-2.0-1.1","3DQQ64TANH77AYMG87CTBOZL2UGWPG","A3HNEYFOIJWPH1","33Q5P9PUSP8QOKKNNN5S19YACNVCZX","","<img src=""img/practice/S4.jpg"" width=""540"" height = ""360"">","null","","","","","","","",""
"null","","html-keyboard-response","7","137050","0.0-2.0-2.1","3DQQ64TANH77AYMG87CTBOZL2UGWPG","A3HNEYFOIJWPH1","33Q5P9PUSP8QOKKNNN5S19YACNVCZX","","","null","","","","","","","",""
"218.19999980926514","","image-keyboard-response","8","137269","0.0-2.0-0.2","3DQQ64TANH77AYMG87CTBOZL2UGWPG","A3HNEYFOIJWPH1","33Q5P9PUSP8QOKKNNN5S19YACNVCZX","","img/practice/S1.jpg","68","1","practice","83","false","","","",""
"null","","html-keyboard-response","9","137571","0.0-2.0-1.2","3DQQ64TANH77AYMG87CTBOZL2UGWPG","A3HNEYFOIJWPH1","33Q5P9PUSP8QOKKNNN5S19YACNVCZX","","<img src=""img/practice/S1.jpg"" width=""540"" height = ""360"">","null","","","","","","","",""
"null","","html-keyboard-response","10","137574","0.0-2.0-2.2","3DQQ64TANH77AYMG87CTBOZL2UGWPG","A3HNEYFOIJWPH1","33Q5P9PUSP8QOKKNNN5S19YACNVCZX","","","null","","","","","","","",""
"1062.5999999046326","","image-keyboard-response","11","138637","0.0-2.0-0.3","3DQQ64TANH77AYMG87CTBOZL2UGWPG","A3HNEYFOIJWPH1","33Q5P9PUSP8QOKKNNN5S19YACNVCZX","","img/practice/S2.jpg","83","2","practice","68","false","","","",""
"null","","html-keyboard-response","12","138939","0.0-2.0-1.3","3DQQ64TANH77AYMG87CTBOZL2UGWPG","A3HNEYFOIJWPH1","33Q5P9PUSP8QOKKNNN5S19YACNVCZX","","<img src=""img/practice/S2.jpg"" width=""540"" height = ""360"">","null","","","","","","","",""
"null","","html-keyboard-response","13","138941","0.0-2.0-2.3","3DQQ64TANH77AYMG87CTBOZL2UGWPG","A3HNEYFOIJWPH1","33Q5P9PUSP8QOKKNNN5S19YACNVCZX","","","null","","","","","","","",""
"983.1999998092651","","image-keyboard-response","14","139925","0.0-2.0-0.4","3DQQ64TANH77AYMG87CTBOZL2UGWPG","A3HNEYFOIJWPH1","33Q5P9PUSP8QOKKNNN5S19YACNVCZX","","img/practice/S4.jpg","83","4","practice","74","false","","","",""
"null","","html-keyboard-response","15","140227","0.0-2.0-1.4","3DQQ64TANH77AYMG87CTBOZL2UGWPG","A3HNEYFOIJWPH1","33Q5P9PUSP8QOKKNNN5S19YACNVCZX","","<img src=""img/practice/S4.jpg"" width=""540"" height = ""360"">","null","","","","","","","",""
"null","","html-keyboard-response","16","140230","0.0-2.0-2.4","3DQQ64TANH77AYMG87CTBOZL2UGWPG","A3HNEYFOIJWPH1","33Q5P9PUSP8QOKKNNN5S19YACNVCZX","","","null","","","","","","","",""
"634.4000000953674","","image-keyboard-response","17","140865","0.0-2.0-0.5","3DQQ64TANH77AYMG87CTBOZL2UGWPG","A3HNEYFOIJWPH1","33Q5P9PUSP8QOKKNNN5S19YACNVCZX","","img/practice/S3.jpg","68","3","practice","72","false","","","",""
"null","","html-keyboard-response","18","141169","0.0-2.0-1.5","3DQQ64TANH77AYMG87CTBOZL2UGWPG","A3HNEYFOIJWPH1","33Q5P9PUSP8QOKKNNN5S19YACNVCZX","","<img src=""img/practice/S3.jpg"" width=""540"" height = ""360"">","null","","","","","","","",""
"null","","html-keyboard-response","19","141172","0.0-2.0-2.5","3DQQ64TANH77AYMG87CTBOZL2UGWPG","A3HNEYFOIJWPH1","33Q5P9PUSP8QOKKNNN5S19YACNVCZX","","","null","","","","","","","",""
"903.7999997138977","","image-keyboard-response","20","142077","0.0-2.0-0.6","3DQQ64TANH77AYMG87CTBOZL2UGWPG","A3HNEYFOIJWPH1","33Q5P9PUSP8QOKKNNN5S19YACNVCZX","","img/practice/S1.jpg","72","1","practice","83","false","","","",""
"null","","html-keyboard-response","21","142379","0.0-2.0-1.6","3DQQ64TANH77AYMG87CTBOZL2UGWPG","A3HNEYFOIJWPH1","33Q5P9PUSP8QOKKNNN5S19YACNVCZX","","<img src=""img/practice/S1.jpg"" width=""540"" height = ""360"">","null","","","","","","","",""
"null","","html-keyboard-response","22","142381","0.0-2.0-2.6","3DQQ64TANH77AYMG87CTBOZL2UGWPG","A3HNEYFOIJWPH1","33Q5P9PUSP8QOKKNNN5S19YACNVCZX","","","null","","","","","","","",""
"519.5","","image-keyboard-response","23","142901","0.0-2.0-0.7","3DQQ64TANH77AYMG87CTBOZL2UGWPG","A3HNEYFOIJWPH1","33Q5P9PUSP8QOKKNNN5S19YACNVCZX","","img/practice/S2.jpg","74","2","practice","68","false","","","",""
"null","","html-keyboard-response","24","143203","0.0-2.0-1.7","3DQQ64TANH77AYMG87CTBOZL2UGWPG","A3HNEYFOIJWPH1","33Q5P9PUSP8QOKKNNN5S19YACNVCZX","","<img src=""img/practice/S2.jpg"" width=""540"" height = ""360"">","null","","","","","","","",""
"null","","html-keyboard-response","25","143205","0.0-2.0-2.7","3DQQ64TANH77AYMG87CTBOZL2UGWPG","A3HNEYFOIJWPH1","33Q5P9PUSP8QOKKNNN5S19YACNVCZX","","","null","","","","","","","",""
"1175.5999999046326","","image-keyboard-response","26","144382","0.0-2.0-0.8","3DQQ64TANH77AYMG87CTBOZL2UGWPG","A3HNEYFOIJWPH1","33Q5P9PUSP8QOKKNNN5S19YACNVCZX","","img/practice/S1.jpg","74","1","practice","83","false","","","",""
"null","","html-keyboard-response","27","144683","0.0-2.0-1.8","3DQQ64TANH77AYMG87CTBOZL2UGWPG","A3HNEYFOIJWPH1","33Q5P9PUSP8QOKKNNN5S19YACNVCZX","","<img src=""img/practice/S1.jpg"" width=""540"" height = ""360"">","null","","","","","","","",""
"null","","html-keyboard-response","28","144686","0.0-2.0-2.8","3DQQ64TANH77AYMG87CTBOZL2UGWPG","A3HNEYFOIJWPH1","33Q5P9PUSP8QOKKNNN5S19YACNVCZX","","","null","","","","","","","",""
"1022.6999998092651","","image-keyboard-response","29","145710","0.0-2.0-0.9","3DQQ64TANH77AYMG87CTBOZL2UGWPG","A3HNEYFOIJWPH1","33Q5P9PUSP8QOKKNNN5S19YACNVCZX","","img/practice/S2.jpg","83","2","practice","68","false","","","",""
"null","","html-keyboard-response","30","146011","0.0-2.0-1.9","3DQQ64TANH77AYMG87CTBOZL2UGWPG","A3HNEYFOIJWPH1","33Q5P9PUSP8QOKKNNN5S19YACNVCZX","","<img src=""img/practice/S2.jpg"" width=""540"" height = ""360"">","null","","","","","","","",""
"null","","html-keyboard-response","31","146013","0.0-2.0-2.9","3DQQ64TANH77AYMG87CTBOZL2UGWPG","A3HNEYFOIJWPH1","33Q5P9PUSP8QOKKNNN5S19YACNVCZX","","","null","","","","","","","",""
"1431.1999998092651","","image-keyboard-response","32","147445","0.0-2.0-0.10","3DQQ64TANH77AYMG87CTBOZL2UGWPG","A3HNEYFOIJWPH1","33Q5P9PUSP8QOKKNNN5S19YACNVCZX","","img/practice/S4.jpg","68","4","practice","74","false","","","",""
"null","","html-keyboard-response","33","147747","0.0-2.0-1.10","3DQQ64TANH77AYMG87CTBOZL2UGWPG","A3HNEYFOIJWPH1","33Q5P9PUSP8QOKKNNN5S19YACNVCZX","","<img src=""img/practice/S4.jpg"" width=""540"" height = ""360"">","null","","","","","","","",""
"null","","html-keyboard-response","34","147749","0.0-2.0-2.10","3DQQ64TANH77AYMG87CTBOZL2UGWPG","A3HNEYFOIJWPH1","33Q5P9PUSP8QOKKNNN5S19YACNVCZX","","","null","","","","","","","",""
"473","","image-keyboard-response","35","148224","0.0-2.0-0.11","3DQQ64TANH77AYMG87CTBOZL2UGWPG","A3HNEYFOIJWPH1","33Q5P9PUSP8QOKKNNN5S19YACNVCZX","","img/practice/S3.jpg","72","3","practice","72","true","","","",""
"null","","html-keyboard-response","36","148527","0.0-2.0-1.11","3DQQ64TANH77AYMG87CTBOZL2UGWPG","A3HNEYFOIJWPH1","33Q5P9PUSP8QOKKNNN5S19YACNVCZX","","<img src=""img/practice/S3.jpg"" width=""540"" height = ""360"" style=""border:16px solid orange"">","null","","","","","","","",""
"null","","html-keyboard-response","37","148529","0.0-2.0-2.11","3DQQ64TANH77AYMG87CTBOZL2UGWPG","A3HNEYFOIJWPH1","33Q5P9PUSP8QOKKNNN5S19YACNVCZX","","","null","","","","","","","",""
"1782","","image-keyboard-response","38","150312","0.0-2.0-0.12","3DQQ64TANH77AYMG87CTBOZL2UGWPG","A3HNEYFOIJWPH1","33Q5P9PUSP8QOKKNNN5S19YACNVCZX","","img/practice/S3.jpg","72","3","practice","72","true","","","",""
"null","","html-keyboard-response","39","150615","0.0-2.0-1.12","3DQQ64TANH77AYMG87CTBOZL2UGWPG","A3HNEYFOIJWPH1","33Q5P9PUSP8QOKKNNN5S19YACNVCZX","","<img src=""img/practice/S3.jpg"" width=""540"" height = ""360"" style=""border:16px solid orange"">","null","","","","","","","",""
"null","","html-keyboard-response","40","150618","0.0-2.0-2.12","3DQQ64TANH77AYMG87CTBOZL2UGWPG","A3HNEYFOIJWPH1","33Q5P9PUSP8QOKKNNN5S19YACNVCZX","","","null","","","","","","","",""
"2163.1000003814697","","image-keyboard-response","41","152783","0.0-2.0-0.13","3DQQ64TANH77AYMG87CTBOZL2UGWPG","A3HNEYFOIJWPH1","33Q5P9PUSP8QOKKNNN5S19YACNVCZX","","img/practice/S4.jpg","68","4","practice","74","false","","","",""
"null","","html-keyboard-response","42","153085","0.0-2.0-1.13","3DQQ64TANH77AYMG87CTBOZL2UGWPG","A3HNEYFOIJWPH1","33Q5P9PUSP8QOKKNNN5S19YACNVCZX","","<img src=""img/practice/S4.jpg"" width=""540"" height = ""360"">","null","","","","","","","",""
"null","","html-keyboard-response","43","153087","0.0-2.0-2.13","3DQQ64TANH77AYMG87CTBOZL2UGWPG","A3HNEYFOIJWPH1","33Q5P9PUSP8QOKKNNN5S19YACNVCZX","","","null","","","","","","","",""
"1253.1999998092651","","image-keyboard-response","44","154341","0.0-2.0-0.14","3DQQ64TANH77AYMG87CTBOZL2UGWPG","A3HNEYFOIJWPH1","33Q5P9PUSP8QOKKNNN5S19YACNVCZX","","img/practice/S1.jpg","83","1","practice","83","true","","","",""
"null","","html-keyboard-response","45","154642","0.0-2.0-1.14","3DQQ64TANH77AYMG87CTBOZL2UGWPG","A3HNEYFOIJWPH1","33Q5P9PUSP8QOKKNNN5S19YACNVCZX","","<img src=""img/practice/S1.jpg"" width=""540"" height = ""360"" style=""border:16px solid orange"">","null","","","","","","","",""
"null","","html-keyboard-response","46","154645","0.0-2.0-2.14","3DQQ64TANH77AYMG87CTBOZL2UGWPG","A3HNEYFOIJWPH1","33Q5P9PUSP8QOKKNNN5S19YACNVCZX","","","null","","","","","","","",""
"1591.0999999046326","","image-keyboard-response","47","156237","0.0-2.0-0.15","3DQQ64TANH77AYMG87CTBOZL2UGWPG","A3HNEYFOIJWPH1","33Q5P9PUSP8QOKKNNN5S19YACNVCZX","","img/practice/S2.jpg","68","2","practice","68","true","","","",""
"null","","html-keyboard-response","48","156539","0.0-2.0-1.15","3DQQ64TANH77AYMG87CTBOZL2UGWPG","A3HNEYFOIJWPH1","33Q5P9PUSP8QOKKNNN5S19YACNVCZX","","<img src=""img/practice/S2.jpg"" width=""540"" height = ""360"" style=""border:16px solid orange"">","null","","","","","","","",""
"null","","html-keyboard-response","49","156542","0.0-2.0-2.15","3DQQ64TANH77AYMG87CTBOZL2UGWPG","A3HNEYFOIJWPH1","33Q5P9PUSP8QOKKNNN5S19YACNVCZX","","","null","","","","","","","",""
"887.4000000953674","","image-keyboard-response","50","157431","0.0-2.0-0.16","3DQQ64TANH77AYMG87CTBOZL2UGWPG","A3HNEYFOIJWPH1","33Q5P9PUSP8QOKKNNN5S19YACNVCZX","","img/practice/S1.jpg","83","1","practice","83","true","","","",""
"null","","html-keyboard-response","51","157745","0.0-2.0-1.16","3DQQ64TANH77AYMG87CTBOZL2UGWPG","A3HNEYFOIJWPH1","33Q5P9PUSP8QOKKNNN5S19YACNVCZX","","<img src=""img/practice/S1.jpg"" width=""540"" height = ""360"" style=""border:16px solid orange"">","null","","","","","","","",""
"null","","html-keyboard-response","52","157748","0.0-2.0-2.16","3DQQ64TANH77AYMG87CTBOZL2UGWPG","A3HNEYFOIJWPH1","33Q5P9PUSP8QOKKNNN5S19YACNVCZX","","","null","","","","","","","",""
"1130.1999998092651","","image-keyboard-response","53","158879","0.0-2.0-0.17","3DQQ64TANH77AYMG87CTBOZL2UGWPG","A3HNEYFOIJWPH1","33Q5P9PUSP8QOKKNNN5S19YACNVCZX","","img/practice/S4.jpg","72","4","practice","74","false","","","",""
"null","","html-keyboard-response","54","159182","0.0-2.0-1.17","3DQQ64TANH77AYMG87CTBOZL2UGWPG","A3HNEYFOIJWPH1","33Q5P9PUSP8QOKKNNN5S19YACNVCZX","","<img src=""img/practice/S4.jpg"" width=""540"" height = ""360"">","null","","","","","","","",""
"null","","html-keyboard-response","55","159185","0.0-2.0-2.17","3DQQ64TANH77AYMG87CTBOZL2UGWPG","A3HNEYFOIJWPH1","33Q5P9PUSP8QOKKNNN5S19YACNVCZX","","","null","","","","","","","",""
"1866.3999996185303","","image-keyboard-response","56","161053","0.0-2.0-0.18","3DQQ64TANH77AYMG87CTBOZL2UGWPG","A3HNEYFOIJWPH1","33Q5P9PUSP8QOKKNNN5S19YACNVCZX","","img/practice/S2.jpg","72","2","practice","68","false","","","",""
"null","","html-keyboard-response","57","161355","0.0-2.0-1.18","3DQQ64TANH77AYMG87CTBOZL2UGWPG","A3HNEYFOIJWPH1","33Q5P9PUSP8QOKKNNN5S19YACNVCZX","","<img src=""img/practice/S2.jpg"" width=""540"" height = ""360"">","null","","","","","","","",""
"null","","html-keyboard-response","58","161358","0.0-2.0-2.18","3DQQ64TANH77AYMG87CTBOZL2UGWPG","A3HNEYFOIJWPH1","33Q5P9PUSP8QOKKNNN5S19YACNVCZX","","","null","","","","","","","",""
"839.4000000953674","","image-keyboard-response","59","162199","0.0-2.0-0.19","3DQQ64TANH77AYMG87CTBOZL2UGWPG","A3HNEYFOIJWPH1","33Q5P9PUSP8QOKKNNN5S19YACNVCZX","","img/practice/S3.jpg","72","3","practice","72","true","","","",""
"null","","html-keyboard-response","60","162503","0.0-2.0-1.19","3DQQ64TANH77AYMG87CTBOZL2UGWPG","A3HNEYFOIJWPH1","33Q5P9PUSP8QOKKNNN5S19YACNVCZX","","<img src=""img/practice/S3.jpg"" width=""540"" height = ""360"" style=""border:16px solid orange"">","null","","","","","","","",""
"null","","html-keyboard-response","61","162505","0.0-2.0-2.19","3DQQ64TANH77AYMG87CTBOZL2UGWPG","A3HNEYFOIJWPH1","33Q5P9PUSP8QOKKNNN5S19YACNVCZX","","","null","","","","","","","",""
"1515.4000000953674","","image-keyboard-response","62","164021","0.0-2.0-0.20","3DQQ64TANH77AYMG87CTBOZL2UGWPG","A3HNEYFOIJWPH1","33Q5P9PUSP8QOKKNNN5S19YACNVCZX","","img/practice/S4.jpg","74","4","practice","74","true","","","",""
"null","","html-keyboard-response","63","164323","0.0-2.0-1.20","3DQQ64TANH77AYMG87CTBOZL2UGWPG","A3HNEYFOIJWPH1","33Q5P9PUSP8QOKKNNN5S19YACNVCZX","","<img src=""img/practice/S4.jpg"" width=""540"" height = ""360"" style=""border:16px solid orange"">","null","","","","","","","",""
"null","","html-keyboard-response","64","164325","0.0-2.0-2.20","3DQQ64TANH77AYMG87CTBOZL2UGWPG","A3HNEYFOIJWPH1","33Q5P9PUSP8QOKKNNN5S19YACNVCZX","","","null","","","","","","","",""
"1176","","image-keyboard-response","65","165502","0.0-2.0-0.21","3DQQ64TANH77AYMG87CTBOZL2UGWPG","A3HNEYFOIJWPH1","33Q5P9PUSP8QOKKNNN5S19YACNVCZX","","img/practice/S3.jpg","72","3","practice","72","true","","","",""
"null","","html-keyboard-response","66","165819","0.0-2.0-1.21","3DQQ64TANH77AYMG87CTBOZL2UGWPG","A3HNEYFOIJWPH1","33Q5P9PUSP8QOKKNNN5S19YACNVCZX","","<img src=""img/practice/S3.jpg"" width=""540"" height = ""360"" style=""border:16px solid orange"">","null","","","","","","","",""
"null","","html-keyboard-response","67","165822","0.0-2.0-2.21","3DQQ64TANH77AYMG87CTBOZL2UGWPG","A3HNEYFOIJWPH1","33Q5P9PUSP8QOKKNNN5S19YACNVCZX","","","null","","","","","","","",""
"669.4000000953674","","image-keyboard-response","68","166493","0.0-2.0-0.22","3DQQ64TANH77AYMG87CTBOZL2UGWPG","A3HNEYFOIJWPH1","33Q5P9PUSP8QOKKNNN5S19YACNVCZX","","img/practice/S2.jpg","68","2","practice","68","true","","","",""
"null","","html-keyboard-response","69","166794","0.0-2.0-1.22","3DQQ64TANH77AYMG87CTBOZL2UGWPG","A3HNEYFOIJWPH1","33Q5P9PUSP8QOKKNNN5S19YACNVCZX","","<img src=""img/practice/S2.jpg"" width=""540"" height = ""360"" style=""border:16px solid orange"">","null","","","","","","","",""
"null","","html-keyboard-response","70","166797","0.0-2.0-2.22","3DQQ64TANH77AYMG87CTBOZL2UGWPG","A3HNEYFOIJWPH1","33Q5P9PUSP8QOKKNNN5S19YACNVCZX","","","null","","","","","","","",""
"703.1999998092651","","image-keyboard-response","71","167501","0.0-2.0-0.23","3DQQ64TANH77AYMG87CTBOZL2UGWPG","A3HNEYFOIJWPH1","33Q5P9PUSP8QOKKNNN5S19YACNVCZX","","img/practice/S1.jpg","83","1","practice","83","true","","","",""
"null","","html-keyboard-response","72","167815","0.0-2.0-1.23","3DQQ64TANH77AYMG87CTBOZL2UGWPG","A3HNEYFOIJWPH1","33Q5P9PUSP8QOKKNNN5S19YACNVCZX","","<img src=""img/practice/S1.jpg"" width=""540"" height = ""360"" style=""border:16px solid orange"">","null","","","","","","","",""
"null","","html-keyboard-response","73","167818","0.0-2.0-2.23","3DQQ64TANH77AYMG87CTBOZL2UGWPG","A3HNEYFOIJWPH1","33Q5P9PUSP8QOKKNNN5S19YACNVCZX","","","null","","","","","","","",""
"6836.299999713898","","instructions","74","174655","0.0-3.0","3DQQ64TANH77AYMG87CTBOZL2UGWPG","A3HNEYFOIJWPH1","33Q5P9PUSP8QOKKNNN5S19YACNVCZX","[{""page_index"":0,""viewing_time"":6836.099999904633}]","","","","","","","","","",""
"7516.800000190735","","instructions","75","182172","0.0-4.0","3DQQ64TANH77AYMG87CTBOZL2UGWPG","A3HNEYFOIJWPH1","33Q5P9PUSP8QOKKNNN5S19YACNVCZX","[{""page_index"":0,""viewing_time"":7516.5}]","","","","","","","","","",""
"1714.5","","instructions","76","183887","0.0-5.0","3DQQ64TANH77AYMG87CTBOZL2UGWPG","A3HNEYFOIJWPH1","33Q5P9PUSP8QOKKNNN5S19YACNVCZX","[{""page_index"":0,""viewing_time"":1714.3000001907349}]","","","","","","","","","",""
"1325.4000000953674","","image-keyboard-response","77","185213","0.0-6.0","3DQQ64TANH77AYMG87CTBOZL2UGWPG","A3HNEYFOIJWPH1","33Q5P9PUSP8QOKKNNN5S19YACNVCZX","","img/set1/S4.jpg","83","4","random","74","false","random,structured_normal,structured_incentive","1,2,2,3","",""
"null","","html-keyboard-response","78","185565","0.0-7.0","3DQQ64TANH77AYMG87CTBOZL2UGWPG","A3HNEYFOIJWPH1","33Q5P9PUSP8QOKKNNN5S19YACNVCZX","","<img src=""img/set1/S4.jpg"" width=""540"" height = ""360"">","null","","","","","","","",""
"null","","html-keyboard-response","79","185567","0.0-8.0","3DQQ64TANH77AYMG87CTBOZL2UGWPG","A3HNEYFOIJWPH1","33Q5P9PUSP8QOKKNNN5S19YACNVCZX","","","null","","","","","","","",""
"901.5","","image-keyboard-response","80","186469","0.0-9.0","3DQQ64TANH77AYMG87CTBOZL2UGWPG","A3HNEYFOIJWPH1","33Q5P9PUSP8QOKKNNN5S19YACNVCZX","","img/set1/S4.jpg","68","4","random","74","false","random,structured_normal,structured_incentive","1,2,2,3","",""
"null","","html-keyboard-response","81","186835","0.0-10.0","3DQQ64TANH77AYMG87CTBOZL2UGWPG","A3HNEYFOIJWPH1","33Q5P9PUSP8QOKKNNN5S19YACNVCZX","","<img src=""img/set1/S4.jpg"" width=""540"" height = ""360"">","null","","","","","","","",""
"null","","html-keyboard-response","82","186838","0.0-11.0","3DQQ64TANH77AYMG87CTBOZL2UGWPG","A3HNEYFOIJWPH1","33Q5P9PUSP8QOKKNNN5S19YACNVCZX","","","null","","","","","","","",""
"638.8999996185303","","image-keyboard-response","83","187477","0.0-12.0","3DQQ64TANH77AYMG87CTBOZL2UGWPG","A3HNEYFOIJWPH1","33Q5P9PUSP8QOKKNNN5S19YACNVCZX","","img/set1/S4.jpg","74","4","random","74","true","random,structured_normal,structured_incentive","1,2,2,3","",""
"null","","html-keyboard-response","84","187828","0.0-13.0","3DQQ64TANH77AYMG87CTBOZL2UGWPG","A3HNEYFOIJWPH1","33Q5P9PUSP8QOKKNNN5S19YACNVCZX","","<img src=""img/set1/S4.jpg"" width=""540"" height = ""360"" style=""border:16px solid orange"">","null","","","","","","","",""
"null","","html-keyboard-response","85","187831","0.0-14.0","3DQQ64TANH77AYMG87CTBOZL2UGWPG","A3HNEYFOIJWPH1","33Q5P9PUSP8QOKKNNN5S19YACNVCZX","","","null","","","","","","","",""
"1278.3000001907349","","image-keyboard-response","86","189111","0.0-15.0","3DQQ64TANH77AYMG87CTBOZL2UGWPG","A3HNEYFOIJWPH1","33Q5P9PUSP8QOKKNNN5S19YACNVCZX","","img/set1/S3.jpg","68","3","random","72","false","random,structured_normal,structured_incentive","1,2,2,3","",""
"null","","html-keyboard-response","87","189463","0.0-16.0","3DQQ64TANH77AYMG87CTBOZL2UGWPG","A3HNEYFOIJWPH1","33Q5P9PUSP8QOKKNNN5S19YACNVCZX","","<img src=""img/set1/S3.jpg"" width=""540"" height = ""360"">","null","","","","","","","",""
"null","","html-keyboard-response","88","189466","0.0-17.0","3DQQ64TANH77AYMG87CTBOZL2UGWPG","A3HNEYFOIJWPH1","33Q5P9PUSP8QOKKNNN5S19YACNVCZX","","","null","","","","","","","",""
"1010.6999998092651","","image-keyboard-response","89","190478","0.0-18.0","3DQQ64TANH77AYMG87CTBOZL2UGWPG","A3HNEYFOIJWPH1","33Q5P9PUSP8QOKKNNN5S19YACNVCZX","","img/set1/S1.jpg","83","1","random","83","true","random,structured_normal,structured_incentive","1,2,2,3","",""
"null","","html-keyboard-response","90","190831","0.0-19.0","3DQQ64TANH77AYMG87CTBOZL2UGWPG","A3HNEYFOIJWPH1","33Q5P9PUSP8QOKKNNN5S19YACNVCZX","","<img src=""img/set1/S1.jpg"" width=""540"" height = ""360"" style=""border:16px solid orange"">","null","","","","","","","",""
"null","","html-keyboard-response","91","190834","0.0-20.0","3DQQ64TANH77AYMG87CTBOZL2UGWPG","A3HNEYFOIJWPH1","33Q5P9PUSP8QOKKNNN5S19YACNVCZX","","","null","","","","","","","",""
"804.4000000953674","","image-keyboard-response","92","191640","0.0-21.0","3DQQ64TANH77AYMG87CTBOZL2UGWPG","A3HNEYFOIJWPH1","33Q5P9PUSP8QOKKNNN5S19YACNVCZX","","img/set1/S1.jpg","83","1","random","83","true","random,structured_normal,structured_incentive","1,2,2,3","",""
"null","","html-keyboard-response","93","191993","0.0-22.0","3DQQ64TANH77AYMG87CTBOZL2UGWPG","A3HNEYFOIJWPH1","33Q5P9PUSP8QOKKNNN5S19YACNVCZX","","<img src=""img/set1/S1.jpg"" width=""540"" height = ""360"" style=""border:16px solid orange"">","null","","","","","","","",""
"null","","html-keyboard-response","94","191996","0.0-23.0","3DQQ64TANH77AYMG87CTBOZL2UGWPG","A3HNEYFOIJWPH1","33Q5P9PUSP8QOKKNNN5S19YACNVCZX","","","null","","","","","","","",""
"882.3000001907349","","image-keyboard-response","95","192879","0.0-24.0","3DQQ64TANH77AYMG87CTBOZL2UGWPG","A3HNEYFOIJWPH1","33Q5P9PUSP8QOKKNNN5S19YACNVCZX","","img/set1/S4.jpg","74","4","random","74","true","random,structured_normal,structured_incentive","1,2,2,3","",""
"null","","html-keyboard-response","96","193231","0.0-25.0","3DQQ64TANH77AYMG87CTBOZL2UGWPG","A3HNEYFOIJWPH1","33Q5P9PUSP8QOKKNNN5S19YACNVCZX","","<img src=""img/set1/S4.jpg"" width=""540"" height = ""360"" style=""border:16px solid orange"">","null","","","","","","","",""
"null","","html-keyboard-response","97","193233","0.0-26.0","3DQQ64TANH77AYMG87CTBOZL2UGWPG","A3HNEYFOIJWPH1","33Q5P9PUSP8QOKKNNN5S19YACNVCZX","","","null","","","","","","","",""
"917","","image-keyboard-response","98","194150","0.0-27.0","3DQQ64TANH77AYMG87CTBOZL2UGWPG","A3HNEYFOIJWPH1","33Q5P9PUSP8QOKKNNN5S19YACNVCZX","","img/set1/S2.jpg","68","2","random","68","true","random,structured_normal,structured_incentive","1,2,2,3","",""
"null","","html-keyboard-response","99","194503","0.0-28.0","3DQQ64TANH77AYMG87CTBOZL2UGWPG","A3HNEYFOIJWPH1","33Q5P9PUSP8QOKKNNN5S19YACNVCZX","","<img src=""img/set1/S2.jpg"" width=""540"" height = ""360"" style=""border:16px solid orange"">","null","","","","","","","",""
"null","","html-keyboard-response","100","194505","0.0-29.0","3DQQ64TANH77AYMG87CTBOZL2UGWPG","A3HNEYFOIJWPH1","33Q5P9PUSP8QOKKNNN5S19YACNVCZX","","","null","","","","","","","",""
"765.8000001907349","","image-keyboard-response","101","195272","0.0-30.0","3DQQ64TANH77AYMG87CTBOZL2UGWPG","A3HNEYFOIJWPH1","33Q5P9PUSP8QOKKNNN5S19YACNVCZX","","img/set1/S3.jpg","83","3","random","72","false","random,structured_normal,structured_incentive","1,2,2,3","",""
"null","","html-keyboard-response","102","195625","0.0-31.0","3DQQ64TANH77AYMG87CTBOZL2UGWPG","A3HNEYFOIJWPH1","33Q5P9PUSP8QOKKNNN5S19YACNVCZX","","<img src=""img/set1/S3.jpg"" width=""540"" height = ""360"">","null","","","","","","","",""
"null","","html-keyboard-response","103","195627","0.0-32.0","3DQQ64TANH77AYMG87CTBOZL2UGWPG","A3HNEYFOIJWPH1","33Q5P9PUSP8QOKKNNN5S19YACNVCZX","","","null","","","","","","","",""
"898.5999999046326","","image-keyboard-response","104","196526","0.0-33.0","3DQQ64TANH77AYMG87CTBOZL2UGWPG","A3HNEYFOIJWPH1","33Q5P9PUSP8QOKKNNN5S19YACNVCZX","","img/set1/S2.jpg","68","2","random","68","true","random,structured_normal,structured_incentive","1,2,2,3","",""
"null","","html-keyboard-response","105","196877","0.0-34.0","3DQQ64TANH77AYMG87CTBOZL2UGWPG","A3HNEYFOIJWPH1","33Q5P9PUSP8QOKKNNN5S19YACNVCZX","","<img src=""img/set1/S2.jpg"" width=""540"" height = ""360"" style=""border:16px solid orange"">","null","","","","","","","",""
"null","","html-keyboard-response","106","196879","0.0-35.0","3DQQ64TANH77AYMG87CTBOZL2UGWPG","A3HNEYFOIJWPH1","33Q5P9PUSP8QOKKNNN5S19YACNVCZX","","","null","","","","","","","",""
"1109.7999997138977","","image-keyboard-response","107","197990","0.0-36.0","3DQQ64TANH77AYMG87CTBOZL2UGWPG","A3HNEYFOIJWPH1","33Q5P9PUSP8QOKKNNN5S19YACNVCZX","","img/set1/S1.jpg","83","1","random","83","true","random,structured_normal,structured_incentive","1,2,2,3","",""
"null","","html-keyboard-response","108","198342","0.0-37.0","3DQQ64TANH77AYMG87CTBOZL2UGWPG","A3HNEYFOIJWPH1","33Q5P9PUSP8QOKKNNN5S19YACNVCZX","","<img src=""img/set1/S1.jpg"" width=""540"" height = ""360"" style=""border:16px solid orange"">","null","","","","","","","",""
"null","","html-keyboard-response","109","198344","0.0-38.0","3DQQ64TANH77AYMG87CTBOZL2UGWPG","A3HNEYFOIJWPH1","33Q5P9PUSP8QOKKNNN5S19YACNVCZX","","","null","","","","","","","",""
"749","","image-keyboard-response","110","199094","0.0-39.0","3DQQ64TANH77AYMG87CTBOZL2UGWPG","A3HNEYFOIJWPH1","33Q5P9PUSP8QOKKNNN5S19YACNVCZX","","img/set1/S4.jpg","74","4","random","74","true","random,structured_normal,structured_incentive","1,2,2,3","",""
"null","","html-keyboard-response","111","199445","0.0-40.0","3DQQ64TANH77AYMG87CTBOZL2UGWPG","A3HNEYFOIJWPH1","33Q5P9PUSP8QOKKNNN5S19YACNVCZX","","<img src=""img/set1/S4.jpg"" width=""540"" height = ""360"" style=""border:16px solid orange"">","null","","","","","","","",""
"null","","html-keyboard-response","112","199447","0.0-41.0","3DQQ64TANH77AYMG87CTBOZL2UGWPG","A3HNEYFOIJWPH1","33Q5P9PUSP8QOKKNNN5S19YACNVCZX","","","null","","","","","","","",""
"1886.3000001907349","","image-keyboard-response","113","201334","0.0-42.0","3DQQ64TANH77AYMG87CTBOZL2UGWPG","A3HNEYFOIJWPH1","33Q5P9PUSP8QOKKNNN5S19YACNVCZX","","img/set1/S2.jpg","68","2","random","68","true","random,structured_normal,structured_incentive","1,2,2,3","",""
"null","","html-keyboard-response","114","201686","0.0-43.0","3DQQ64TANH77AYMG87CTBOZL2UGWPG","A3HNEYFOIJWPH1","33Q5P9PUSP8QOKKNNN5S19YACNVCZX","","<img src=""img/set1/S2.jpg"" width=""540"" height = ""360"" style=""border:16px solid orange"">","null","","","","","","","",""
"null","","html-keyboard-response","115","201689","0.0-44.0","3DQQ64TANH77AYMG87CTBOZL2UGWPG","A3HNEYFOIJWPH1","33Q5P9PUSP8QOKKNNN5S19YACNVCZX","","","null","","","","","","","",""
"804.0999999046326","","image-keyboard-response","116","202494","0.0-45.0","3DQQ64TANH77AYMG87CTBOZL2UGWPG","A3HNEYFOIJWPH1","33Q5P9PUSP8QOKKNNN5S19YACNVCZX","","img/set1/S1.jpg","83","1","random","83","true","random,structured_normal,structured_incentive","1,2,2,3","",""
"null","","html-keyboard-response","117","202846","0.0-46.0","3DQQ64TANH77AYMG87CTBOZL2UGWPG","A3HNEYFOIJWPH1","33Q5P9PUSP8QOKKNNN5S19YACNVCZX","","<img src=""img/set1/S1.jpg"" width=""540"" height = ""360"" style=""border:16px solid orange"">","null","","","","","","","",""
"null","","html-keyboard-response","118","202849","0.0-47.0","3DQQ64TANH77AYMG87CTBOZL2UGWPG","A3HNEYFOIJWPH1","33Q5P9PUSP8QOKKNNN5S19YACNVCZX","","","null","","","","","","","",""
"1050.9000000953674","","image-keyboard-response","119","203902","0.0-48.0","3DQQ64TANH77AYMG87CTBOZL2UGWPG","A3HNEYFOIJWPH1","33Q5P9PUSP8QOKKNNN5S19YACNVCZX","","img/set1/S2.jpg","68","2","random","68","true","random,structured_normal,structured_incentive","1,2,2,3","",""
"null","","html-keyboard-response","120","204260","0.0-49.0","3DQQ64TANH77AYMG87CTBOZL2UGWPG","A3HNEYFOIJWPH1","33Q5P9PUSP8QOKKNNN5S19YACNVCZX","","<img src=""img/set1/S2.jpg"" width=""540"" height = ""360"" style=""border:16px solid orange"">","null","","","","","","","",""
"null","","html-keyboard-response","121","204263","0.0-50.0","3DQQ64TANH77AYMG87CTBOZL2UGWPG","A3HNEYFOIJWPH1","33Q5P9PUSP8QOKKNNN5S19YACNVCZX","","","null","","","","","","","",""
"608.4000000953674","","image-keyboard-response","122","204872","0.0-51.0","3DQQ64TANH77AYMG87CTBOZL2UGWPG","A3HNEYFOIJWPH1","33Q5P9PUSP8QOKKNNN5S19YACNVCZX","","img/set1/S2.jpg","68","2","random","68","true","random,structured_normal,structured_incentive","1,2,2,3","",""
"null","","html-keyboard-response","123","205239","0.0-52.0","3DQQ64TANH77AYMG87CTBOZL2UGWPG","A3HNEYFOIJWPH1","33Q5P9PUSP8QOKKNNN5S19YACNVCZX","","<img src=""img/set1/S2.jpg"" width=""540"" height = ""360"" style=""border:16px solid orange"">","null","","","","","","","",""
"null","","html-keyboard-response","124","205241","0.0-53.0","3DQQ64TANH77AYMG87CTBOZL2UGWPG","A3HNEYFOIJWPH1","33Q5P9PUSP8QOKKNNN5S19YACNVCZX","","","null","","","","","","","",""
"null","","image-keyboard-response","125","207744","0.0-54.0","3DQQ64TANH77AYMG87CTBOZL2UGWPG","A3HNEYFOIJWPH1","33Q5P9PUSP8QOKKNNN5S19YACNVCZX","","img/set1/S3.jpg","null","3","random","72","false","random,structured_normal,structured_incentive","1,2,2,3","",""
"null","","html-keyboard-response","126","208097","0.0-55.0","3DQQ64TANH77AYMG87CTBOZL2UGWPG","A3HNEYFOIJWPH1","33Q5P9PUSP8QOKKNNN5S19YACNVCZX","","<img src=""img/set1/S3.jpg"" width=""540"" height = ""360"">","null","","","","","","","",""
"null","","html-keyboard-response","127","208102","0.0-56.0","3DQQ64TANH77AYMG87CTBOZL2UGWPG","A3HNEYFOIJWPH1","33Q5P9PUSP8QOKKNNN5S19YACNVCZX","","","null","","","","","","","",""
"110.7999997138977","","image-keyboard-response","128","208214","0.0-57.0","3DQQ64TANH77AYMG87CTBOZL2UGWPG","A3HNEYFOIJWPH1","33Q5P9PUSP8QOKKNNN5S19YACNVCZX","","img/set1/S2.jpg","72","2","random","68","false","random,structured_normal,structured_incentive","1,2,2,3","",""
"null","","html-keyboard-response","129","208565","0.0-58.0","3DQQ64TANH77AYMG87CTBOZL2UGWPG","A3HNEYFOIJWPH1","33Q5P9PUSP8QOKKNNN5S19YACNVCZX","","<img src=""img/set1/S2.jpg"" width=""540"" height = ""360"">","null","","","","","","","",""
"null","","html-keyboard-response","130","208567","0.0-59.0","3DQQ64TANH77AYMG87CTBOZL2UGWPG","A3HNEYFOIJWPH1","33Q5P9PUSP8QOKKNNN5S19YACNVCZX","","","null","","","","","","","",""
"770.2000002861023","","image-keyboard-response","131","209339","0.0-60.0","3DQQ64TANH77AYMG87CTBOZL2UGWPG","A3HNEYFOIJWPH1","33Q5P9PUSP8QOKKNNN5S19YACNVCZX","","img/set1/S2.jpg","74","2","random","68","false","random,structured_normal,structured_incentive","1,2,2,3","",""
"null","","html-keyboard-response","132","209692","0.0-61.0","3DQQ64TANH77AYMG87CTBOZL2UGWPG","A3HNEYFOIJWPH1","33Q5P9PUSP8QOKKNNN5S19YACNVCZX","","<img src=""img/set1/S2.jpg"" width=""540"" height = ""360"">","null","","","","","","","",""
"null","","html-keyboard-response","133","209695","0.0-62.0","3DQQ64TANH77AYMG87CTBOZL2UGWPG","A3HNEYFOIJWPH1","33Q5P9PUSP8QOKKNNN5S19YACNVCZX","","","null","","","","","","","",""
"1100.8000001907349","","image-keyboard-response","134","210798","0.0-63.0","3DQQ64TANH77AYMG87CTBOZL2UGWPG","A3HNEYFOIJWPH1","33Q5P9PUSP8QOKKNNN5S19YACNVCZX","","img/set1/S4.jpg","72","4","random","74","false","random,structured_normal,structured_incentive","1,2,2,3","",""
"null","","html-keyboard-response","135","211158","0.0-64.0","3DQQ64TANH77AYMG87CTBOZL2UGWPG","A3HNEYFOIJWPH1","33Q5P9PUSP8QOKKNNN5S19YACNVCZX","","<img src=""img/set1/S4.jpg"" width=""540"" height = ""360"">","null","","","","","","","",""
"null","","html-keyboard-response","136","211161","0.0-65.0","3DQQ64TANH77AYMG87CTBOZL2UGWPG","A3HNEYFOIJWPH1","33Q5P9PUSP8QOKKNNN5S19YACNVCZX","","","null","","","","","","","",""
"1099.5999999046326","","image-keyboard-response","137","212262","0.0-66.0","3DQQ64TANH77AYMG87CTBOZL2UGWPG","A3HNEYFOIJWPH1","33Q5P9PUSP8QOKKNNN5S19YACNVCZX","","img/set1/S2.jpg","74","2","random","68","false","random,structured_normal,structured_incentive","1,2,2,3","",""
"null","","html-keyboard-response","138","212614","0.0-67.0","3DQQ64TANH77AYMG87CTBOZL2UGWPG","A3HNEYFOIJWPH1","33Q5P9PUSP8QOKKNNN5S19YACNVCZX","","<img src=""img/set1/S2.jpg"" width=""540"" height = ""360"">","null","","","","","","","",""
"null","","html-keyboard-response","139","212617","0.0-68.0","3DQQ64TANH77AYMG87CTBOZL2UGWPG","A3HNEYFOIJWPH1","33Q5P9PUSP8QOKKNNN5S19YACNVCZX","","","null","","","","","","","",""
"1444.9000000953674","","image-keyboard-response","140","214063","0.0-69.0","3DQQ64TANH77AYMG87CTBOZL2UGWPG","A3HNEYFOIJWPH1","33Q5P9PUSP8QOKKNNN5S19YACNVCZX","","img/set1/S3.jpg","74","3","random","72","false","random,structured_normal,structured_incentive","1,2,2,3","",""
"null","","html-keyboard-response","141","214414","0.0-70.0","3DQQ64TANH77AYMG87CTBOZL2UGWPG","A3HNEYFOIJWPH1","33Q5P9PUSP8QOKKNNN5S19YACNVCZX","","<img src=""img/set1/S3.jpg"" width=""540"" height = ""360"">","null","","","","","","","",""
"null","","html-keyboard-response","142","214416","0.0-71.0","3DQQ64TANH77AYMG87CTBOZL2UGWPG","A3HNEYFOIJWPH1","33Q5P9PUSP8QOKKNNN5S19YACNVCZX","","","null","","","","","","","",""
"1676.6999998092651","","image-keyboard-response","143","216094","0.0-72.0","3DQQ64TANH77AYMG87CTBOZL2UGWPG","A3HNEYFOIJWPH1","33Q5P9PUSP8QOKKNNN5S19YACNVCZX","","img/set1/S4.jpg","74","4","random","74","true","random,structured_normal,structured_incentive","1,2,2,3","",""
"null","","html-keyboard-response","144","216445","0.0-73.0","3DQQ64TANH77AYMG87CTBOZL2UGWPG","A3HNEYFOIJWPH1","33Q5P9PUSP8QOKKNNN5S19YACNVCZX","","<img src=""img/set1/S4.jpg"" width=""540"" height = ""360"" style=""border:16px solid orange"">","null","","","","","","","",""
"null","","html-keyboard-response","145","216448","0.0-74.0","3DQQ64TANH77AYMG87CTBOZL2UGWPG","A3HNEYFOIJWPH1","33Q5P9PUSP8QOKKNNN5S19YACNVCZX","","","null","","","","","","","",""
"1924.0999999046326","","image-keyboard-response","146","218374","0.0-75.0","3DQQ64TANH77AYMG87CTBOZL2UGWPG","A3HNEYFOIJWPH1","33Q5P9PUSP8QOKKNNN5S19YACNVCZX","","img/set1/S3.jpg","68","3","random","72","false","random,structured_normal,structured_incentive","1,2,2,3","",""
"null","","html-keyboard-response","147","218725","0.0-76.0","3DQQ64TANH77AYMG87CTBOZL2UGWPG","A3HNEYFOIJWPH1","33Q5P9PUSP8QOKKNNN5S19YACNVCZX","","<img src=""img/set1/S3.jpg"" width=""540"" height = ""360"">","null","","","","","","","",""
"null","","html-keyboard-response","148","218728","0.0-77.0","3DQQ64TANH77AYMG87CTBOZL2UGWPG","A3HNEYFOIJWPH1","33Q5P9PUSP8QOKKNNN5S19YACNVCZX","","","null","","","","","","","",""
"901.4000000953674","","image-keyboard-response","149","219630","0.0-78.0","3DQQ64TANH77AYMG87CTBOZL2UGWPG","A3HNEYFOIJWPH1","33Q5P9PUSP8QOKKNNN5S19YACNVCZX","","img/set1/S4.jpg","74","4","random","74","true","random,structured_normal,structured_incentive","1,2,2,3","",""
"null","","html-keyboard-response","150","219981","0.0-79.0","3DQQ64TANH77AYMG87CTBOZL2UGWPG","A3HNEYFOIJWPH1","33Q5P9PUSP8QOKKNNN5S19YACNVCZX","","<img src=""img/set1/S4.jpg"" width=""540"" height = ""360"" style=""border:16px solid orange"">","null","","","","","","","",""
"null","","html-keyboard-response","151","219983","0.0-80.0","3DQQ64TANH77AYMG87CTBOZL2UGWPG","A3HNEYFOIJWPH1","33Q5P9PUSP8QOKKNNN5S19YACNVCZX","","","null","","","","","","","",""
"1320","","image-keyboard-response","152","221304","0.0-81.0","3DQQ64TANH77AYMG87CTBOZL2UGWPG","A3HNEYFOIJWPH1","33Q5P9PUSP8QOKKNNN5S19YACNVCZX","","img/set1/S2.jpg","68","2","random","68","true","random,structured_normal,structured_incentive","1,2,2,3","",""
"null","","html-keyboard-response","153","221657","0.0-82.0","3DQQ64TANH77AYMG87CTBOZL2UGWPG","A3HNEYFOIJWPH1","33Q5P9PUSP8QOKKNNN5S19YACNVCZX","","<img src=""img/set1/S2.jpg"" width=""540"" height = ""360"" style=""border:16px solid orange"">","null","","","","","","","",""
"null","","html-keyboard-response","154","221658","0.0-83.0","3DQQ64TANH77AYMG87CTBOZL2UGWPG","A3HNEYFOIJWPH1","33Q5P9PUSP8QOKKNNN5S19YACNVCZX","","","null","","","","","","","",""
"1044.0999999046326","","image-keyboard-response","155","222703","0.0-84.0","3DQQ64TANH77AYMG87CTBOZL2UGWPG","A3HNEYFOIJWPH1","33Q5P9PUSP8QOKKNNN5S19YACNVCZX","","img/set1/S4.jpg","72","4","random","74","false","random,structured_normal,structured_incentive","1,2,2,3","",""
"null","","html-keyboard-response","156","223057","0.0-85.0","3DQQ64TANH77AYMG87CTBOZL2UGWPG","A3HNEYFOIJWPH1","33Q5P9PUSP8QOKKNNN5S19YACNVCZX","","<img src=""img/set1/S4.jpg"" width=""540"" height = ""360"">","null","","","","","","","",""
"null","","html-keyboard-response","157","223059","0.0-86.0","3DQQ64TANH77AYMG87CTBOZL2UGWPG","A3HNEYFOIJWPH1","33Q5P9PUSP8QOKKNNN5S19YACNVCZX","","","null","","","","","","","",""
"897.9000000953674","","image-keyboard-response","158","223958","0.0-87.0","3DQQ64TANH77AYMG87CTBOZL2UGWPG","A3HNEYFOIJWPH1","33Q5P9PUSP8QOKKNNN5S19YACNVCZX","","img/set1/S1.jpg","83","1","random","83","true","random,structured_normal,structured_incentive","1,2,2,3","",""
"null","","html-keyboard-response","159","224310","0.0-88.0","3DQQ64TANH77AYMG87CTBOZL2UGWPG","A3HNEYFOIJWPH1","33Q5P9PUSP8QOKKNNN5S19YACNVCZX","","<img src=""img/set1/S1.jpg"" width=""540"" height = ""360"" style=""border:16px solid orange"">","null","","","","","","","",""
"null","","html-keyboard-response","160","224313","0.0-89.0","3DQQ64TANH77AYMG87CTBOZL2UGWPG","A3HNEYFOIJWPH1","33Q5P9PUSP8QOKKNNN5S19YACNVCZX","","","null","","","","","","","",""
"1069.2999997138977","","image-keyboard-response","161","225383","0.0-90.0","3DQQ64TANH77AYMG87CTBOZL2UGWPG","A3HNEYFOIJWPH1","33Q5P9PUSP8QOKKNNN5S19YACNVCZX","","img/set1/S2.jpg","72","2","random","68","false","random,structured_normal,structured_incentive","1,2,2,3","",""
"null","","html-keyboard-response","162","225734","0.0-91.0","3DQQ64TANH77AYMG87CTBOZL2UGWPG","A3HNEYFOIJWPH1","33Q5P9PUSP8QOKKNNN5S19YACNVCZX","","<img src=""img/set1/S2.jpg"" width=""540"" height = ""360"">","null","","","","","","","",""
"null","","html-keyboard-response","163","225737","0.0-92.0","3DQQ64TANH77AYMG87CTBOZL2UGWPG","A3HNEYFOIJWPH1","33Q5P9PUSP8QOKKNNN5S19YACNVCZX","","","null","","","","","","","",""
"468.09999990463257","","image-keyboard-response","164","226206","0.0-93.0","3DQQ64TANH77AYMG87CTBOZL2UGWPG","A3HNEYFOIJWPH1","33Q5P9PUSP8QOKKNNN5S19YACNVCZX","","img/set1/S2.jpg","68","2","random","68","true","random,structured_normal,structured_incentive","1,2,2,3","",""
"null","","html-keyboard-response","165","226558","0.0-94.0","3DQQ64TANH77AYMG87CTBOZL2UGWPG","A3HNEYFOIJWPH1","33Q5P9PUSP8QOKKNNN5S19YACNVCZX","","<img src=""img/set1/S2.jpg"" width=""540"" height = ""360"" style=""border:16px solid orange"">","null","","","","","","","",""
"null","","html-keyboard-response","166","226560","0.0-95.0","3DQQ64TANH77AYMG87CTBOZL2UGWPG","A3HNEYFOIJWPH1","33Q5P9PUSP8QOKKNNN5S19YACNVCZX","","","null","","","","","","","",""
"1815.5","","image-keyboard-response","167","228376","0.0-96.0","3DQQ64TANH77AYMG87CTBOZL2UGWPG","A3HNEYFOIJWPH1","33Q5P9PUSP8QOKKNNN5S19YACNVCZX","","img/set1/S4.jpg","74","4","random","74","true","random,structured_normal,structured_incentive","1,2,2,3","",""
"null","","html-keyboard-response","168","228730","0.0-97.0","3DQQ64TANH77AYMG87CTBOZL2UGWPG","A3HNEYFOIJWPH1","33Q5P9PUSP8QOKKNNN5S19YACNVCZX","","<img src=""img/set1/S4.jpg"" width=""540"" height = ""360"" style=""border:16px solid orange"">","null","","","","","","","",""
"null","","html-keyboard-response","169","228732","0.0-98.0","3DQQ64TANH77AYMG87CTBOZL2UGWPG","A3HNEYFOIJWPH1","33Q5P9PUSP8QOKKNNN5S19YACNVCZX","","","null","","","","","","","",""
"1689.1000003814697","","image-keyboard-response","170","230422","0.0-99.0","3DQQ64TANH77AYMG87CTBOZL2UGWPG","A3HNEYFOIJWPH1","33Q5P9PUSP8QOKKNNN5S19YACNVCZX","","img/set1/S3.jpg","72","3","random","72","true","random,structured_normal,structured_incentive","1,2,2,3","",""
"null","","html-keyboard-response","171","230773","0.0-100.0","3DQQ64TANH77AYMG87CTBOZL2UGWPG","A3HNEYFOIJWPH1","33Q5P9PUSP8QOKKNNN5S19YACNVCZX","","<img src=""img/set1/S3.jpg"" width=""540"" height = ""360"" style=""border:16px solid orange"">","null","","","","","","","",""
"null","","html-keyboard-response","172","230776","0.0-101.0","3DQQ64TANH77AYMG87CTBOZL2UGWPG","A3HNEYFOIJWPH1","33Q5P9PUSP8QOKKNNN5S19YACNVCZX","","","null","","","","","","","",""
"1454.9000000953674","","image-keyboard-response","173","232232","0.0-102.0","3DQQ64TANH77AYMG87CTBOZL2UGWPG","A3HNEYFOIJWPH1","33Q5P9PUSP8QOKKNNN5S19YACNVCZX","","img/set1/S2.jpg","74","2","random","68","false","random,structured_normal,structured_incentive","1,2,2,3","",""
"null","","html-keyboard-response","174","232585","0.0-103.0","3DQQ64TANH77AYMG87CTBOZL2UGWPG","A3HNEYFOIJWPH1","33Q5P9PUSP8QOKKNNN5S19YACNVCZX","","<img src=""img/set1/S2.jpg"" width=""540"" height = ""360"">","null","","","","","","","",""
"null","","html-keyboard-response","175","232587","0.0-104.0","3DQQ64TANH77AYMG87CTBOZL2UGWPG","A3HNEYFOIJWPH1","33Q5P9PUSP8QOKKNNN5S19YACNVCZX","","","null","","","","","","","",""
"555","","image-keyboard-response","176","233143","0.0-105.0","3DQQ64TANH77AYMG87CTBOZL2UGWPG","A3HNEYFOIJWPH1","33Q5P9PUSP8QOKKNNN5S19YACNVCZX","","img/set1/S2.jpg","68","2","random","68","true","random,structured_normal,structured_incentive","1,2,2,3","",""
"null","","html-keyboard-response","177","233495","0.0-106.0","3DQQ64TANH77AYMG87CTBOZL2UGWPG","A3HNEYFOIJWPH1","33Q5P9PUSP8QOKKNNN5S19YACNVCZX","","<img src=""img/set1/S2.jpg"" width=""540"" height = ""360"" style=""border:16px solid orange"">","null","","","","","","","",""
"null","","html-keyboard-response","178","233498","0.0-107.0","3DQQ64TANH77AYMG87CTBOZL2UGWPG","A3HNEYFOIJWPH1","33Q5P9PUSP8QOKKNNN5S19YACNVCZX","","","null","","","","","","","",""
"635.4000000953674","","image-keyboard-response","179","234134","0.0-108.0","3DQQ64TANH77AYMG87CTBOZL2UGWPG","A3HNEYFOIJWPH1","33Q5P9PUSP8QOKKNNN5S19YACNVCZX","","img/set1/S1.jpg","83","1","random","83","true","random,structured_normal,structured_incentive","1,2,2,3","",""
"null","","html-keyboard-response","180","234486","0.0-109.0","3DQQ64TANH77AYMG87CTBOZL2UGWPG","A3HNEYFOIJWPH1","33Q5P9PUSP8QOKKNNN5S19YACNVCZX","","<img src=""img/set1/S1.jpg"" width=""540"" height = ""360"" style=""border:16px solid orange"">","null","","","","","","","",""
"null","","html-keyboard-response","181","234489","0.0-110.0","3DQQ64TANH77AYMG87CTBOZL2UGWPG","A3HNEYFOIJWPH1","33Q5P9PUSP8QOKKNNN5S19YACNVCZX","","","null","","","","","","","",""
"563.9000000953674","","image-keyboard-response","182","235054","0.0-111.0","3DQQ64TANH77AYMG87CTBOZL2UGWPG","A3HNEYFOIJWPH1","33Q5P9PUSP8QOKKNNN5S19YACNVCZX","","img/set1/S1.jpg","83","1","random","83","true","random,structured_normal,structured_incentive","1,2,2,3","",""
"null","","html-keyboard-response","183","235406","0.0-112.0","3DQQ64TANH77AYMG87CTBOZL2UGWPG","A3HNEYFOIJWPH1","33Q5P9PUSP8QOKKNNN5S19YACNVCZX","","<img src=""img/set1/S1.jpg"" width=""540"" height = ""360"" style=""border:16px solid orange"">","null","","","","","","","",""
"null","","html-keyboard-response","184","235409","0.0-113.0","3DQQ64TANH77AYMG87CTBOZL2UGWPG","A3HNEYFOIJWPH1","33Q5P9PUSP8QOKKNNN5S19YACNVCZX","","","null","","","","","","","",""
"1036.5","","image-keyboard-response","185","236446","0.0-114.0","3DQQ64TANH77AYMG87CTBOZL2UGWPG","A3HNEYFOIJWPH1","33Q5P9PUSP8QOKKNNN5S19YACNVCZX","","img/set1/S3.jpg","74","3","random","72","false","random,structured_normal,structured_incentive","1,2,2,3","",""
"null","","html-keyboard-response","186","236797","0.0-115.0","3DQQ64TANH77AYMG87CTBOZL2UGWPG","A3HNEYFOIJWPH1","33Q5P9PUSP8QOKKNNN5S19YACNVCZX","","<img src=""img/set1/S3.jpg"" width=""540"" height = ""360"">","null","","","","","","","",""
"null","","html-keyboard-response","187","236799","0.0-116.0","3DQQ64TANH77AYMG87CTBOZL2UGWPG","A3HNEYFOIJWPH1","33Q5P9PUSP8QOKKNNN5S19YACNVCZX","","","null","","","","","","","",""
"1311.5","","image-keyboard-response","188","238112","0.0-117.0","3DQQ64TANH77AYMG87CTBOZL2UGWPG","A3HNEYFOIJWPH1","33Q5P9PUSP8QOKKNNN5S19YACNVCZX","","img/set1/S3.jpg","72","3","random","72","true","random,structured_normal,structured_incentive","1,2,2,3","",""
"null","","html-keyboard-response","189","238464","0.0-118.0","3DQQ64TANH77AYMG87CTBOZL2UGWPG","A3HNEYFOIJWPH1","33Q5P9PUSP8QOKKNNN5S19YACNVCZX","","<img src=""img/set1/S3.jpg"" width=""540"" height = ""360"" style=""border:16px solid orange"">","null","","","","","","","",""
"null","","html-keyboard-response","190","238467","0.0-119.0","3DQQ64TANH77AYMG87CTBOZL2UGWPG","A3HNEYFOIJWPH1","33Q5P9PUSP8QOKKNNN5S19YACNVCZX","","","null","","","","","","","",""
"null","","image-keyboard-response","191","240970","0.0-120.0","3DQQ64TANH77AYMG87CTBOZL2UGWPG","A3HNEYFOIJWPH1","33Q5P9PUSP8QOKKNNN5S19YACNVCZX","","img/set1/S2.jpg","null","2","random","68","false","random,structured_normal,structured_incentive","1,2,2,3","",""
"null","","html-keyboard-response","192","241323","0.0-121.0","3DQQ64TANH77AYMG87CTBOZL2UGWPG","A3HNEYFOIJWPH1","33Q5P9PUSP8QOKKNNN5S19YACNVCZX","","<img src=""img/set1/S2.jpg"" width=""540"" height = ""360"">","null","","","","","","","",""
"null","","html-keyboard-response","193","241330","0.0-122.0","3DQQ64TANH77AYMG87CTBOZL2UGWPG","A3HNEYFOIJWPH1","33Q5P9PUSP8QOKKNNN5S19YACNVCZX","","","null","","","","","","","",""
"810.7999997138977","","image-keyboard-response","194","242142","0.0-123.0","3DQQ64TANH77AYMG87CTBOZL2UGWPG","A3HNEYFOIJWPH1","33Q5P9PUSP8QOKKNNN5S19YACNVCZX","","img/set1/S2.jpg","74","2","random","68","false","random,structured_normal,structured_incentive","1,2,2,3","",""
"null","","html-keyboard-response","195","242495","0.0-124.0","3DQQ64TANH77AYMG87CTBOZL2UGWPG","A3HNEYFOIJWPH1","33Q5P9PUSP8QOKKNNN5S19YACNVCZX","","<img src=""img/set1/S2.jpg"" width=""540"" height = ""360"">","null","","","","","","","",""
"null","","html-keyboard-response","196","242498","0.0-125.0","3DQQ64TANH77AYMG87CTBOZL2UGWPG","A3HNEYFOIJWPH1","33Q5P9PUSP8QOKKNNN5S19YACNVCZX","","","null","","","","","","","",""
"842.0999999046326","","image-keyboard-response","197","243342","0.0-126.0","3DQQ64TANH77AYMG87CTBOZL2UGWPG","A3HNEYFOIJWPH1","33Q5P9PUSP8QOKKNNN5S19YACNVCZX","","img/set1/S2.jpg","68","2","random","68","true","random,structured_normal,structured_incentive","1,2,2,3","",""
"null","","html-keyboard-response","198","243693","0.0-127.0","3DQQ64TANH77AYMG87CTBOZL2UGWPG","A3HNEYFOIJWPH1","33Q5P9PUSP8QOKKNNN5S19YACNVCZX","","<img src=""img/set1/S2.jpg"" width=""540"" height = ""360"" style=""border:16px solid orange"">","null","","","","","","","",""
"null","","html-keyboard-response","199","243695","0.0-128.0","3DQQ64TANH77AYMG87CTBOZL2UGWPG","A3HNEYFOIJWPH1","33Q5P9PUSP8QOKKNNN5S19YACNVCZX","","","null","","","","","","","",""
"694.2000002861023","","image-keyboard-response","200","244390","0.0-129.0","3DQQ64TANH77AYMG87CTBOZL2UGWPG","A3HNEYFOIJWPH1","33Q5P9PUSP8QOKKNNN5S19YACNVCZX","","img/set1/S1.jpg","83","1","random","83","true","random,structured_normal,structured_incentive","1,2,2,3","",""
"null","","html-keyboard-response","201","244741","0.0-130.0","3DQQ64TANH77AYMG87CTBOZL2UGWPG","A3HNEYFOIJWPH1","33Q5P9PUSP8QOKKNNN5S19YACNVCZX","","<img src=""img/set1/S1.jpg"" width=""540"" height = ""360"" style=""border:16px solid orange"">","null","","","","","","","",""
"null","","html-keyboard-response","202","244744","0.0-131.0","3DQQ64TANH77AYMG87CTBOZL2UGWPG","A3HNEYFOIJWPH1","33Q5P9PUSP8QOKKNNN5S19YACNVCZX","","","null","","","","","","","",""
"429","","image-keyboard-response","203","245174","0.0-132.0","3DQQ64TANH77AYMG87CTBOZL2UGWPG","A3HNEYFOIJWPH1","33Q5P9PUSP8QOKKNNN5S19YACNVCZX","","img/set1/S1.jpg","83","1","random","83","true","random,structured_normal,structured_incentive","1,2,2,3","",""
"null","","html-keyboard-response","204","245525","0.0-133.0","3DQQ64TANH77AYMG87CTBOZL2UGWPG","A3HNEYFOIJWPH1","33Q5P9PUSP8QOKKNNN5S19YACNVCZX","","<img src=""img/set1/S1.jpg"" width=""540"" height = ""360"" style=""border:16px solid orange"">","null","","","","","","","",""
"null","","html-keyboard-response","205","245528","0.0-134.0","3DQQ64TANH77AYMG87CTBOZL2UGWPG","A3HNEYFOIJWPH1","33Q5P9PUSP8QOKKNNN5S19YACNVCZX","","","null","","","","","","","",""
"1168.4000000953674","","image-keyboard-response","206","246697","0.0-135.0","3DQQ64TANH77AYMG87CTBOZL2UGWPG","A3HNEYFOIJWPH1","33Q5P9PUSP8QOKKNNN5S19YACNVCZX","","img/set1/S3.jpg","72","3","random","72","true","random,structured_normal,structured_incentive","1,2,2,3","",""
"null","","html-keyboard-response","207","247051","0.0-136.0","3DQQ64TANH77AYMG87CTBOZL2UGWPG","A3HNEYFOIJWPH1","33Q5P9PUSP8QOKKNNN5S19YACNVCZX","","<img src=""img/set1/S3.jpg"" width=""540"" height = ""360"" style=""border:16px solid orange"">","null","","","","","","","",""
"null","","html-keyboard-response","208","247053","0.0-137.0","3DQQ64TANH77AYMG87CTBOZL2UGWPG","A3HNEYFOIJWPH1","33Q5P9PUSP8QOKKNNN5S19YACNVCZX","","","null","","","","","","","",""
"1024.6999998092651","","image-keyboard-response","209","248078","0.0-138.0","3DQQ64TANH77AYMG87CTBOZL2UGWPG","A3HNEYFOIJWPH1","33Q5P9PUSP8QOKKNNN5S19YACNVCZX","","img/set1/S1.jpg","83","1","random","83","true","random,structured_normal,structured_incentive","1,2,2,3","",""
"null","","html-keyboard-response","210","248429","0.0-139.0","3DQQ64TANH77AYMG87CTBOZL2UGWPG","A3HNEYFOIJWPH1","33Q5P9PUSP8QOKKNNN5S19YACNVCZX","","<img src=""img/set1/S1.jpg"" width=""540"" height = ""360"" style=""border:16px solid orange"">","null","","","","","","","",""
"null","","html-keyboard-response","211","248432","0.0-140.0","3DQQ64TANH77AYMG87CTBOZL2UGWPG","A3HNEYFOIJWPH1","33Q5P9PUSP8QOKKNNN5S19YACNVCZX","","","null","","","","","","","",""
"509.59999990463257","","image-keyboard-response","212","248942","0.0-141.0","3DQQ64TANH77AYMG87CTBOZL2UGWPG","A3HNEYFOIJWPH1","33Q5P9PUSP8QOKKNNN5S19YACNVCZX","","img/set1/S1.jpg","83","1","random","83","true","random,structured_normal,structured_incentive","1,2,2,3","",""
"null","","html-keyboard-response","213","249294","0.0-142.0","3DQQ64TANH77AYMG87CTBOZL2UGWPG","A3HNEYFOIJWPH1","33Q5P9PUSP8QOKKNNN5S19YACNVCZX","","<img src=""img/set1/S1.jpg"" width=""540"" height = ""360"" style=""border:16px solid orange"">","null","","","","","","","",""
"null","","html-keyboard-response","214","249297","0.0-143.0","3DQQ64TANH77AYMG87CTBOZL2UGWPG","A3HNEYFOIJWPH1","33Q5P9PUSP8QOKKNNN5S19YACNVCZX","","","null","","","","","","","",""
"1877.3000001907349","","image-keyboard-response","215","251175","0.0-144.0","3DQQ64TANH77AYMG87CTBOZL2UGWPG","A3HNEYFOIJWPH1","33Q5P9PUSP8QOKKNNN5S19YACNVCZX","","img/set1/S2.jpg","72","2","random","68","false","random,structured_normal,structured_incentive","1,2,2,3","",""
"null","","html-keyboard-response","216","251527","0.0-145.0","3DQQ64TANH77AYMG87CTBOZL2UGWPG","A3HNEYFOIJWPH1","33Q5P9PUSP8QOKKNNN5S19YACNVCZX","","<img src=""img/set1/S2.jpg"" width=""540"" height = ""360"">","null","","","","","","","",""
"null","","html-keyboard-response","217","251530","0.0-146.0","3DQQ64TANH77AYMG87CTBOZL2UGWPG","A3HNEYFOIJWPH1","33Q5P9PUSP8QOKKNNN5S19YACNVCZX","","","null","","","","","","","",""
"842.8999996185303","","image-keyboard-response","218","252375","0.0-147.0","3DQQ64TANH77AYMG87CTBOZL2UGWPG","A3HNEYFOIJWPH1","33Q5P9PUSP8QOKKNNN5S19YACNVCZX","","img/set1/S1.jpg","83","1","random","83","true","random,structured_normal,structured_incentive","1,2,2,3","",""
"null","","html-keyboard-response","219","252727","0.0-148.0","3DQQ64TANH77AYMG87CTBOZL2UGWPG","A3HNEYFOIJWPH1","33Q5P9PUSP8QOKKNNN5S19YACNVCZX","","<img src=""img/set1/S1.jpg"" width=""540"" height = ""360"" style=""border:16px solid orange"">","null","","","","","","","",""
"null","","html-keyboard-response","220","252728","0.0-149.0","3DQQ64TANH77AYMG87CTBOZL2UGWPG","A3HNEYFOIJWPH1","33Q5P9PUSP8QOKKNNN5S19YACNVCZX","","","null","","","","","","","",""
"1260.4000000953674","","image-keyboard-response","221","253990","0.0-150.0","3DQQ64TANH77AYMG87CTBOZL2UGWPG","A3HNEYFOIJWPH1","33Q5P9PUSP8QOKKNNN5S19YACNVCZX","","img/set1/S3.jpg","72","3","random","72","true","random,structured_normal,structured_incentive","1,2,2,3","",""
"null","","html-keyboard-response","222","254342","0.0-151.0","3DQQ64TANH77AYMG87CTBOZL2UGWPG","A3HNEYFOIJWPH1","33Q5P9PUSP8QOKKNNN5S19YACNVCZX","","<img src=""img/set1/S3.jpg"" width=""540"" height = ""360"" style=""border:16px solid orange"">","null","","","","","","","",""
"null","","html-keyboard-response","223","254344","0.0-152.0","3DQQ64TANH77AYMG87CTBOZL2UGWPG","A3HNEYFOIJWPH1","33Q5P9PUSP8QOKKNNN5S19YACNVCZX","","","null","","","","","","","",""
"1321.4000000953674","","image-keyboard-response","224","255667","0.0-153.0","3DQQ64TANH77AYMG87CTBOZL2UGWPG","A3HNEYFOIJWPH1","33Q5P9PUSP8QOKKNNN5S19YACNVCZX","","img/set1/S2.jpg","68","2","random","68","true","random,structured_normal,structured_incentive","1,2,2,3","",""
"null","","html-keyboard-response","225","256019","0.0-154.0","3DQQ64TANH77AYMG87CTBOZL2UGWPG","A3HNEYFOIJWPH1","33Q5P9PUSP8QOKKNNN5S19YACNVCZX","","<img src=""img/set1/S2.jpg"" width=""540"" height = ""360"" style=""border:16px solid orange"">","null","","","","","","","",""
"null","","html-keyboard-response","226","256021","0.0-155.0","3DQQ64TANH77AYMG87CTBOZL2UGWPG","A3HNEYFOIJWPH1","33Q5P9PUSP8QOKKNNN5S19YACNVCZX","","","null","","","","","","","",""
"442.5","","image-keyboard-response","227","256465","0.0-156.0","3DQQ64TANH77AYMG87CTBOZL2UGWPG","A3HNEYFOIJWPH1","33Q5P9PUSP8QOKKNNN5S19YACNVCZX","","img/set1/S1.jpg","83","1","random","83","true","random,structured_normal,structured_incentive","1,2,2,3","",""
"null","","html-keyboard-response","228","256818","0.0-157.0","3DQQ64TANH77AYMG87CTBOZL2UGWPG","A3HNEYFOIJWPH1","33Q5P9PUSP8QOKKNNN5S19YACNVCZX","","<img src=""img/set1/S1.jpg"" width=""540"" height = ""360"" style=""border:16px solid orange"">","null","","","","","","","",""
"null","","html-keyboard-response","229","256821","0.0-158.0","3DQQ64TANH77AYMG87CTBOZL2UGWPG","A3HNEYFOIJWPH1","33Q5P9PUSP8QOKKNNN5S19YACNVCZX","","","null","","","","","","","",""
"536.1999998092651","","image-keyboard-response","230","257358","0.0-159.0","3DQQ64TANH77AYMG87CTBOZL2UGWPG","A3HNEYFOIJWPH1","33Q5P9PUSP8QOKKNNN5S19YACNVCZX","","img/set1/S1.jpg","83","1","random","83","true","random,structured_normal,structured_incentive","1,2,2,3","",""
"null","","html-keyboard-response","231","257710","0.0-160.0","3DQQ64TANH77AYMG87CTBOZL2UGWPG","A3HNEYFOIJWPH1","33Q5P9PUSP8QOKKNNN5S19YACNVCZX","","<img src=""img/set1/S1.jpg"" width=""540"" height = ""360"" style=""border:16px solid orange"">","null","","","","","","","",""
"null","","html-keyboard-response","232","257713","0.0-161.0","3DQQ64TANH77AYMG87CTBOZL2UGWPG","A3HNEYFOIJWPH1","33Q5P9PUSP8QOKKNNN5S19YACNVCZX","","","null","","","","","","","",""
"null","","image-keyboard-response","233","260214","0.0-162.0","3DQQ64TANH77AYMG87CTBOZL2UGWPG","A3HNEYFOIJWPH1","33Q5P9PUSP8QOKKNNN5S19YACNVCZX","","img/set1/S3.jpg","null","3","random","72","false","random,structured_normal,structured_incentive","1,2,2,3","",""
"null","","html-keyboard-response","234","260566","0.0-163.0","3DQQ64TANH77AYMG87CTBOZL2UGWPG","A3HNEYFOIJWPH1","33Q5P9PUSP8QOKKNNN5S19YACNVCZX","","<img src=""img/set1/S3.jpg"" width=""540"" height = ""360"">","null","","","","","","","",""
"null","","html-keyboard-response","235","260571","0.0-164.0","3DQQ64TANH77AYMG87CTBOZL2UGWPG","A3HNEYFOIJWPH1","33Q5P9PUSP8QOKKNNN5S19YACNVCZX","","","null","","","","","","","",""
"1481.8000001907349","","image-keyboard-response","236","262054","0.0-165.0","3DQQ64TANH77AYMG87CTBOZL2UGWPG","A3HNEYFOIJWPH1","33Q5P9PUSP8QOKKNNN5S19YACNVCZX","","img/set1/S2.jpg","68","2","random","68","true","random,structured_normal,structured_incentive","1,2,2,3","",""
"null","","html-keyboard-response","237","262405","0.0-166.0","3DQQ64TANH77AYMG87CTBOZL2UGWPG","A3HNEYFOIJWPH1","33Q5P9PUSP8QOKKNNN5S19YACNVCZX","","<img src=""img/set1/S2.jpg"" width=""540"" height = ""360"" style=""border:16px solid orange"">","null","","","","","","","",""
"null","","html-keyboard-response","238","262408","0.0-167.0","3DQQ64TANH77AYMG87CTBOZL2UGWPG","A3HNEYFOIJWPH1","33Q5P9PUSP8QOKKNNN5S19YACNVCZX","","","null","","","","","","","",""
"636","","image-keyboard-response","239","263046","0.0-168.0","3DQQ64TANH77AYMG87CTBOZL2UGWPG","A3HNEYFOIJWPH1","33Q5P9PUSP8QOKKNNN5S19YACNVCZX","","img/set1/S2.jpg","68","2","random","68","true","random,structured_normal,structured_incentive","1,2,2,3","",""
"null","","html-keyboard-response","240","263398","0.0-169.0","3DQQ64TANH77AYMG87CTBOZL2UGWPG","A3HNEYFOIJWPH1","33Q5P9PUSP8QOKKNNN5S19YACNVCZX","","<img src=""img/set1/S2.jpg"" width=""540"" height = ""360"" style=""border:16px solid orange"">","null","","","","","","","",""
"null","","html-keyboard-response","241","263401","0.0-170.0","3DQQ64TANH77AYMG87CTBOZL2UGWPG","A3HNEYFOIJWPH1","33Q5P9PUSP8QOKKNNN5S19YACNVCZX","","","null","","","","","","","",""
"1179.2999997138977","","image-keyboard-response","242","264583","0.0-171.0","3DQQ64TANH77AYMG87CTBOZL2UGWPG","A3HNEYFOIJWPH1","33Q5P9PUSP8QOKKNNN5S19YACNVCZX","","img/set1/S4.jpg","74","4","random","74","true","random,structured_normal,structured_incentive","1,2,2,3","",""
"null","","html-keyboard-response","243","264935","0.0-172.0","3DQQ64TANH77AYMG87CTBOZL2UGWPG","A3HNEYFOIJWPH1","33Q5P9PUSP8QOKKNNN5S19YACNVCZX","","<img src=""img/set1/S4.jpg"" width=""540"" height = ""360"" style=""border:16px solid orange"">","null","","","","","","","",""
"null","","html-keyboard-response","244","264937","0.0-173.0","3DQQ64TANH77AYMG87CTBOZL2UGWPG","A3HNEYFOIJWPH1","33Q5P9PUSP8QOKKNNN5S19YACNVCZX","","","null","","","","","","","",""
"579.7999997138977","","image-keyboard-response","245","265518","0.0-174.0","3DQQ64TANH77AYMG87CTBOZL2UGWPG","A3HNEYFOIJWPH1","33Q5P9PUSP8QOKKNNN5S19YACNVCZX","","img/set1/S4.jpg","74","4","random","74","true","random,structured_normal,structured_incentive","1,2,2,3","",""
"null","","html-keyboard-response","246","265879","0.0-175.0","3DQQ64TANH77AYMG87CTBOZL2UGWPG","A3HNEYFOIJWPH1","33Q5P9PUSP8QOKKNNN5S19YACNVCZX","","<img src=""img/set1/S4.jpg"" width=""540"" height = ""360"" style=""border:16px solid orange"">","null","","","","","","","",""
"null","","html-keyboard-response","247","265882","0.0-176.0","3DQQ64TANH77AYMG87CTBOZL2UGWPG","A3HNEYFOIJWPH1","33Q5P9PUSP8QOKKNNN5S19YACNVCZX","","","null","","","","","","","",""
"1268.8000001907349","","image-keyboard-response","248","267152","0.0-177.0","3DQQ64TANH77AYMG87CTBOZL2UGWPG","A3HNEYFOIJWPH1","33Q5P9PUSP8QOKKNNN5S19YACNVCZX","","img/set1/S2.jpg","72","2","random","68","false","random,structured_normal,structured_incentive","1,2,2,3","",""
"null","","html-keyboard-response","249","267505","0.0-178.0","3DQQ64TANH77AYMG87CTBOZL2UGWPG","A3HNEYFOIJWPH1","33Q5P9PUSP8QOKKNNN5S19YACNVCZX","","<img src=""img/set1/S2.jpg"" width=""540"" height = ""360"">","null","","","","","","","",""
"null","","html-keyboard-response","250","267508","0.0-179.0","3DQQ64TANH77AYMG87CTBOZL2UGWPG","A3HNEYFOIJWPH1","33Q5P9PUSP8QOKKNNN5S19YACNVCZX","","","null","","","","","","","",""
"656.2999997138977","","image-keyboard-response","251","268166","0.0-180.0","3DQQ64TANH77AYMG87CTBOZL2UGWPG","A3HNEYFOIJWPH1","33Q5P9PUSP8QOKKNNN5S19YACNVCZX","","img/set1/S4.jpg","74","4","random","74","true","random,structured_normal,structured_incentive","1,2,2,3","",""
"null","","html-keyboard-response","252","268517","0.0-181.0","3DQQ64TANH77AYMG87CTBOZL2UGWPG","A3HNEYFOIJWPH1","33Q5P9PUSP8QOKKNNN5S19YACNVCZX","","<img src=""img/set1/S4.jpg"" width=""540"" height = ""360"" style=""border:16px solid orange"">","null","","","","","","","",""
"null","","html-keyboard-response","253","268520","0.0-182.0","3DQQ64TANH77AYMG87CTBOZL2UGWPG","A3HNEYFOIJWPH1","33Q5P9PUSP8QOKKNNN5S19YACNVCZX","","","null","","","","","","","",""
"821.8000001907349","","image-keyboard-response","254","269344","0.0-183.0","3DQQ64TANH77AYMG87CTBOZL2UGWPG","A3HNEYFOIJWPH1","33Q5P9PUSP8QOKKNNN5S19YACNVCZX","","img/set1/S2.jpg","68","2","random","68","true","random,structured_normal,structured_incentive","1,2,2,3","",""
"null","","html-keyboard-response","255","269698","0.0-184.0","3DQQ64TANH77AYMG87CTBOZL2UGWPG","A3HNEYFOIJWPH1","33Q5P9PUSP8QOKKNNN5S19YACNVCZX","","<img src=""img/set1/S2.jpg"" width=""540"" height = ""360"" style=""border:16px solid orange"">","null","","","","","","","",""
"null","","html-keyboard-response","256","269701","0.0-185.0","3DQQ64TANH77AYMG87CTBOZL2UGWPG","A3HNEYFOIJWPH1","33Q5P9PUSP8QOKKNNN5S19YACNVCZX","","","null","","","","","","","",""
"440.7000002861023","","image-keyboard-response","257","270144","0.0-186.0","3DQQ64TANH77AYMG87CTBOZL2UGWPG","A3HNEYFOIJWPH1","33Q5P9PUSP8QOKKNNN5S19YACNVCZX","","img/set1/S2.jpg","68","2","random","68","true","random,structured_normal,structured_incentive","1,2,2,3","",""
"null","","html-keyboard-response","258","270498","0.0-187.0","3DQQ64TANH77AYMG87CTBOZL2UGWPG","A3HNEYFOIJWPH1","33Q5P9PUSP8QOKKNNN5S19YACNVCZX","","<img src=""img/set1/S2.jpg"" width=""540"" height = ""360"" style=""border:16px solid orange"">","null","","","","","","","",""
"null","","html-keyboard-response","259","270501","0.0-188.0","3DQQ64TANH77AYMG87CTBOZL2UGWPG","A3HNEYFOIJWPH1","33Q5P9PUSP8QOKKNNN5S19YACNVCZX","","","null","","","","","","","",""
"728","","image-keyboard-response","260","271232","0.0-189.0","3DQQ64TANH77AYMG87CTBOZL2UGWPG","A3HNEYFOIJWPH1","33Q5P9PUSP8QOKKNNN5S19YACNVCZX","","img/set1/S1.jpg","83","1","random","83","true","random,structured_normal,structured_incentive","1,2,2,3","",""
"null","","html-keyboard-response","261","271588","0.0-190.0","3DQQ64TANH77AYMG87CTBOZL2UGWPG","A3HNEYFOIJWPH1","33Q5P9PUSP8QOKKNNN5S19YACNVCZX","","<img src=""img/set1/S1.jpg"" width=""540"" height = ""360"" style=""border:16px solid orange"">","null","","","","","","","",""
"null","","html-keyboard-response","262","271591","0.0-191.0","3DQQ64TANH77AYMG87CTBOZL2UGWPG","A3HNEYFOIJWPH1","33Q5P9PUSP8QOKKNNN5S19YACNVCZX","","","null","","","","","","","",""
"438.2999997138977","","image-keyboard-response","263","272030","0.0-192.0","3DQQ64TANH77AYMG87CTBOZL2UGWPG","A3HNEYFOIJWPH1","33Q5P9PUSP8QOKKNNN5S19YACNVCZX","","img/set1/S1.jpg","83","1","random","83","true","random,structured_normal,structured_incentive","1,2,2,3","",""
"null","","html-keyboard-response","264","272382","0.0-193.0","3DQQ64TANH77AYMG87CTBOZL2UGWPG","A3HNEYFOIJWPH1","33Q5P9PUSP8QOKKNNN5S19YACNVCZX","","<img src=""img/set1/S1.jpg"" width=""540"" height = ""360"" style=""border:16px solid orange"">","null","","","","","","","",""
"null","","html-keyboard-response","265","272385","0.0-194.0","3DQQ64TANH77AYMG87CTBOZL2UGWPG","A3HNEYFOIJWPH1","33Q5P9PUSP8QOKKNNN5S19YACNVCZX","","","null","","","","","","","",""
"844.3999996185303","","image-keyboard-response","266","273230","0.0-195.0","3DQQ64TANH77AYMG87CTBOZL2UGWPG","A3HNEYFOIJWPH1","33Q5P9PUSP8QOKKNNN5S19YACNVCZX","","img/set1/S4.jpg","74","4","random","74","true","random,structured_normal,structured_incentive","1,2,2,3","",""
"null","","html-keyboard-response","267","273582","0.0-196.0","3DQQ64TANH77AYMG87CTBOZL2UGWPG","A3HNEYFOIJWPH1","33Q5P9PUSP8QOKKNNN5S19YACNVCZX","","<img src=""img/set1/S4.jpg"" width=""540"" height = ""360"" style=""border:16px solid orange"">","null","","","","","","","",""
"null","","html-keyboard-response","268","273584","0.0-197.0","3DQQ64TANH77AYMG87CTBOZL2UGWPG","A3HNEYFOIJWPH1","33Q5P9PUSP8QOKKNNN5S19YACNVCZX","","","null","","","","","","","",""
"613.1999998092651","","image-keyboard-response","269","274198","0.0-198.0","3DQQ64TANH77AYMG87CTBOZL2UGWPG","A3HNEYFOIJWPH1","33Q5P9PUSP8QOKKNNN5S19YACNVCZX","","img/set1/S1.jpg","83","1","random","83","true","random,structured_normal,structured_incentive","1,2,2,3","",""
"null","","html-keyboard-response","270","274550","0.0-199.0","3DQQ64TANH77AYMG87CTBOZL2UGWPG","A3HNEYFOIJWPH1","33Q5P9PUSP8QOKKNNN5S19YACNVCZX","","<img src=""img/set1/S1.jpg"" width=""540"" height = ""360"" style=""border:16px solid orange"">","null","","","","","","","",""
"null","","html-keyboard-response","271","274552","0.0-200.0","3DQQ64TANH77AYMG87CTBOZL2UGWPG","A3HNEYFOIJWPH1","33Q5P9PUSP8QOKKNNN5S19YACNVCZX","","","null","","","","","","","",""
"751.1000003814697","","image-keyboard-response","272","275304","0.0-201.0","3DQQ64TANH77AYMG87CTBOZL2UGWPG","A3HNEYFOIJWPH1","33Q5P9PUSP8QOKKNNN5S19YACNVCZX","","img/set1/S4.jpg","74","4","random","74","true","random,structured_normal,structured_incentive","1,2,2,3","",""
"null","","html-keyboard-response","273","275658","0.0-202.0","3DQQ64TANH77AYMG87CTBOZL2UGWPG","A3HNEYFOIJWPH1","33Q5P9PUSP8QOKKNNN5S19YACNVCZX","","<img src=""img/set1/S4.jpg"" width=""540"" height = ""360"" style=""border:16px solid orange"">","null","","","","","","","",""
"null","","html-keyboard-response","274","275659","0.0-203.0","3DQQ64TANH77AYMG87CTBOZL2UGWPG","A3HNEYFOIJWPH1","33Q5P9PUSP8QOKKNNN5S19YACNVCZX","","","null","","","","","","","",""
"635.4000000953674","","image-keyboard-response","275","276296","0.0-204.0","3DQQ64TANH77AYMG87CTBOZL2UGWPG","A3HNEYFOIJWPH1","33Q5P9PUSP8QOKKNNN5S19YACNVCZX","","img/set1/S1.jpg","83","1","random","83","true","random,structured_normal,structured_incentive","1,2,2,3","",""
"null","","html-keyboard-response","276","276649","0.0-205.0","3DQQ64TANH77AYMG87CTBOZL2UGWPG","A3HNEYFOIJWPH1","33Q5P9PUSP8QOKKNNN5S19YACNVCZX","","<img src=""img/set1/S1.jpg"" width=""540"" height = ""360"" style=""border:16px solid orange"">","null","","","","","","","",""
"null","","html-keyboard-response","277","276651","0.0-206.0","3DQQ64TANH77AYMG87CTBOZL2UGWPG","A3HNEYFOIJWPH1","33Q5P9PUSP8QOKKNNN5S19YACNVCZX","","","null","","","","","","","",""
"739.9000000953674","","image-keyboard-response","278","277391","0.0-207.0","3DQQ64TANH77AYMG87CTBOZL2UGWPG","A3HNEYFOIJWPH1","33Q5P9PUSP8QOKKNNN5S19YACNVCZX","","img/set1/S3.jpg","72","3","random","72","true","random,structured_normal,structured_incentive","1,2,2,3","",""
"null","","html-keyboard-response","279","277743","0.0-208.0","3DQQ64TANH77AYMG87CTBOZL2UGWPG","A3HNEYFOIJWPH1","33Q5P9PUSP8QOKKNNN5S19YACNVCZX","","<img src=""img/set1/S3.jpg"" width=""540"" height = ""360"" style=""border:16px solid orange"">","null","","","","","","","",""
"null","","html-keyboard-response","280","277746","0.0-209.0","3DQQ64TANH77AYMG87CTBOZL2UGWPG","A3HNEYFOIJWPH1","33Q5P9PUSP8QOKKNNN5S19YACNVCZX","","","null","","","","","","","",""
"1524","","image-keyboard-response","281","279270","0.0-210.0","3DQQ64TANH77AYMG87CTBOZL2UGWPG","A3HNEYFOIJWPH1","33Q5P9PUSP8QOKKNNN5S19YACNVCZX","","img/set1/S2.jpg","83","2","random","68","false","random,structured_normal,structured_incentive","1,2,2,3","",""
"null","","html-keyboard-response","282","279622","0.0-211.0","3DQQ64TANH77AYMG87CTBOZL2UGWPG","A3HNEYFOIJWPH1","33Q5P9PUSP8QOKKNNN5S19YACNVCZX","","<img src=""img/set1/S2.jpg"" width=""540"" height = ""360"">","null","","","","","","","",""
"null","","html-keyboard-response","283","279624","0.0-212.0","3DQQ64TANH77AYMG87CTBOZL2UGWPG","A3HNEYFOIJWPH1","33Q5P9PUSP8QOKKNNN5S19YACNVCZX","","","null","","","","","","","",""
"676.8999996185303","","image-keyboard-response","284","280302","0.0-213.0","3DQQ64TANH77AYMG87CTBOZL2UGWPG","A3HNEYFOIJWPH1","33Q5P9PUSP8QOKKNNN5S19YACNVCZX","","img/set1/S1.jpg","83","1","random","83","true","random,structured_normal,structured_incentive","1,2,2,3","",""
"null","","html-keyboard-response","285","280653","0.0-214.0","3DQQ64TANH77AYMG87CTBOZL2UGWPG","A3HNEYFOIJWPH1","33Q5P9PUSP8QOKKNNN5S19YACNVCZX","","<img src=""img/set1/S1.jpg"" width=""540"" height = ""360"" style=""border:16px solid orange"">","null","","","","","","","",""
"null","","html-keyboard-response","286","280656","0.0-215.0","3DQQ64TANH77AYMG87CTBOZL2UGWPG","A3HNEYFOIJWPH1","33Q5P9PUSP8QOKKNNN5S19YACNVCZX","","","null","","","","","","","",""
"1413","","image-keyboard-response","287","282070","0.0-216.0","3DQQ64TANH77AYMG87CTBOZL2UGWPG","A3HNEYFOIJWPH1","33Q5P9PUSP8QOKKNNN5S19YACNVCZX","","img/set1/S3.jpg","74","3","random","72","false","random,structured_normal,structured_incentive","1,2,2,3","",""
"null","","html-keyboard-response","288","282435","0.0-217.0","3DQQ64TANH77AYMG87CTBOZL2UGWPG","A3HNEYFOIJWPH1","33Q5P9PUSP8QOKKNNN5S19YACNVCZX","","<img src=""img/set1/S3.jpg"" width=""540"" height = ""360"">","null","","","","","","","",""
"null","","html-keyboard-response","289","282438","0.0-218.0","3DQQ64TANH77AYMG87CTBOZL2UGWPG","A3HNEYFOIJWPH1","33Q5P9PUSP8QOKKNNN5S19YACNVCZX","","","null","","","","","","","",""
"974.6999998092651","","image-keyboard-response","290","283414","0.0-219.0","3DQQ64TANH77AYMG87CTBOZL2UGWPG","A3HNEYFOIJWPH1","33Q5P9PUSP8QOKKNNN5S19YACNVCZX","","img/set1/S4.jpg","74","4","random","74","true","random,structured_normal,structured_incentive","1,2,2,3","",""
"null","","html-keyboard-response","291","283775","0.0-220.0","3DQQ64TANH77AYMG87CTBOZL2UGWPG","A3HNEYFOIJWPH1","33Q5P9PUSP8QOKKNNN5S19YACNVCZX","","<img src=""img/set1/S4.jpg"" width=""540"" height = ""360"" style=""border:16px solid orange"">","null","","","","","","","",""
"null","","html-keyboard-response","292","283778","0.0-221.0","3DQQ64TANH77AYMG87CTBOZL2UGWPG","A3HNEYFOIJWPH1","33Q5P9PUSP8QOKKNNN5S19YACNVCZX","","","null","","","","","","","",""
"725","","image-keyboard-response","293","284504","0.0-222.0","3DQQ64TANH77AYMG87CTBOZL2UGWPG","A3HNEYFOIJWPH1","33Q5P9PUSP8QOKKNNN5S19YACNVCZX","","img/set1/S1.jpg","83","1","random","83","true","random,structured_normal,structured_incentive","1,2,2,3","",""
"null","","html-keyboard-response","294","284858","0.0-223.0","3DQQ64TANH77AYMG87CTBOZL2UGWPG","A3HNEYFOIJWPH1","33Q5P9PUSP8QOKKNNN5S19YACNVCZX","","<img src=""img/set1/S1.jpg"" width=""540"" height = ""360"" style=""border:16px solid orange"">","null","","","","","","","",""
"null","","html-keyboard-response","295","284860","0.0-224.0","3DQQ64TANH77AYMG87CTBOZL2UGWPG","A3HNEYFOIJWPH1","33Q5P9PUSP8QOKKNNN5S19YACNVCZX","","","null","","","","","","","",""
"762.5999999046326","","image-keyboard-response","296","285624","0.0-225.0","3DQQ64TANH77AYMG87CTBOZL2UGWPG","A3HNEYFOIJWPH1","33Q5P9PUSP8QOKKNNN5S19YACNVCZX","","img/set1/S4.jpg","74","4","random","74","true","random,structured_normal,structured_incentive","1,2,2,3","",""
"null","","html-keyboard-response","297","285977","0.0-226.0","3DQQ64TANH77AYMG87CTBOZL2UGWPG","A3HNEYFOIJWPH1","33Q5P9PUSP8QOKKNNN5S19YACNVCZX","","<img src=""img/set1/S4.jpg"" width=""540"" height = ""360"" style=""border:16px solid orange"">","null","","","","","","","",""
"null","","html-keyboard-response","298","285980","0.0-227.0","3DQQ64TANH77AYMG87CTBOZL2UGWPG","A3HNEYFOIJWPH1","33Q5P9PUSP8QOKKNNN5S19YACNVCZX","","","null","","","","","","","",""
"1123.7000002861023","","image-keyboard-response","299","287106","0.0-228.0","3DQQ64TANH77AYMG87CTBOZL2UGWPG","A3HNEYFOIJWPH1","33Q5P9PUSP8QOKKNNN5S19YACNVCZX","","img/set1/S2.jpg","68","2","random","68","true","random,structured_normal,structured_incentive","1,2,2,3","",""
"null","","html-keyboard-response","300","287460","0.0-229.0","3DQQ64TANH77AYMG87CTBOZL2UGWPG","A3HNEYFOIJWPH1","33Q5P9PUSP8QOKKNNN5S19YACNVCZX","","<img src=""img/set1/S2.jpg"" width=""540"" height = ""360"" style=""border:16px solid orange"">","null","","","","","","","",""
"null","","html-keyboard-response","301","287464","0.0-230.0","3DQQ64TANH77AYMG87CTBOZL2UGWPG","A3HNEYFOIJWPH1","33Q5P9PUSP8QOKKNNN5S19YACNVCZX","","","null","","","","","","","",""
"972.8000001907349","","image-keyboard-response","302","288438","0.0-231.0","3DQQ64TANH77AYMG87CTBOZL2UGWPG","A3HNEYFOIJWPH1","33Q5P9PUSP8QOKKNNN5S19YACNVCZX","","img/set1/S3.jpg","72","3","random","72","true","random,structured_normal,structured_incentive","1,2,2,3","",""
"null","","html-keyboard-response","303","288790","0.0-232.0","3DQQ64TANH77AYMG87CTBOZL2UGWPG","A3HNEYFOIJWPH1","33Q5P9PUSP8QOKKNNN5S19YACNVCZX","","<img src=""img/set1/S3.jpg"" width=""540"" height = ""360"" style=""border:16px solid orange"">","null","","","","","","","",""
"null","","html-keyboard-response","304","288792","0.0-233.0","3DQQ64TANH77AYMG87CTBOZL2UGWPG","A3HNEYFOIJWPH1","33Q5P9PUSP8QOKKNNN5S19YACNVCZX","","","null","","","","","","","",""
"1767.5999999046326","","image-keyboard-response","305","290561","0.0-234.0","3DQQ64TANH77AYMG87CTBOZL2UGWPG","A3HNEYFOIJWPH1","33Q5P9PUSP8QOKKNNN5S19YACNVCZX","","img/set1/S2.jpg","68","2","random","68","true","random,structured_normal,structured_incentive","1,2,2,3","",""
"null","","html-keyboard-response","306","290914","0.0-235.0","3DQQ64TANH77AYMG87CTBOZL2UGWPG","A3HNEYFOIJWPH1","33Q5P9PUSP8QOKKNNN5S19YACNVCZX","","<img src=""img/set1/S2.jpg"" width=""540"" height = ""360"" style=""border:16px solid orange"">","null","","","","","","","",""
"null","","html-keyboard-response","307","290917","0.0-236.0","3DQQ64TANH77AYMG87CTBOZL2UGWPG","A3HNEYFOIJWPH1","33Q5P9PUSP8QOKKNNN5S19YACNVCZX","","","null","","","","","","","",""
"504.19999980926514","","image-keyboard-response","308","291423","0.0-237.0","3DQQ64TANH77AYMG87CTBOZL2UGWPG","A3HNEYFOIJWPH1","33Q5P9PUSP8QOKKNNN5S19YACNVCZX","","img/set1/S2.jpg","68","2","random","68","true","random,structured_normal,structured_incentive","1,2,2,3","",""
"null","","html-keyboard-response","309","291775","0.0-238.0","3DQQ64TANH77AYMG87CTBOZL2UGWPG","A3HNEYFOIJWPH1","33Q5P9PUSP8QOKKNNN5S19YACNVCZX","","<img src=""img/set1/S2.jpg"" width=""540"" height = ""360"" style=""border:16px solid orange"">","null","","","","","","","",""
"null","","html-keyboard-response","310","291777","0.0-239.0","3DQQ64TANH77AYMG87CTBOZL2UGWPG","A3HNEYFOIJWPH1","33Q5P9PUSP8QOKKNNN5S19YACNVCZX","","","null","","","","","","","",""
"1220","","image-keyboard-response","311","292998","0.0-240.0","3DQQ64TANH77AYMG87CTBOZL2UGWPG","A3HNEYFOIJWPH1","33Q5P9PUSP8QOKKNNN5S19YACNVCZX","","img/set1/S4.jpg","74","4","random","74","true","random,structured_normal,structured_incentive","1,2,2,3","",""
"null","","html-keyboard-response","312","293351","0.0-241.0","3DQQ64TANH77AYMG87CTBOZL2UGWPG","A3HNEYFOIJWPH1","33Q5P9PUSP8QOKKNNN5S19YACNVCZX","","<img src=""img/set1/S4.jpg"" width=""540"" height = ""360"" style=""border:16px solid orange"">","null","","","","","","","",""
"null","","html-keyboard-response","313","293353","0.0-242.0","3DQQ64TANH77AYMG87CTBOZL2UGWPG","A3HNEYFOIJWPH1","33Q5P9PUSP8QOKKNNN5S19YACNVCZX","","","null","","","","","","","",""
"595.0999999046326","","image-keyboard-response","314","293950","0.0-243.0","3DQQ64TANH77AYMG87CTBOZL2UGWPG","A3HNEYFOIJWPH1","33Q5P9PUSP8QOKKNNN5S19YACNVCZX","","img/set1/S1.jpg","83","1","random","83","true","random,structured_normal,structured_incentive","1,2,2,3","",""
"null","","html-keyboard-response","315","294301","0.0-244.0","3DQQ64TANH77AYMG87CTBOZL2UGWPG","A3HNEYFOIJWPH1","33Q5P9PUSP8QOKKNNN5S19YACNVCZX","","<img src=""img/set1/S1.jpg"" width=""540"" height = ""360"" style=""border:16px solid orange"">","null","","","","","","","",""
"null","","html-keyboard-response","316","294304","0.0-245.0","3DQQ64TANH77AYMG87CTBOZL2UGWPG","A3HNEYFOIJWPH1","33Q5P9PUSP8QOKKNNN5S19YACNVCZX","","","null","","","","","","","",""
"847.1000003814697","","image-keyboard-response","317","295152","0.0-246.0","3DQQ64TANH77AYMG87CTBOZL2UGWPG","A3HNEYFOIJWPH1","33Q5P9PUSP8QOKKNNN5S19YACNVCZX","","img/set1/S3.jpg","72","3","random","72","true","random,structured_normal,structured_incentive","1,2,2,3","",""
"null","","html-keyboard-response","318","295518","0.0-247.0","3DQQ64TANH77AYMG87CTBOZL2UGWPG","A3HNEYFOIJWPH1","33Q5P9PUSP8QOKKNNN5S19YACNVCZX","","<img src=""img/set1/S3.jpg"" width=""540"" height = ""360"" style=""border:16px solid orange"">","null","","","","","","","",""
"null","","html-keyboard-response","319","295520","0.0-248.0","3DQQ64TANH77AYMG87CTBOZL2UGWPG","A3HNEYFOIJWPH1","33Q5P9PUSP8QOKKNNN5S19YACNVCZX","","","null","","","","","","","",""
"750.7000002861023","","image-keyboard-response","320","296272","0.0-249.0","3DQQ64TANH77AYMG87CTBOZL2UGWPG","A3HNEYFOIJWPH1","33Q5P9PUSP8QOKKNNN5S19YACNVCZX","","img/set1/S4.jpg","74","4","random","74","true","random,structured_normal,structured_incentive","1,2,2,3","",""
"null","","html-keyboard-response","321","296626","0.0-250.0","3DQQ64TANH77AYMG87CTBOZL2UGWPG","A3HNEYFOIJWPH1","33Q5P9PUSP8QOKKNNN5S19YACNVCZX","","<img src=""img/set1/S4.jpg"" width=""540"" height = ""360"" style=""border:16px solid orange"">","null","","","","","","","",""
"null","","html-keyboard-response","322","296629","0.0-251.0","3DQQ64TANH77AYMG87CTBOZL2UGWPG","A3HNEYFOIJWPH1","33Q5P9PUSP8QOKKNNN5S19YACNVCZX","","","null","","","","","","","",""
"897.5","","image-keyboard-response","323","297528","0.0-252.0","3DQQ64TANH77AYMG87CTBOZL2UGWPG","A3HNEYFOIJWPH1","33Q5P9PUSP8QOKKNNN5S19YACNVCZX","","img/set1/S2.jpg","68","2","random","68","true","random,structured_normal,structured_incentive","1,2,2,3","",""
"null","","html-keyboard-response","324","297881","0.0-253.0","3DQQ64TANH77AYMG87CTBOZL2UGWPG","A3HNEYFOIJWPH1","33Q5P9PUSP8QOKKNNN5S19YACNVCZX","","<img src=""img/set1/S2.jpg"" width=""540"" height = ""360"" style=""border:16px solid orange"">","null","","","","","","","",""
"null","","html-keyboard-response","325","297883","0.0-254.0","3DQQ64TANH77AYMG87CTBOZL2UGWPG","A3HNEYFOIJWPH1","33Q5P9PUSP8QOKKNNN5S19YACNVCZX","","","null","","","","","","","",""
"706.9000000953674","","image-keyboard-response","326","298591","0.0-255.0","3DQQ64TANH77AYMG87CTBOZL2UGWPG","A3HNEYFOIJWPH1","33Q5P9PUSP8QOKKNNN5S19YACNVCZX","","img/set1/S1.jpg","83","1","random","83","true","random,structured_normal,structured_incentive","1,2,2,3","",""
"null","","html-keyboard-response","327","298945","0.0-256.0","3DQQ64TANH77AYMG87CTBOZL2UGWPG","A3HNEYFOIJWPH1","33Q5P9PUSP8QOKKNNN5S19YACNVCZX","","<img src=""img/set1/S1.jpg"" width=""540"" height = ""360"" style=""border:16px solid orange"">","null","","","","","","","",""
"null","","html-keyboard-response","328","298948","0.0-257.0","3DQQ64TANH77AYMG87CTBOZL2UGWPG","A3HNEYFOIJWPH1","33Q5P9PUSP8QOKKNNN5S19YACNVCZX","","","null","","","","","","","",""
"986.4000000953674","","image-keyboard-response","329","299935","0.0-258.0","3DQQ64TANH77AYMG87CTBOZL2UGWPG","A3HNEYFOIJWPH1","33Q5P9PUSP8QOKKNNN5S19YACNVCZX","","img/set1/S4.jpg","74","4","random","74","true","random,structured_normal,structured_incentive","1,2,2,3","",""
"null","","html-keyboard-response","330","300287","0.0-259.0","3DQQ64TANH77AYMG87CTBOZL2UGWPG","A3HNEYFOIJWPH1","33Q5P9PUSP8QOKKNNN5S19YACNVCZX","","<img src=""img/set1/S4.jpg"" width=""540"" height = ""360"" style=""border:16px solid orange"">","null","","","","","","","",""
"null","","html-keyboard-response","331","300290","0.0-260.0","3DQQ64TANH77AYMG87CTBOZL2UGWPG","A3HNEYFOIJWPH1","33Q5P9PUSP8QOKKNNN5S19YACNVCZX","","","null","","","","","","","",""
"411","","image-keyboard-response","332","300702","0.0-261.0","3DQQ64TANH77AYMG87CTBOZL2UGWPG","A3HNEYFOIJWPH1","33Q5P9PUSP8QOKKNNN5S19YACNVCZX","","img/set1/S4.jpg","74","4","random","74","true","random,structured_normal,structured_incentive","1,2,2,3","",""
"null","","html-keyboard-response","333","301058","0.0-262.0","3DQQ64TANH77AYMG87CTBOZL2UGWPG","A3HNEYFOIJWPH1","33Q5P9PUSP8QOKKNNN5S19YACNVCZX","","<img src=""img/set1/S4.jpg"" width=""540"" height = ""360"" style=""border:16px solid orange"">","null","","","","","","","",""
"null","","html-keyboard-response","334","301061","0.0-263.0","3DQQ64TANH77AYMG87CTBOZL2UGWPG","A3HNEYFOIJWPH1","33Q5P9PUSP8QOKKNNN5S19YACNVCZX","","","null","","","","","","","",""
"649.6999998092651","","image-keyboard-response","335","301712","0.0-264.0","3DQQ64TANH77AYMG87CTBOZL2UGWPG","A3HNEYFOIJWPH1","33Q5P9PUSP8QOKKNNN5S19YACNVCZX","","img/set1/S1.jpg","83","1","random","83","true","random,structured_normal,structured_incentive","1,2,2,3","",""
"null","","html-keyboard-response","336","302065","0.0-265.0","3DQQ64TANH77AYMG87CTBOZL2UGWPG","A3HNEYFOIJWPH1","33Q5P9PUSP8QOKKNNN5S19YACNVCZX","","<img src=""img/set1/S1.jpg"" width=""540"" height = ""360"" style=""border:16px solid orange"">","null","","","","","","","",""
"null","","html-keyboard-response","337","302068","0.0-266.0","3DQQ64TANH77AYMG87CTBOZL2UGWPG","A3HNEYFOIJWPH1","33Q5P9PUSP8QOKKNNN5S19YACNVCZX","","","null","","","","","","","",""
"401.7000002861023","","image-keyboard-response","338","302470","0.0-267.0","3DQQ64TANH77AYMG87CTBOZL2UGWPG","A3HNEYFOIJWPH1","33Q5P9PUSP8QOKKNNN5S19YACNVCZX","","img/set1/S1.jpg","83","1","random","83","true","random,structured_normal,structured_incentive","1,2,2,3","",""
"null","","html-keyboard-response","339","302835","0.0-268.0","3DQQ64TANH77AYMG87CTBOZL2UGWPG","A3HNEYFOIJWPH1","33Q5P9PUSP8QOKKNNN5S19YACNVCZX","","<img src=""img/set1/S1.jpg"" width=""540"" height = ""360"" style=""border:16px solid orange"">","null","","","","","","","",""
"null","","html-keyboard-response","340","302838","0.0-269.0","3DQQ64TANH77AYMG87CTBOZL2UGWPG","A3HNEYFOIJWPH1","33Q5P9PUSP8QOKKNNN5S19YACNVCZX","","","null","","","","","","","",""
"791.5","","image-keyboard-response","341","303630","0.0-270.0","3DQQ64TANH77AYMG87CTBOZL2UGWPG","A3HNEYFOIJWPH1","33Q5P9PUSP8QOKKNNN5S19YACNVCZX","","img/set1/S4.jpg","74","4","random","74","true","random,structured_normal,structured_incentive","1,2,2,3","",""
"null","","html-keyboard-response","342","303982","0.0-271.0","3DQQ64TANH77AYMG87CTBOZL2UGWPG","A3HNEYFOIJWPH1","33Q5P9PUSP8QOKKNNN5S19YACNVCZX","","<img src=""img/set1/S4.jpg"" width=""540"" height = ""360"" style=""border:16px solid orange"">","null","","","","","","","",""
"null","","html-keyboard-response","343","303983","0.0-272.0","3DQQ64TANH77AYMG87CTBOZL2UGWPG","A3HNEYFOIJWPH1","33Q5P9PUSP8QOKKNNN5S19YACNVCZX","","","null","","","","","","","",""
"560.5999999046326","","image-keyboard-response","344","304545","0.0-273.0","3DQQ64TANH77AYMG87CTBOZL2UGWPG","A3HNEYFOIJWPH1","33Q5P9PUSP8QOKKNNN5S19YACNVCZX","","img/set1/S1.jpg","83","1","random","83","true","random,structured_normal,structured_incentive","1,2,2,3","",""
"null","","html-keyboard-response","345","304898","0.0-274.0","3DQQ64TANH77AYMG87CTBOZL2UGWPG","A3HNEYFOIJWPH1","33Q5P9PUSP8QOKKNNN5S19YACNVCZX","","<img src=""img/set1/S1.jpg"" width=""540"" height = ""360"" style=""border:16px solid orange"">","null","","","","","","","",""
"null","","html-keyboard-response","346","304901","0.0-275.0","3DQQ64TANH77AYMG87CTBOZL2UGWPG","A3HNEYFOIJWPH1","33Q5P9PUSP8QOKKNNN5S19YACNVCZX","","","null","","","","","","","",""
"464","","image-keyboard-response","347","305366","0.0-276.0","3DQQ64TANH77AYMG87CTBOZL2UGWPG","A3HNEYFOIJWPH1","33Q5P9PUSP8QOKKNNN5S19YACNVCZX","","img/set1/S1.jpg","83","1","random","83","true","random,structured_normal,structured_incentive","1,2,2,3","",""
"null","","html-keyboard-response","348","305719","0.0-277.0","3DQQ64TANH77AYMG87CTBOZL2UGWPG","A3HNEYFOIJWPH1","33Q5P9PUSP8QOKKNNN5S19YACNVCZX","","<img src=""img/set1/S1.jpg"" width=""540"" height = ""360"" style=""border:16px solid orange"">","null","","","","","","","",""
"null","","html-keyboard-response","349","305722","0.0-278.0","3DQQ64TANH77AYMG87CTBOZL2UGWPG","A3HNEYFOIJWPH1","33Q5P9PUSP8QOKKNNN5S19YACNVCZX","","","null","","","","","","","",""
"460.59999990463257","","image-keyboard-response","350","306184","0.0-279.0","3DQQ64TANH77AYMG87CTBOZL2UGWPG","A3HNEYFOIJWPH1","33Q5P9PUSP8QOKKNNN5S19YACNVCZX","","img/set1/S1.jpg","83","1","random","83","true","random,structured_normal,structured_incentive","1,2,2,3","",""
"null","","html-keyboard-response","351","306537","0.0-280.0","3DQQ64TANH77AYMG87CTBOZL2UGWPG","A3HNEYFOIJWPH1","33Q5P9PUSP8QOKKNNN5S19YACNVCZX","","<img src=""img/set1/S1.jpg"" width=""540"" height = ""360"" style=""border:16px solid orange"">","null","","","","","","","",""
"null","","html-keyboard-response","352","306540","0.0-281.0","3DQQ64TANH77AYMG87CTBOZL2UGWPG","A3HNEYFOIJWPH1","33Q5P9PUSP8QOKKNNN5S19YACNVCZX","","","null","","","","","","","",""
"825.5999999046326","","image-keyboard-response","353","307366","0.0-282.0","3DQQ64TANH77AYMG87CTBOZL2UGWPG","A3HNEYFOIJWPH1","33Q5P9PUSP8QOKKNNN5S19YACNVCZX","","img/set1/S3.jpg","72","3","random","72","true","random,structured_normal,structured_incentive","1,2,2,3","",""
"null","","html-keyboard-response","354","307718","0.0-283.0","3DQQ64TANH77AYMG87CTBOZL2UGWPG","A3HNEYFOIJWPH1","33Q5P9PUSP8QOKKNNN5S19YACNVCZX","","<img src=""img/set1/S3.jpg"" width=""540"" height = ""360"" style=""border:16px solid orange"">","null","","","","","","","",""
"null","","html-keyboard-response","355","307720","0.0-284.0","3DQQ64TANH77AYMG87CTBOZL2UGWPG","A3HNEYFOIJWPH1","33Q5P9PUSP8QOKKNNN5S19YACNVCZX","","","null","","","","","","","",""
"1183.5","","image-keyboard-response","356","308904","0.0-285.0","3DQQ64TANH77AYMG87CTBOZL2UGWPG","A3HNEYFOIJWPH1","33Q5P9PUSP8QOKKNNN5S19YACNVCZX","","img/set1/S2.jpg","68","2","random","68","true","random,structured_normal,structured_incentive","1,2,2,3","",""
"null","","html-keyboard-response","357","309255","0.0-286.0","3DQQ64TANH77AYMG87CTBOZL2UGWPG","A3HNEYFOIJWPH1","33Q5P9PUSP8QOKKNNN5S19YACNVCZX","","<img src=""img/set1/S2.jpg"" width=""540"" height = ""360"" style=""border:16px solid orange"">","null","","","","","","","",""
"null","","html-keyboard-response","358","309257","0.0-287.0","3DQQ64TANH77AYMG87CTBOZL2UGWPG","A3HNEYFOIJWPH1","33Q5P9PUSP8QOKKNNN5S19YACNVCZX","","","null","","","","","","","",""
"483.69999980926514","","image-keyboard-response","359","309742","0.0-288.0","3DQQ64TANH77AYMG87CTBOZL2UGWPG","A3HNEYFOIJWPH1","33Q5P9PUSP8QOKKNNN5S19YACNVCZX","","img/set1/S2.jpg","68","2","random","68","true","random,structured_normal,structured_incentive","1,2,2,3","",""
"null","","html-keyboard-response","360","310096","0.0-289.0","3DQQ64TANH77AYMG87CTBOZL2UGWPG","A3HNEYFOIJWPH1","33Q5P9PUSP8QOKKNNN5S19YACNVCZX","","<img src=""img/set1/S2.jpg"" width=""540"" height = ""360"" style=""border:16px solid orange"">","null","","","","","","","",""
"null","","html-keyboard-response","361","310099","0.0-290.0","3DQQ64TANH77AYMG87CTBOZL2UGWPG","A3HNEYFOIJWPH1","33Q5P9PUSP8QOKKNNN5S19YACNVCZX","","","null","","","","","","","",""
"833.5","","image-keyboard-response","362","310934","0.0-291.0","3DQQ64TANH77AYMG87CTBOZL2UGWPG","A3HNEYFOIJWPH1","33Q5P9PUSP8QOKKNNN5S19YACNVCZX","","img/set1/S3.jpg","72","3","random","72","true","random,structured_normal,structured_incentive","1,2,2,3","",""
"null","","html-keyboard-response","363","311285","0.0-292.0","3DQQ64TANH77AYMG87CTBOZL2UGWPG","A3HNEYFOIJWPH1","33Q5P9PUSP8QOKKNNN5S19YACNVCZX","","<img src=""img/set1/S3.jpg"" width=""540"" height = ""360"" style=""border:16px solid orange"">","null","","","","","","","",""
"null","","html-keyboard-response","364","311287","0.0-293.0","3DQQ64TANH77AYMG87CTBOZL2UGWPG","A3HNEYFOIJWPH1","33Q5P9PUSP8QOKKNNN5S19YACNVCZX","","","null","","","","","","","",""
"450","","image-keyboard-response","365","311737","0.0-294.0","3DQQ64TANH77AYMG87CTBOZL2UGWPG","A3HNEYFOIJWPH1","33Q5P9PUSP8QOKKNNN5S19YACNVCZX","","img/set1/S3.jpg","72","3","random","72","true","random,structured_normal,structured_incentive","1,2,2,3","",""
"null","","html-keyboard-response","366","312090","0.0-295.0","3DQQ64TANH77AYMG87CTBOZL2UGWPG","A3HNEYFOIJWPH1","33Q5P9PUSP8QOKKNNN5S19YACNVCZX","","<img src=""img/set1/S3.jpg"" width=""540"" height = ""360"" style=""border:16px solid orange"">","null","","","","","","","",""
"null","","html-keyboard-response","367","312092","0.0-296.0","3DQQ64TANH77AYMG87CTBOZL2UGWPG","A3HNEYFOIJWPH1","33Q5P9PUSP8QOKKNNN5S19YACNVCZX","","","null","","","","","","","",""
"825.8000001907349","","image-keyboard-response","368","312919","0.0-297.0","3DQQ64TANH77AYMG87CTBOZL2UGWPG","A3HNEYFOIJWPH1","33Q5P9PUSP8QOKKNNN5S19YACNVCZX","","img/set1/S1.jpg","83","1","random","83","true","random,structured_normal,structured_incentive","1,2,2,3","",""
"null","","html-keyboard-response","369","313272","0.0-298.0","3DQQ64TANH77AYMG87CTBOZL2UGWPG","A3HNEYFOIJWPH1","33Q5P9PUSP8QOKKNNN5S19YACNVCZX","","<img src=""img/set1/S1.jpg"" width=""540"" height = ""360"" style=""border:16px solid orange"">","null","","","","","","","",""
"null","","html-keyboard-response","370","313275","0.0-299.0","3DQQ64TANH77AYMG87CTBOZL2UGWPG","A3HNEYFOIJWPH1","33Q5P9PUSP8QOKKNNN5S19YACNVCZX","","","null","","","","","","","",""
"898.5","","image-keyboard-response","371","314176","0.0-300.0","3DQQ64TANH77AYMG87CTBOZL2UGWPG","A3HNEYFOIJWPH1","33Q5P9PUSP8QOKKNNN5S19YACNVCZX","","img/set1/S2.jpg","68","2","random","68","true","random,structured_normal,structured_incentive","1,2,2,3","",""
"null","","html-keyboard-response","372","314530","0.0-301.0","3DQQ64TANH77AYMG87CTBOZL2UGWPG","A3HNEYFOIJWPH1","33Q5P9PUSP8QOKKNNN5S19YACNVCZX","","<img src=""img/set1/S2.jpg"" width=""540"" height = ""360"" style=""border:16px solid orange"">","null","","","","","","","",""
"null","","html-keyboard-response","373","314533","0.0-302.0","3DQQ64TANH77AYMG87CTBOZL2UGWPG","A3HNEYFOIJWPH1","33Q5P9PUSP8QOKKNNN5S19YACNVCZX","","","null","","","","","","","",""
"526.5","","image-keyboard-response","374","315062","0.0-303.0","3DQQ64TANH77AYMG87CTBOZL2UGWPG","A3HNEYFOIJWPH1","33Q5P9PUSP8QOKKNNN5S19YACNVCZX","","img/set1/S1.jpg","83","1","random","83","true","random,structured_normal,structured_incentive","1,2,2,3","",""
"null","","html-keyboard-response","375","315414","0.0-304.0","3DQQ64TANH77AYMG87CTBOZL2UGWPG","A3HNEYFOIJWPH1","33Q5P9PUSP8QOKKNNN5S19YACNVCZX","","<img src=""img/set1/S1.jpg"" width=""540"" height = ""360"" style=""border:16px solid orange"">","null","","","","","","","",""
"null","","html-keyboard-response","376","315417","0.0-305.0","3DQQ64TANH77AYMG87CTBOZL2UGWPG","A3HNEYFOIJWPH1","33Q5P9PUSP8QOKKNNN5S19YACNVCZX","","","null","","","","","","","",""
"620.1999998092651","","image-keyboard-response","377","316038","0.0-306.0","3DQQ64TANH77AYMG87CTBOZL2UGWPG","A3HNEYFOIJWPH1","33Q5P9PUSP8QOKKNNN5S19YACNVCZX","","img/set1/S2.jpg","83","2","random","68","false","random,structured_normal,structured_incentive","1,2,2,3","",""
"null","","html-keyboard-response","378","316402","0.0-307.0","3DQQ64TANH77AYMG87CTBOZL2UGWPG","A3HNEYFOIJWPH1","33Q5P9PUSP8QOKKNNN5S19YACNVCZX","","<img src=""img/set1/S2.jpg"" width=""540"" height = ""360"">","null","","","","","","","",""
"null","","html-keyboard-response","379","316405","0.0-308.0","3DQQ64TANH77AYMG87CTBOZL2UGWPG","A3HNEYFOIJWPH1","33Q5P9PUSP8QOKKNNN5S19YACNVCZX","","","null","","","","","","","",""
"680.2999997138977","","image-keyboard-response","380","317086","0.0-309.0","3DQQ64TANH77AYMG87CTBOZL2UGWPG","A3HNEYFOIJWPH1","33Q5P9PUSP8QOKKNNN5S19YACNVCZX","","img/set1/S2.jpg","68","2","random","68","true","random,structured_normal,structured_incentive","1,2,2,3","",""
"null","","html-keyboard-response","381","317437","0.0-310.0","3DQQ64TANH77AYMG87CTBOZL2UGWPG","A3HNEYFOIJWPH1","33Q5P9PUSP8QOKKNNN5S19YACNVCZX","","<img src=""img/set1/S2.jpg"" width=""540"" height = ""360"" style=""border:16px solid orange"">","null","","","","","","","",""
"null","","html-keyboard-response","382","317439","0.0-311.0","3DQQ64TANH77AYMG87CTBOZL2UGWPG","A3HNEYFOIJWPH1","33Q5P9PUSP8QOKKNNN5S19YACNVCZX","","","null","","","","","","","",""
"422.2000002861023","","image-keyboard-response","383","317862","0.0-312.0","3DQQ64TANH77AYMG87CTBOZL2UGWPG","A3HNEYFOIJWPH1","33Q5P9PUSP8QOKKNNN5S19YACNVCZX","","img/set1/S2.jpg","68","2","random","68","true","random,structured_normal,structured_incentive","1,2,2,3","",""
"null","","html-keyboard-response","384","318227","0.0-313.0","3DQQ64TANH77AYMG87CTBOZL2UGWPG","A3HNEYFOIJWPH1","33Q5P9PUSP8QOKKNNN5S19YACNVCZX","","<img src=""img/set1/S2.jpg"" width=""540"" height = ""360"" style=""border:16px solid orange"">","null","","","","","","","",""
"null","","html-keyboard-response","385","318230","0.0-314.0","3DQQ64TANH77AYMG87CTBOZL2UGWPG","A3HNEYFOIJWPH1","33Q5P9PUSP8QOKKNNN5S19YACNVCZX","","","null","","","","","","","",""
"871.6000003814697","","image-keyboard-response","386","319102","0.0-315.0","3DQQ64TANH77AYMG87CTBOZL2UGWPG","A3HNEYFOIJWPH1","33Q5P9PUSP8QOKKNNN5S19YACNVCZX","","img/set1/S3.jpg","74","3","random","72","false","random,structured_normal,structured_incentive","1,2,2,3","",""
"null","","html-keyboard-response","387","319456","0.0-316.0","3DQQ64TANH77AYMG87CTBOZL2UGWPG","A3HNEYFOIJWPH1","33Q5P9PUSP8QOKKNNN5S19YACNVCZX","","<img src=""img/set1/S3.jpg"" width=""540"" height = ""360"">","null","","","","","","","",""
"null","","html-keyboard-response","388","319459","0.0-317.0","3DQQ64TANH77AYMG87CTBOZL2UGWPG","A3HNEYFOIJWPH1","33Q5P9PUSP8QOKKNNN5S19YACNVCZX","","","null","","","","","","","",""
"441.69999980926514","","image-keyboard-response","389","319902","0.0-318.0","3DQQ64TANH77AYMG87CTBOZL2UGWPG","A3HNEYFOIJWPH1","33Q5P9PUSP8QOKKNNN5S19YACNVCZX","","img/set1/S3.jpg","72","3","random","72","true","random,structured_normal,structured_incentive","1,2,2,3","",""
"null","","html-keyboard-response","390","320253","0.0-319.0","3DQQ64TANH77AYMG87CTBOZL2UGWPG","A3HNEYFOIJWPH1","33Q5P9PUSP8QOKKNNN5S19YACNVCZX","","<img src=""img/set1/S3.jpg"" width=""540"" height = ""360"" style=""border:16px solid orange"">","null","","","","","","","",""
"null","","html-keyboard-response","391","320256","0.0-320.0","3DQQ64TANH77AYMG87CTBOZL2UGWPG","A3HNEYFOIJWPH1","33Q5P9PUSP8QOKKNNN5S19YACNVCZX","","","null","","","","","","","",""
"445.5","","image-keyboard-response","392","320703","0.0-321.0","3DQQ64TANH77AYMG87CTBOZL2UGWPG","A3HNEYFOIJWPH1","33Q5P9PUSP8QOKKNNN5S19YACNVCZX","","img/set1/S3.jpg","72","3","random","72","true","random,structured_normal,structured_incentive","1,2,2,3","",""
"null","","html-keyboard-response","393","321067","0.0-322.0","3DQQ64TANH77AYMG87CTBOZL2UGWPG","A3HNEYFOIJWPH1","33Q5P9PUSP8QOKKNNN5S19YACNVCZX","","<img src=""img/set1/S3.jpg"" width=""540"" height = ""360"" style=""border:16px solid orange"">","null","","","","","","","",""
"null","","html-keyboard-response","394","321070","0.0-323.0","3DQQ64TANH77AYMG87CTBOZL2UGWPG","A3HNEYFOIJWPH1","33Q5P9PUSP8QOKKNNN5S19YACNVCZX","","","null","","","","","","","",""
"999","","image-keyboard-response","395","322070","0.0-324.0","3DQQ64TANH77AYMG87CTBOZL2UGWPG","A3HNEYFOIJWPH1","33Q5P9PUSP8QOKKNNN5S19YACNVCZX","","img/set1/S1.jpg","83","1","random","83","true","random,structured_normal,structured_incentive","1,2,2,3","",""
"null","","html-keyboard-response","396","322421","0.0-325.0","3DQQ64TANH77AYMG87CTBOZL2UGWPG","A3HNEYFOIJWPH1","33Q5P9PUSP8QOKKNNN5S19YACNVCZX","","<img src=""img/set1/S1.jpg"" width=""540"" height = ""360"" style=""border:16px solid orange"">","null","","","","","","","",""
"null","","html-keyboard-response","397","322423","0.0-326.0","3DQQ64TANH77AYMG87CTBOZL2UGWPG","A3HNEYFOIJWPH1","33Q5P9PUSP8QOKKNNN5S19YACNVCZX","","","null","","","","","","","",""
"902.2999997138977","","image-keyboard-response","398","323326","0.0-327.0","3DQQ64TANH77AYMG87CTBOZL2UGWPG","A3HNEYFOIJWPH1","33Q5P9PUSP8QOKKNNN5S19YACNVCZX","","img/set1/S4.jpg","74","4","random","74","true","random,structured_normal,structured_incentive","1,2,2,3","",""
"null","","html-keyboard-response","399","323678","0.0-328.0","3DQQ64TANH77AYMG87CTBOZL2UGWPG","A3HNEYFOIJWPH1","33Q5P9PUSP8QOKKNNN5S19YACNVCZX","","<img src=""img/set1/S4.jpg"" width=""540"" height = ""360"" style=""border:16px solid orange"">","null","","","","","","","",""
"null","","html-keyboard-response","400","323681","0.0-329.0","3DQQ64TANH77AYMG87CTBOZL2UGWPG","A3HNEYFOIJWPH1","33Q5P9PUSP8QOKKNNN5S19YACNVCZX","","","null","","","","","","","",""
"818.8000001907349","","image-keyboard-response","401","324502","0.0-330.0","3DQQ64TANH77AYMG87CTBOZL2UGWPG","A3HNEYFOIJWPH1","33Q5P9PUSP8QOKKNNN5S19YACNVCZX","","img/set1/S2.jpg","68","2","random","68","true","random,structured_normal,structured_incentive","1,2,2,3","",""
"null","","html-keyboard-response","402","324853","0.0-331.0","3DQQ64TANH77AYMG87CTBOZL2UGWPG","A3HNEYFOIJWPH1","33Q5P9PUSP8QOKKNNN5S19YACNVCZX","","<img src=""img/set1/S2.jpg"" width=""540"" height = ""360"" style=""border:16px solid orange"">","null","","","","","","","",""
"null","","html-keyboard-response","403","324856","0.0-332.0","3DQQ64TANH77AYMG87CTBOZL2UGWPG","A3HNEYFOIJWPH1","33Q5P9PUSP8QOKKNNN5S19YACNVCZX","","","null","","","","","","","",""
"598.2000002861023","","image-keyboard-response","404","325456","0.0-333.0","3DQQ64TANH77AYMG87CTBOZL2UGWPG","A3HNEYFOIJWPH1","33Q5P9PUSP8QOKKNNN5S19YACNVCZX","","img/set1/S1.jpg","83","1","random","83","true","random,structured_normal,structured_incentive","1,2,2,3","",""
"null","","html-keyboard-response","405","325823","0.0-334.0","3DQQ64TANH77AYMG87CTBOZL2UGWPG","A3HNEYFOIJWPH1","33Q5P9PUSP8QOKKNNN5S19YACNVCZX","","<img src=""img/set1/S1.jpg"" width=""540"" height = ""360"" style=""border:16px solid orange"">","null","","","","","","","",""
"null","","html-keyboard-response","406","325826","0.0-335.0","3DQQ64TANH77AYMG87CTBOZL2UGWPG","A3HNEYFOIJWPH1","33Q5P9PUSP8QOKKNNN5S19YACNVCZX","","","null","","","","","","","",""
"749","","image-keyboard-response","407","326576","0.0-336.0","3DQQ64TANH77AYMG87CTBOZL2UGWPG","A3HNEYFOIJWPH1","33Q5P9PUSP8QOKKNNN5S19YACNVCZX","","img/set1/S4.jpg","74","4","random","74","true","random,structured_normal,structured_incentive","1,2,2,3","",""
"null","","html-keyboard-response","408","326943","0.0-337.0","3DQQ64TANH77AYMG87CTBOZL2UGWPG","A3HNEYFOIJWPH1","33Q5P9PUSP8QOKKNNN5S19YACNVCZX","","<img src=""img/set1/S4.jpg"" width=""540"" height = ""360"" style=""border:16px solid orange"">","null","","","","","","","",""
"null","","html-keyboard-response","409","326946","0.0-338.0","3DQQ64TANH77AYMG87CTBOZL2UGWPG","A3HNEYFOIJWPH1","33Q5P9PUSP8QOKKNNN5S19YACNVCZX","","","null","","","","","","","",""
"813","","image-keyboard-response","410","327760","0.0-339.0","3DQQ64TANH77AYMG87CTBOZL2UGWPG","A3HNEYFOIJWPH1","33Q5P9PUSP8QOKKNNN5S19YACNVCZX","","img/set1/S3.jpg","72","3","random","72","true","random,structured_normal,structured_incentive","1,2,2,3","",""
"null","","html-keyboard-response","411","328113","0.0-340.0","3DQQ64TANH77AYMG87CTBOZL2UGWPG","A3HNEYFOIJWPH1","33Q5P9PUSP8QOKKNNN5S19YACNVCZX","","<img src=""img/set1/S3.jpg"" width=""540"" height = ""360"" style=""border:16px solid orange"">","null","","","","","","","",""
"null","","html-keyboard-response","412","328116","0.0-341.0","3DQQ64TANH77AYMG87CTBOZL2UGWPG","A3HNEYFOIJWPH1","33Q5P9PUSP8QOKKNNN5S19YACNVCZX","","","null","","","","","","","",""
"453.90000009536743","","image-keyboard-response","413","328574","0.0-342.0","3DQQ64TANH77AYMG87CTBOZL2UGWPG","A3HNEYFOIJWPH1","33Q5P9PUSP8QOKKNNN5S19YACNVCZX","","img/set1/S3.jpg","72","3","random","72","true","random,structured_normal,structured_incentive","1,2,2,3","",""
"null","","html-keyboard-response","414","328926","0.0-343.0","3DQQ64TANH77AYMG87CTBOZL2UGWPG","A3HNEYFOIJWPH1","33Q5P9PUSP8QOKKNNN5S19YACNVCZX","","<img src=""img/set1/S3.jpg"" width=""540"" height = ""360"" style=""border:16px solid orange"">","null","","","","","","","",""
"null","","html-keyboard-response","415","328928","0.0-344.0","3DQQ64TANH77AYMG87CTBOZL2UGWPG","A3HNEYFOIJWPH1","33Q5P9PUSP8QOKKNNN5S19YACNVCZX","","","null","","","","","","","",""
