"rt","url","trial_type","trial_index","time_elapsed","internal_node_id","assignmentID","mturkID","hitID","view_history","stimulus","key_press","state","test_part","correct_response","correct","order_block","order_chunk","bonus","responses"
"13701.700000047684","consent.html","external-html","0","14021","0.0-0.0","30IQTZXKALSJBHNM1RTPY6CK3OB0X7","A3JAM040VWXHDO","3R5LWXWHR0UE010DORDQUF3E2FPGXE","","","","","","","","","","",""
"122886.59999990463","","instructions","1","136913","0.0-1.0","30IQTZXKALSJBHNM1RTPY6CK3OB0X7","A3JAM040VWXHDO","3R5LWXWHR0UE010DORDQUF3E2FPGXE","[{""page_index"":0,""viewing_time"":8344.299999952316},{""page_index"":1,""viewing_time"":10271},{""page_index"":2,""viewing_time"":17963.10000014305},{""page_index"":3,""viewing_time"":24124.39999985695},{""page_index"":4,""viewing_time"":7480.200000047684},{""page_index"":5,""viewing_time"":20644},{""page_index"":6,""viewing_time"":9645.700000047684},{""page_index"":7,""viewing_time"":24412.700000047684}]","","","","","","","","","",""
"1753.7999999523163","","image-keyboard-response","2","138670","0.0-2.0-0.0","30IQTZXKALSJBHNM1RTPY6CK3OB0X7","A3JAM040VWXHDO","3R5LWXWHR0UE010DORDQUF3E2FPGXE","","img/practice/S3.jpg","72","3","practice","72","true","","","",""
"null","","html-keyboard-response","3","138976","0.0-2.0-1.0","30IQTZXKALSJBHNM1RTPY6CK3OB0X7","A3JAM040VWXHDO","3R5LWXWHR0UE010DORDQUF3E2FPGXE","","<img src=""img/practice/S3.jpg"" width=""540"" height = ""360"" style=""border:16px solid orange"">","null","","","","","","","",""
"null","","html-keyboard-response","4","138981","0.0-2.0-2.0","30IQTZXKALSJBHNM1RTPY6CK3OB0X7","A3JAM040VWXHDO","3R5LWXWHR0UE010DORDQUF3E2FPGXE","","","null","","","","","","","",""
"1325.5999999046326","","image-keyboard-response","5","140310","0.0-2.0-0.1","30IQTZXKALSJBHNM1RTPY6CK3OB0X7","A3JAM040VWXHDO","3R5LWXWHR0UE010DORDQUF3E2FPGXE","","img/practice/S4.jpg","83","4","practice","74","false","","","",""
"null","","html-keyboard-response","6","140624","0.0-2.0-1.1","30IQTZXKALSJBHNM1RTPY6CK3OB0X7","A3JAM040VWXHDO","3R5LWXWHR0UE010DORDQUF3E2FPGXE","","<img src=""img/practice/S4.jpg"" width=""540"" height = ""360"">","null","","","","","","","",""
"null","","html-keyboard-response","7","140628","0.0-2.0-2.1","30IQTZXKALSJBHNM1RTPY6CK3OB0X7","A3JAM040VWXHDO","3R5LWXWHR0UE010DORDQUF3E2FPGXE","","","null","","","","","","","",""
"1437.7999999523163","","image-keyboard-response","8","142067","0.0-2.0-0.2","30IQTZXKALSJBHNM1RTPY6CK3OB0X7","A3JAM040VWXHDO","3R5LWXWHR0UE010DORDQUF3E2FPGXE","","img/practice/S1.jpg","68","1","practice","83","false","","","",""
"null","","html-keyboard-response","9","142379","0.0-2.0-1.2","30IQTZXKALSJBHNM1RTPY6CK3OB0X7","A3JAM040VWXHDO","3R5LWXWHR0UE010DORDQUF3E2FPGXE","","<img src=""img/practice/S1.jpg"" width=""540"" height = ""360"">","null","","","","","","","",""
"null","","html-keyboard-response","10","142381","0.0-2.0-2.2","30IQTZXKALSJBHNM1RTPY6CK3OB0X7","A3JAM040VWXHDO","3R5LWXWHR0UE010DORDQUF3E2FPGXE","","","null","","","","","","","",""
"1098.1999998092651","","image-keyboard-response","11","143481","0.0-2.0-0.3","30IQTZXKALSJBHNM1RTPY6CK3OB0X7","A3JAM040VWXHDO","3R5LWXWHR0UE010DORDQUF3E2FPGXE","","img/practice/S2.jpg","74","2","practice","68","false","","","",""
"null","","html-keyboard-response","12","143790","0.0-2.0-1.3","30IQTZXKALSJBHNM1RTPY6CK3OB0X7","A3JAM040VWXHDO","3R5LWXWHR0UE010DORDQUF3E2FPGXE","","<img src=""img/practice/S2.jpg"" width=""540"" height = ""360"">","null","","","","","","","",""
"null","","html-keyboard-response","13","143792","0.0-2.0-2.3","30IQTZXKALSJBHNM1RTPY6CK3OB0X7","A3JAM040VWXHDO","3R5LWXWHR0UE010DORDQUF3E2FPGXE","","","null","","","","","","","",""
"1008.7999999523163","","image-keyboard-response","14","144804","0.0-2.0-0.4","30IQTZXKALSJBHNM1RTPY6CK3OB0X7","A3JAM040VWXHDO","3R5LWXWHR0UE010DORDQUF3E2FPGXE","","img/practice/S3.jpg","72","3","practice","72","true","","","",""
"null","","html-keyboard-response","15","145106","0.0-2.0-1.4","30IQTZXKALSJBHNM1RTPY6CK3OB0X7","A3JAM040VWXHDO","3R5LWXWHR0UE010DORDQUF3E2FPGXE","","<img src=""img/practice/S3.jpg"" width=""540"" height = ""360"" style=""border:16px solid orange"">","null","","","","","","","",""
"null","","html-keyboard-response","16","145109","0.0-2.0-2.4","30IQTZXKALSJBHNM1RTPY6CK3OB0X7","A3JAM040VWXHDO","3R5LWXWHR0UE010DORDQUF3E2FPGXE","","","null","","","","","","","",""
"816.3999998569489","","image-keyboard-response","17","145927","0.0-2.0-0.5","30IQTZXKALSJBHNM1RTPY6CK3OB0X7","A3JAM040VWXHDO","3R5LWXWHR0UE010DORDQUF3E2FPGXE","","img/practice/S4.jpg","83","4","practice","74","false","","","",""
"null","","html-keyboard-response","18","146238","0.0-2.0-1.5","30IQTZXKALSJBHNM1RTPY6CK3OB0X7","A3JAM040VWXHDO","3R5LWXWHR0UE010DORDQUF3E2FPGXE","","<img src=""img/practice/S4.jpg"" width=""540"" height = ""360"">","null","","","","","","","",""
"null","","html-keyboard-response","19","146240","0.0-2.0-2.5","30IQTZXKALSJBHNM1RTPY6CK3OB0X7","A3JAM040VWXHDO","3R5LWXWHR0UE010DORDQUF3E2FPGXE","","","null","","","","","","","",""
"1454.3999998569489","","image-keyboard-response","20","147697","0.0-2.0-0.6","30IQTZXKALSJBHNM1RTPY6CK3OB0X7","A3JAM040VWXHDO","3R5LWXWHR0UE010DORDQUF3E2FPGXE","","img/practice/S2.jpg","74","2","practice","68","false","","","",""
"null","","html-keyboard-response","21","148003","0.0-2.0-1.6","30IQTZXKALSJBHNM1RTPY6CK3OB0X7","A3JAM040VWXHDO","3R5LWXWHR0UE010DORDQUF3E2FPGXE","","<img src=""img/practice/S2.jpg"" width=""540"" height = ""360"">","null","","","","","","","",""
"null","","html-keyboard-response","22","148006","0.0-2.0-2.6","30IQTZXKALSJBHNM1RTPY6CK3OB0X7","A3JAM040VWXHDO","3R5LWXWHR0UE010DORDQUF3E2FPGXE","","","null","","","","","","","",""
"1201.0999999046326","","image-keyboard-response","23","149210","0.0-2.0-0.7","30IQTZXKALSJBHNM1RTPY6CK3OB0X7","A3JAM040VWXHDO","3R5LWXWHR0UE010DORDQUF3E2FPGXE","","img/practice/S1.jpg","83","1","practice","83","true","","","",""
"null","","html-keyboard-response","24","149515","0.0-2.0-1.7","30IQTZXKALSJBHNM1RTPY6CK3OB0X7","A3JAM040VWXHDO","3R5LWXWHR0UE010DORDQUF3E2FPGXE","","<img src=""img/practice/S1.jpg"" width=""540"" height = ""360"" style=""border:16px solid orange"">","null","","","","","","","",""
"null","","html-keyboard-response","25","149518","0.0-2.0-2.7","30IQTZXKALSJBHNM1RTPY6CK3OB0X7","A3JAM040VWXHDO","3R5LWXWHR0UE010DORDQUF3E2FPGXE","","","null","","","","","","","",""
"1141.5999999046326","","image-keyboard-response","26","150660","0.0-2.0-0.8","30IQTZXKALSJBHNM1RTPY6CK3OB0X7","A3JAM040VWXHDO","3R5LWXWHR0UE010DORDQUF3E2FPGXE","","img/practice/S2.jpg","68","2","practice","68","true","","","",""
"null","","html-keyboard-response","27","150979","0.0-2.0-1.8","30IQTZXKALSJBHNM1RTPY6CK3OB0X7","A3JAM040VWXHDO","3R5LWXWHR0UE010DORDQUF3E2FPGXE","","<img src=""img/practice/S2.jpg"" width=""540"" height = ""360"" style=""border:16px solid orange"">","null","","","","","","","",""
"null","","html-keyboard-response","28","150983","0.0-2.0-2.8","30IQTZXKALSJBHNM1RTPY6CK3OB0X7","A3JAM040VWXHDO","3R5LWXWHR0UE010DORDQUF3E2FPGXE","","","null","","","","","","","",""
"1185.2999999523163","","image-keyboard-response","29","152170","0.0-2.0-0.9","30IQTZXKALSJBHNM1RTPY6CK3OB0X7","A3JAM040VWXHDO","3R5LWXWHR0UE010DORDQUF3E2FPGXE","","img/practice/S4.jpg","74","4","practice","74","true","","","",""
"null","","html-keyboard-response","30","152482","0.0-2.0-1.9","30IQTZXKALSJBHNM1RTPY6CK3OB0X7","A3JAM040VWXHDO","3R5LWXWHR0UE010DORDQUF3E2FPGXE","","<img src=""img/practice/S4.jpg"" width=""540"" height = ""360"" style=""border:16px solid orange"">","null","","","","","","","",""
"null","","html-keyboard-response","31","152484","0.0-2.0-2.9","30IQTZXKALSJBHNM1RTPY6CK3OB0X7","A3JAM040VWXHDO","3R5LWXWHR0UE010DORDQUF3E2FPGXE","","","null","","","","","","","",""
"954.3000001907349","","image-keyboard-response","32","153441","0.0-2.0-0.10","30IQTZXKALSJBHNM1RTPY6CK3OB0X7","A3JAM040VWXHDO","3R5LWXWHR0UE010DORDQUF3E2FPGXE","","img/practice/S1.jpg","68","1","practice","83","false","","","",""
"null","","html-keyboard-response","33","153745","0.0-2.0-1.10","30IQTZXKALSJBHNM1RTPY6CK3OB0X7","A3JAM040VWXHDO","3R5LWXWHR0UE010DORDQUF3E2FPGXE","","<img src=""img/practice/S1.jpg"" width=""540"" height = ""360"">","null","","","","","","","",""
"null","","html-keyboard-response","34","153747","0.0-2.0-2.10","30IQTZXKALSJBHNM1RTPY6CK3OB0X7","A3JAM040VWXHDO","3R5LWXWHR0UE010DORDQUF3E2FPGXE","","","null","","","","","","","",""
"938.4000000953674","","image-keyboard-response","35","154687","0.0-2.0-0.11","30IQTZXKALSJBHNM1RTPY6CK3OB0X7","A3JAM040VWXHDO","3R5LWXWHR0UE010DORDQUF3E2FPGXE","","img/practice/S3.jpg","72","3","practice","72","true","","","",""
"null","","html-keyboard-response","36","155003","0.0-2.0-1.11","30IQTZXKALSJBHNM1RTPY6CK3OB0X7","A3JAM040VWXHDO","3R5LWXWHR0UE010DORDQUF3E2FPGXE","","<img src=""img/practice/S3.jpg"" width=""540"" height = ""360"" style=""border:16px solid orange"">","null","","","","","","","",""
"null","","html-keyboard-response","37","155005","0.0-2.0-2.11","30IQTZXKALSJBHNM1RTPY6CK3OB0X7","A3JAM040VWXHDO","3R5LWXWHR0UE010DORDQUF3E2FPGXE","","","null","","","","","","","",""
"1140.7000000476837","","image-keyboard-response","38","156148","0.0-2.0-0.12","30IQTZXKALSJBHNM1RTPY6CK3OB0X7","A3JAM040VWXHDO","3R5LWXWHR0UE010DORDQUF3E2FPGXE","","img/practice/S4.jpg","68","4","practice","74","false","","","",""
"null","","html-keyboard-response","39","156466","0.0-2.0-1.12","30IQTZXKALSJBHNM1RTPY6CK3OB0X7","A3JAM040VWXHDO","3R5LWXWHR0UE010DORDQUF3E2FPGXE","","<img src=""img/practice/S4.jpg"" width=""540"" height = ""360"">","null","","","","","","","",""
"null","","html-keyboard-response","40","156467","0.0-2.0-2.12","30IQTZXKALSJBHNM1RTPY6CK3OB0X7","A3JAM040VWXHDO","3R5LWXWHR0UE010DORDQUF3E2FPGXE","","","null","","","","","","","",""
"965.5999999046326","","image-keyboard-response","41","157434","0.0-2.0-0.13","30IQTZXKALSJBHNM1RTPY6CK3OB0X7","A3JAM040VWXHDO","3R5LWXWHR0UE010DORDQUF3E2FPGXE","","img/practice/S1.jpg","68","1","practice","83","false","","","",""
"null","","html-keyboard-response","42","157744","0.0-2.0-1.13","30IQTZXKALSJBHNM1RTPY6CK3OB0X7","A3JAM040VWXHDO","3R5LWXWHR0UE010DORDQUF3E2FPGXE","","<img src=""img/practice/S1.jpg"" width=""540"" height = ""360"">","null","","","","","","","",""
"null","","html-keyboard-response","43","157752","0.0-2.0-2.13","30IQTZXKALSJBHNM1RTPY6CK3OB0X7","A3JAM040VWXHDO","3R5LWXWHR0UE010DORDQUF3E2FPGXE","","","null","","","","","","","",""
"846.6000001430511","","image-keyboard-response","44","158600","0.0-2.0-0.14","30IQTZXKALSJBHNM1RTPY6CK3OB0X7","A3JAM040VWXHDO","3R5LWXWHR0UE010DORDQUF3E2FPGXE","","img/practice/S3.jpg","72","3","practice","72","true","","","",""
"null","","html-keyboard-response","45","158910","0.0-2.0-1.14","30IQTZXKALSJBHNM1RTPY6CK3OB0X7","A3JAM040VWXHDO","3R5LWXWHR0UE010DORDQUF3E2FPGXE","","<img src=""img/practice/S3.jpg"" width=""540"" height = ""360"" style=""border:16px solid orange"">","null","","","","","","","",""
"null","","html-keyboard-response","46","158913","0.0-2.0-2.14","30IQTZXKALSJBHNM1RTPY6CK3OB0X7","A3JAM040VWXHDO","3R5LWXWHR0UE010DORDQUF3E2FPGXE","","","null","","","","","","","",""
"829.7999999523163","","image-keyboard-response","47","159744","0.0-2.0-0.15","30IQTZXKALSJBHNM1RTPY6CK3OB0X7","A3JAM040VWXHDO","3R5LWXWHR0UE010DORDQUF3E2FPGXE","","img/practice/S2.jpg","74","2","practice","68","false","","","",""
"null","","html-keyboard-response","48","160053","0.0-2.0-1.15","30IQTZXKALSJBHNM1RTPY6CK3OB0X7","A3JAM040VWXHDO","3R5LWXWHR0UE010DORDQUF3E2FPGXE","","<img src=""img/practice/S2.jpg"" width=""540"" height = ""360"">","null","","","","","","","",""
"null","","html-keyboard-response","49","160056","0.0-2.0-2.15","30IQTZXKALSJBHNM1RTPY6CK3OB0X7","A3JAM040VWXHDO","3R5LWXWHR0UE010DORDQUF3E2FPGXE","","","null","","","","","","","",""
"754.5","","image-keyboard-response","50","160813","0.0-2.0-0.16","30IQTZXKALSJBHNM1RTPY6CK3OB0X7","A3JAM040VWXHDO","3R5LWXWHR0UE010DORDQUF3E2FPGXE","","img/practice/S3.jpg","72","3","practice","72","true","","","",""
"null","","html-keyboard-response","51","161125","0.0-2.0-1.16","30IQTZXKALSJBHNM1RTPY6CK3OB0X7","A3JAM040VWXHDO","3R5LWXWHR0UE010DORDQUF3E2FPGXE","","<img src=""img/practice/S3.jpg"" width=""540"" height = ""360"" style=""border:16px solid orange"">","null","","","","","","","",""
"null","","html-keyboard-response","52","161128","0.0-2.0-2.16","30IQTZXKALSJBHNM1RTPY6CK3OB0X7","A3JAM040VWXHDO","3R5LWXWHR0UE010DORDQUF3E2FPGXE","","","null","","","","","","","",""
"1071.6999998092651","","image-keyboard-response","53","162202","0.0-2.0-0.17","30IQTZXKALSJBHNM1RTPY6CK3OB0X7","A3JAM040VWXHDO","3R5LWXWHR0UE010DORDQUF3E2FPGXE","","img/practice/S1.jpg","83","1","practice","83","true","","","",""
"null","","html-keyboard-response","54","162513","0.0-2.0-1.17","30IQTZXKALSJBHNM1RTPY6CK3OB0X7","A3JAM040VWXHDO","3R5LWXWHR0UE010DORDQUF3E2FPGXE","","<img src=""img/practice/S1.jpg"" width=""540"" height = ""360"" style=""border:16px solid orange"">","null","","","","","","","",""
"null","","html-keyboard-response","55","162515","0.0-2.0-2.17","30IQTZXKALSJBHNM1RTPY6CK3OB0X7","A3JAM040VWXHDO","3R5LWXWHR0UE010DORDQUF3E2FPGXE","","","null","","","","","","","",""
"973.5","","image-keyboard-response","56","163490","0.0-2.0-0.18","30IQTZXKALSJBHNM1RTPY6CK3OB0X7","A3JAM040VWXHDO","3R5LWXWHR0UE010DORDQUF3E2FPGXE","","img/practice/S2.jpg","68","2","practice","68","true","","","",""
"null","","html-keyboard-response","57","163793","0.0-2.0-1.18","30IQTZXKALSJBHNM1RTPY6CK3OB0X7","A3JAM040VWXHDO","3R5LWXWHR0UE010DORDQUF3E2FPGXE","","<img src=""img/practice/S2.jpg"" width=""540"" height = ""360"" style=""border:16px solid orange"">","null","","","","","","","",""
"null","","html-keyboard-response","58","163795","0.0-2.0-2.18","30IQTZXKALSJBHNM1RTPY6CK3OB0X7","A3JAM040VWXHDO","3R5LWXWHR0UE010DORDQUF3E2FPGXE","","","null","","","","","","","",""
"1031.7999999523163","","image-keyboard-response","59","164830","0.0-2.0-0.19","30IQTZXKALSJBHNM1RTPY6CK3OB0X7","A3JAM040VWXHDO","3R5LWXWHR0UE010DORDQUF3E2FPGXE","","img/practice/S4.jpg","74","4","practice","74","true","","","",""
"null","","html-keyboard-response","60","165149","0.0-2.0-1.19","30IQTZXKALSJBHNM1RTPY6CK3OB0X7","A3JAM040VWXHDO","3R5LWXWHR0UE010DORDQUF3E2FPGXE","","<img src=""img/practice/S4.jpg"" width=""540"" height = ""360"" style=""border:16px solid orange"">","null","","","","","","","",""
"null","","html-keyboard-response","61","165151","0.0-2.0-2.19","30IQTZXKALSJBHNM1RTPY6CK3OB0X7","A3JAM040VWXHDO","3R5LWXWHR0UE010DORDQUF3E2FPGXE","","","null","","","","","","","",""
"821.5","","image-keyboard-response","62","165975","0.0-2.0-0.20","30IQTZXKALSJBHNM1RTPY6CK3OB0X7","A3JAM040VWXHDO","3R5LWXWHR0UE010DORDQUF3E2FPGXE","","img/practice/S3.jpg","72","3","practice","72","true","","","",""
"null","","html-keyboard-response","63","166280","0.0-2.0-1.20","30IQTZXKALSJBHNM1RTPY6CK3OB0X7","A3JAM040VWXHDO","3R5LWXWHR0UE010DORDQUF3E2FPGXE","","<img src=""img/practice/S3.jpg"" width=""540"" height = ""360"" style=""border:16px solid orange"">","null","","","","","","","",""
"null","","html-keyboard-response","64","166282","0.0-2.0-2.20","30IQTZXKALSJBHNM1RTPY6CK3OB0X7","A3JAM040VWXHDO","3R5LWXWHR0UE010DORDQUF3E2FPGXE","","","null","","","","","","","",""
"1091.5","","image-keyboard-response","65","167375","0.0-2.0-0.21","30IQTZXKALSJBHNM1RTPY6CK3OB0X7","A3JAM040VWXHDO","3R5LWXWHR0UE010DORDQUF3E2FPGXE","","img/practice/S1.jpg","83","1","practice","83","true","","","",""
"null","","html-keyboard-response","66","167682","0.0-2.0-1.21","30IQTZXKALSJBHNM1RTPY6CK3OB0X7","A3JAM040VWXHDO","3R5LWXWHR0UE010DORDQUF3E2FPGXE","","<img src=""img/practice/S1.jpg"" width=""540"" height = ""360"" style=""border:16px solid orange"">","null","","","","","","","",""
"null","","html-keyboard-response","67","167685","0.0-2.0-2.21","30IQTZXKALSJBHNM1RTPY6CK3OB0X7","A3JAM040VWXHDO","3R5LWXWHR0UE010DORDQUF3E2FPGXE","","","null","","","","","","","",""
"603.2000000476837","","image-keyboard-response","68","168290","0.0-2.0-0.22","30IQTZXKALSJBHNM1RTPY6CK3OB0X7","A3JAM040VWXHDO","3R5LWXWHR0UE010DORDQUF3E2FPGXE","","img/practice/S2.jpg","68","2","practice","68","true","","","",""
"null","","html-keyboard-response","69","168600","0.0-2.0-1.22","30IQTZXKALSJBHNM1RTPY6CK3OB0X7","A3JAM040VWXHDO","3R5LWXWHR0UE010DORDQUF3E2FPGXE","","<img src=""img/practice/S2.jpg"" width=""540"" height = ""360"" style=""border:16px solid orange"">","null","","","","","","","",""
"null","","html-keyboard-response","70","168608","0.0-2.0-2.22","30IQTZXKALSJBHNM1RTPY6CK3OB0X7","A3JAM040VWXHDO","3R5LWXWHR0UE010DORDQUF3E2FPGXE","","","null","","","","","","","",""
"1101.2999999523163","","image-keyboard-response","71","169712","0.0-2.0-0.23","30IQTZXKALSJBHNM1RTPY6CK3OB0X7","A3JAM040VWXHDO","3R5LWXWHR0UE010DORDQUF3E2FPGXE","","img/practice/S4.jpg","74","4","practice","74","true","","","",""
"null","","html-keyboard-response","72","170024","0.0-2.0-1.23","30IQTZXKALSJBHNM1RTPY6CK3OB0X7","A3JAM040VWXHDO","3R5LWXWHR0UE010DORDQUF3E2FPGXE","","<img src=""img/practice/S4.jpg"" width=""540"" height = ""360"" style=""border:16px solid orange"">","null","","","","","","","",""
"null","","html-keyboard-response","73","170027","0.0-2.0-2.23","30IQTZXKALSJBHNM1RTPY6CK3OB0X7","A3JAM040VWXHDO","3R5LWXWHR0UE010DORDQUF3E2FPGXE","","","null","","","","","","","",""
"4211.400000095367","","instructions","74","174239","0.0-3.0","30IQTZXKALSJBHNM1RTPY6CK3OB0X7","A3JAM040VWXHDO","3R5LWXWHR0UE010DORDQUF3E2FPGXE","[{""page_index"":0,""viewing_time"":4211.099999904633}]","","","","","","","","","",""
"21680.5","","instructions","75","195920","0.0-4.0","30IQTZXKALSJBHNM1RTPY6CK3OB0X7","A3JAM040VWXHDO","3R5LWXWHR0UE010DORDQUF3E2FPGXE","[{""page_index"":0,""viewing_time"":21680.099999904633}]","","","","","","","","","",""
"5973.400000095367","","instructions","76","201895","0.0-5.0","30IQTZXKALSJBHNM1RTPY6CK3OB0X7","A3JAM040VWXHDO","3R5LWXWHR0UE010DORDQUF3E2FPGXE","[{""page_index"":0,""viewing_time"":5973.200000047684}]","","","","","","","","","",""
"988.3000001907349","","image-keyboard-response","77","202885","0.0-6.0","30IQTZXKALSJBHNM1RTPY6CK3OB0X7","A3JAM040VWXHDO","3R5LWXWHR0UE010DORDQUF3E2FPGXE","","img/set1/S3.jpg","83","3","structured_normal","72","false","structured_normal,structured_incentive,random","1,2,2,3","",""
"null","","html-keyboard-response","78","203255","0.0-7.0","30IQTZXKALSJBHNM1RTPY6CK3OB0X7","A3JAM040VWXHDO","3R5LWXWHR0UE010DORDQUF3E2FPGXE","","<img src=""img/set1/S3.jpg"" width=""540"" height = ""360"">","null","","","","","","","",""
"null","","html-keyboard-response","79","203261","0.0-8.0","30IQTZXKALSJBHNM1RTPY6CK3OB0X7","A3JAM040VWXHDO","3R5LWXWHR0UE010DORDQUF3E2FPGXE","","","null","","","","","","","",""
"879.7000000476837","","image-keyboard-response","80","204144","0.0-9.0","30IQTZXKALSJBHNM1RTPY6CK3OB0X7","A3JAM040VWXHDO","3R5LWXWHR0UE010DORDQUF3E2FPGXE","","img/set1/S3.jpg","68","3","structured_normal","72","false","structured_normal,structured_incentive,random","1,2,2,3","",""
"null","","html-keyboard-response","81","204500","0.0-10.0","30IQTZXKALSJBHNM1RTPY6CK3OB0X7","A3JAM040VWXHDO","3R5LWXWHR0UE010DORDQUF3E2FPGXE","","<img src=""img/set1/S3.jpg"" width=""540"" height = ""360"">","null","","","","","","","",""
"null","","html-keyboard-response","82","204502","0.0-11.0","30IQTZXKALSJBHNM1RTPY6CK3OB0X7","A3JAM040VWXHDO","3R5LWXWHR0UE010DORDQUF3E2FPGXE","","","null","","","","","","","",""
"1493","","image-keyboard-response","83","205996","0.0-12.0","30IQTZXKALSJBHNM1RTPY6CK3OB0X7","A3JAM040VWXHDO","3R5LWXWHR0UE010DORDQUF3E2FPGXE","","img/set1/S2.jpg","83","2","structured_normal","68","false","structured_normal,structured_incentive,random","1,2,2,3","",""
"null","","html-keyboard-response","84","206358","0.0-13.0","30IQTZXKALSJBHNM1RTPY6CK3OB0X7","A3JAM040VWXHDO","3R5LWXWHR0UE010DORDQUF3E2FPGXE","","<img src=""img/set1/S2.jpg"" width=""540"" height = ""360"">","null","","","","","","","",""
"null","","html-keyboard-response","85","206361","0.0-14.0","30IQTZXKALSJBHNM1RTPY6CK3OB0X7","A3JAM040VWXHDO","3R5LWXWHR0UE010DORDQUF3E2FPGXE","","","null","","","","","","","",""
"1109.2000000476837","","image-keyboard-response","86","207474","0.0-15.0","30IQTZXKALSJBHNM1RTPY6CK3OB0X7","A3JAM040VWXHDO","3R5LWXWHR0UE010DORDQUF3E2FPGXE","","img/set1/S3.jpg","72","3","structured_normal","72","true","structured_normal,structured_incentive,random","1,2,2,3","",""
"null","","html-keyboard-response","87","207846","0.0-16.0","30IQTZXKALSJBHNM1RTPY6CK3OB0X7","A3JAM040VWXHDO","3R5LWXWHR0UE010DORDQUF3E2FPGXE","","<img src=""img/set1/S3.jpg"" width=""540"" height = ""360"" style=""border:16px solid orange"">","null","","","","","","","",""
"null","","html-keyboard-response","88","207850","0.0-17.0","30IQTZXKALSJBHNM1RTPY6CK3OB0X7","A3JAM040VWXHDO","3R5LWXWHR0UE010DORDQUF3E2FPGXE","","","null","","","","","","","",""
"952.3000001907349","","image-keyboard-response","89","208803","0.0-18.0","30IQTZXKALSJBHNM1RTPY6CK3OB0X7","A3JAM040VWXHDO","3R5LWXWHR0UE010DORDQUF3E2FPGXE","","img/set1/S4.jpg","74","4","structured_normal","74","true","structured_normal,structured_incentive,random","1,2,2,3","",""
"null","","html-keyboard-response","90","209164","0.0-19.0","30IQTZXKALSJBHNM1RTPY6CK3OB0X7","A3JAM040VWXHDO","3R5LWXWHR0UE010DORDQUF3E2FPGXE","","<img src=""img/set1/S4.jpg"" width=""540"" height = ""360"" style=""border:16px solid orange"">","null","","","","","","","",""
"null","","html-keyboard-response","91","209168","0.0-20.0","30IQTZXKALSJBHNM1RTPY6CK3OB0X7","A3JAM040VWXHDO","3R5LWXWHR0UE010DORDQUF3E2FPGXE","","","null","","","","","","","",""
"1022.5","","image-keyboard-response","92","210191","0.0-21.0","30IQTZXKALSJBHNM1RTPY6CK3OB0X7","A3JAM040VWXHDO","3R5LWXWHR0UE010DORDQUF3E2FPGXE","","img/set1/S1.jpg","68","1","structured_normal","83","false","structured_normal,structured_incentive,random","1,2,2,3","",""
"null","","html-keyboard-response","93","210552","0.0-22.0","30IQTZXKALSJBHNM1RTPY6CK3OB0X7","A3JAM040VWXHDO","3R5LWXWHR0UE010DORDQUF3E2FPGXE","","<img src=""img/set1/S1.jpg"" width=""540"" height = ""360"">","null","","","","","","","",""
"null","","html-keyboard-response","94","210556","0.0-23.0","30IQTZXKALSJBHNM1RTPY6CK3OB0X7","A3JAM040VWXHDO","3R5LWXWHR0UE010DORDQUF3E2FPGXE","","","null","","","","","","","",""
"1077.8999998569489","","image-keyboard-response","95","211635","0.0-24.0","30IQTZXKALSJBHNM1RTPY6CK3OB0X7","A3JAM040VWXHDO","3R5LWXWHR0UE010DORDQUF3E2FPGXE","","img/set1/S2.jpg","83","2","structured_normal","68","false","structured_normal,structured_incentive,random","1,2,2,3","",""
"null","","html-keyboard-response","96","211988","0.0-25.0","30IQTZXKALSJBHNM1RTPY6CK3OB0X7","A3JAM040VWXHDO","3R5LWXWHR0UE010DORDQUF3E2FPGXE","","<img src=""img/set1/S2.jpg"" width=""540"" height = ""360"">","null","","","","","","","",""
"null","","html-keyboard-response","97","211991","0.0-26.0","30IQTZXKALSJBHNM1RTPY6CK3OB0X7","A3JAM040VWXHDO","3R5LWXWHR0UE010DORDQUF3E2FPGXE","","","null","","","","","","","",""
"1009.0999999046326","","image-keyboard-response","98","213002","0.0-27.0","30IQTZXKALSJBHNM1RTPY6CK3OB0X7","A3JAM040VWXHDO","3R5LWXWHR0UE010DORDQUF3E2FPGXE","","img/set1/S4.jpg","72","4","structured_normal","74","false","structured_normal,structured_incentive,random","1,2,2,3","",""
"null","","html-keyboard-response","99","213360","0.0-28.0","30IQTZXKALSJBHNM1RTPY6CK3OB0X7","A3JAM040VWXHDO","3R5LWXWHR0UE010DORDQUF3E2FPGXE","","<img src=""img/set1/S4.jpg"" width=""540"" height = ""360"">","null","","","","","","","",""
"null","","html-keyboard-response","100","213363","0.0-29.0","30IQTZXKALSJBHNM1RTPY6CK3OB0X7","A3JAM040VWXHDO","3R5LWXWHR0UE010DORDQUF3E2FPGXE","","","null","","","","","","","",""
"1184.5","","image-keyboard-response","101","214549","0.0-30.0","30IQTZXKALSJBHNM1RTPY6CK3OB0X7","A3JAM040VWXHDO","3R5LWXWHR0UE010DORDQUF3E2FPGXE","","img/set1/S1.jpg","68","1","structured_normal","83","false","structured_normal,structured_incentive,random","1,2,2,3","",""
"null","","html-keyboard-response","102","214907","0.0-31.0","30IQTZXKALSJBHNM1RTPY6CK3OB0X7","A3JAM040VWXHDO","3R5LWXWHR0UE010DORDQUF3E2FPGXE","","<img src=""img/set1/S1.jpg"" width=""540"" height = ""360"">","null","","","","","","","",""
"null","","html-keyboard-response","103","214910","0.0-32.0","30IQTZXKALSJBHNM1RTPY6CK3OB0X7","A3JAM040VWXHDO","3R5LWXWHR0UE010DORDQUF3E2FPGXE","","","null","","","","","","","",""
"1277.7000000476837","","image-keyboard-response","104","216189","0.0-33.0","30IQTZXKALSJBHNM1RTPY6CK3OB0X7","A3JAM040VWXHDO","3R5LWXWHR0UE010DORDQUF3E2FPGXE","","img/set1/S2.jpg","68","2","structured_normal","68","true","structured_normal,structured_incentive,random","1,2,2,3","",""
"null","","html-keyboard-response","105","216543","0.0-34.0","30IQTZXKALSJBHNM1RTPY6CK3OB0X7","A3JAM040VWXHDO","3R5LWXWHR0UE010DORDQUF3E2FPGXE","","<img src=""img/set1/S2.jpg"" width=""540"" height = ""360"" style=""border:16px solid orange"">","null","","","","","","","",""
"null","","html-keyboard-response","106","216545","0.0-35.0","30IQTZXKALSJBHNM1RTPY6CK3OB0X7","A3JAM040VWXHDO","3R5LWXWHR0UE010DORDQUF3E2FPGXE","","","null","","","","","","","",""
"848.5999999046326","","image-keyboard-response","107","217395","0.0-36.0","30IQTZXKALSJBHNM1RTPY6CK3OB0X7","A3JAM040VWXHDO","3R5LWXWHR0UE010DORDQUF3E2FPGXE","","img/set1/S1.jpg","83","1","structured_normal","83","true","structured_normal,structured_incentive,random","1,2,2,3","",""
"null","","html-keyboard-response","108","217761","0.0-37.0","30IQTZXKALSJBHNM1RTPY6CK3OB0X7","A3JAM040VWXHDO","3R5LWXWHR0UE010DORDQUF3E2FPGXE","","<img src=""img/set1/S1.jpg"" width=""540"" height = ""360"" style=""border:16px solid orange"">","null","","","","","","","",""
"null","","html-keyboard-response","109","217764","0.0-38.0","30IQTZXKALSJBHNM1RTPY6CK3OB0X7","A3JAM040VWXHDO","3R5LWXWHR0UE010DORDQUF3E2FPGXE","","","null","","","","","","","",""
"844.5","","image-keyboard-response","110","218610","0.0-39.0","30IQTZXKALSJBHNM1RTPY6CK3OB0X7","A3JAM040VWXHDO","3R5LWXWHR0UE010DORDQUF3E2FPGXE","","img/set1/S2.jpg","68","2","structured_normal","68","true","structured_normal,structured_incentive,random","1,2,2,3","",""
"null","","html-keyboard-response","111","218975","0.0-40.0","30IQTZXKALSJBHNM1RTPY6CK3OB0X7","A3JAM040VWXHDO","3R5LWXWHR0UE010DORDQUF3E2FPGXE","","<img src=""img/set1/S2.jpg"" width=""540"" height = ""360"" style=""border:16px solid orange"">","null","","","","","","","",""
"null","","html-keyboard-response","112","218978","0.0-41.0","30IQTZXKALSJBHNM1RTPY6CK3OB0X7","A3JAM040VWXHDO","3R5LWXWHR0UE010DORDQUF3E2FPGXE","","","null","","","","","","","",""
"879","","image-keyboard-response","113","219859","0.0-42.0","30IQTZXKALSJBHNM1RTPY6CK3OB0X7","A3JAM040VWXHDO","3R5LWXWHR0UE010DORDQUF3E2FPGXE","","img/set1/S1.jpg","83","1","structured_normal","83","true","structured_normal,structured_incentive,random","1,2,2,3","",""
"null","","html-keyboard-response","114","220220","0.0-43.0","30IQTZXKALSJBHNM1RTPY6CK3OB0X7","A3JAM040VWXHDO","3R5LWXWHR0UE010DORDQUF3E2FPGXE","","<img src=""img/set1/S1.jpg"" width=""540"" height = ""360"" style=""border:16px solid orange"">","null","","","","","","","",""
"null","","html-keyboard-response","115","220223","0.0-44.0","30IQTZXKALSJBHNM1RTPY6CK3OB0X7","A3JAM040VWXHDO","3R5LWXWHR0UE010DORDQUF3E2FPGXE","","","null","","","","","","","",""
"1229.4000000953674","","image-keyboard-response","116","221454","0.0-45.0","30IQTZXKALSJBHNM1RTPY6CK3OB0X7","A3JAM040VWXHDO","3R5LWXWHR0UE010DORDQUF3E2FPGXE","","img/set1/S3.jpg","72","3","structured_normal","72","true","structured_normal,structured_incentive,random","1,2,2,3","",""
"null","","html-keyboard-response","117","221807","0.0-46.0","30IQTZXKALSJBHNM1RTPY6CK3OB0X7","A3JAM040VWXHDO","3R5LWXWHR0UE010DORDQUF3E2FPGXE","","<img src=""img/set1/S3.jpg"" width=""540"" height = ""360"" style=""border:16px solid orange"">","null","","","","","","","",""
"null","","html-keyboard-response","118","221809","0.0-47.0","30IQTZXKALSJBHNM1RTPY6CK3OB0X7","A3JAM040VWXHDO","3R5LWXWHR0UE010DORDQUF3E2FPGXE","","","null","","","","","","","",""
"653.6000001430511","","image-keyboard-response","119","222464","0.0-48.0","30IQTZXKALSJBHNM1RTPY6CK3OB0X7","A3JAM040VWXHDO","3R5LWXWHR0UE010DORDQUF3E2FPGXE","","img/set1/S4.jpg","74","4","structured_normal","74","true","structured_normal,structured_incentive,random","1,2,2,3","",""
"null","","html-keyboard-response","120","222827","0.0-49.0","30IQTZXKALSJBHNM1RTPY6CK3OB0X7","A3JAM040VWXHDO","3R5LWXWHR0UE010DORDQUF3E2FPGXE","","<img src=""img/set1/S4.jpg"" width=""540"" height = ""360"" style=""border:16px solid orange"">","null","","","","","","","",""
"null","","html-keyboard-response","121","222829","0.0-50.0","30IQTZXKALSJBHNM1RTPY6CK3OB0X7","A3JAM040VWXHDO","3R5LWXWHR0UE010DORDQUF3E2FPGXE","","","null","","","","","","","",""
"914.0999999046326","","image-keyboard-response","122","223746","0.0-51.0","30IQTZXKALSJBHNM1RTPY6CK3OB0X7","A3JAM040VWXHDO","3R5LWXWHR0UE010DORDQUF3E2FPGXE","","img/set1/S3.jpg","72","3","structured_normal","72","true","structured_normal,structured_incentive,random","1,2,2,3","",""
"null","","html-keyboard-response","123","224115","0.0-52.0","30IQTZXKALSJBHNM1RTPY6CK3OB0X7","A3JAM040VWXHDO","3R5LWXWHR0UE010DORDQUF3E2FPGXE","","<img src=""img/set1/S3.jpg"" width=""540"" height = ""360"" style=""border:16px solid orange"">","null","","","","","","","",""
"null","","html-keyboard-response","124","224118","0.0-53.0","30IQTZXKALSJBHNM1RTPY6CK3OB0X7","A3JAM040VWXHDO","3R5LWXWHR0UE010DORDQUF3E2FPGXE","","","null","","","","","","","",""
"640.7999999523163","","image-keyboard-response","125","224761","0.0-54.0","30IQTZXKALSJBHNM1RTPY6CK3OB0X7","A3JAM040VWXHDO","3R5LWXWHR0UE010DORDQUF3E2FPGXE","","img/set1/S3.jpg","72","3","structured_normal","72","true","structured_normal,structured_incentive,random","1,2,2,3","",""
"null","","html-keyboard-response","126","225117","0.0-55.0","30IQTZXKALSJBHNM1RTPY6CK3OB0X7","A3JAM040VWXHDO","3R5LWXWHR0UE010DORDQUF3E2FPGXE","","<img src=""img/set1/S3.jpg"" width=""540"" height = ""360"" style=""border:16px solid orange"">","null","","","","","","","",""
"null","","html-keyboard-response","127","225119","0.0-56.0","30IQTZXKALSJBHNM1RTPY6CK3OB0X7","A3JAM040VWXHDO","3R5LWXWHR0UE010DORDQUF3E2FPGXE","","","null","","","","","","","",""
"1333.4000000953674","","image-keyboard-response","128","226453","0.0-57.0","30IQTZXKALSJBHNM1RTPY6CK3OB0X7","A3JAM040VWXHDO","3R5LWXWHR0UE010DORDQUF3E2FPGXE","","img/set1/S2.jpg","68","2","structured_normal","68","true","structured_normal,structured_incentive,random","1,2,2,3","",""
"null","","html-keyboard-response","129","226814","0.0-58.0","30IQTZXKALSJBHNM1RTPY6CK3OB0X7","A3JAM040VWXHDO","3R5LWXWHR0UE010DORDQUF3E2FPGXE","","<img src=""img/set1/S2.jpg"" width=""540"" height = ""360"" style=""border:16px solid orange"">","null","","","","","","","",""
"null","","html-keyboard-response","130","226816","0.0-59.0","30IQTZXKALSJBHNM1RTPY6CK3OB0X7","A3JAM040VWXHDO","3R5LWXWHR0UE010DORDQUF3E2FPGXE","","","null","","","","","","","",""
"1348.6000001430511","","image-keyboard-response","131","228165","0.0-60.0","30IQTZXKALSJBHNM1RTPY6CK3OB0X7","A3JAM040VWXHDO","3R5LWXWHR0UE010DORDQUF3E2FPGXE","","img/set1/S3.jpg","74","3","structured_normal","72","false","structured_normal,structured_incentive,random","1,2,2,3","",""
"null","","html-keyboard-response","132","228531","0.0-61.0","30IQTZXKALSJBHNM1RTPY6CK3OB0X7","A3JAM040VWXHDO","3R5LWXWHR0UE010DORDQUF3E2FPGXE","","<img src=""img/set1/S3.jpg"" width=""540"" height = ""360"">","null","","","","","","","",""
"null","","html-keyboard-response","133","228534","0.0-62.0","30IQTZXKALSJBHNM1RTPY6CK3OB0X7","A3JAM040VWXHDO","3R5LWXWHR0UE010DORDQUF3E2FPGXE","","","null","","","","","","","",""
"908.2000000476837","","image-keyboard-response","134","229444","0.0-63.0","30IQTZXKALSJBHNM1RTPY6CK3OB0X7","A3JAM040VWXHDO","3R5LWXWHR0UE010DORDQUF3E2FPGXE","","img/set1/S4.jpg","74","4","structured_normal","74","true","structured_normal,structured_incentive,random","1,2,2,3","",""
"null","","html-keyboard-response","135","229796","0.0-64.0","30IQTZXKALSJBHNM1RTPY6CK3OB0X7","A3JAM040VWXHDO","3R5LWXWHR0UE010DORDQUF3E2FPGXE","","<img src=""img/set1/S4.jpg"" width=""540"" height = ""360"" style=""border:16px solid orange"">","null","","","","","","","",""
"null","","html-keyboard-response","136","229798","0.0-65.0","30IQTZXKALSJBHNM1RTPY6CK3OB0X7","A3JAM040VWXHDO","3R5LWXWHR0UE010DORDQUF3E2FPGXE","","","null","","","","","","","",""
"647.4000000953674","","image-keyboard-response","137","230447","0.0-66.0","30IQTZXKALSJBHNM1RTPY6CK3OB0X7","A3JAM040VWXHDO","3R5LWXWHR0UE010DORDQUF3E2FPGXE","","img/set1/S4.jpg","74","4","structured_normal","74","true","structured_normal,structured_incentive,random","1,2,2,3","",""
"null","","html-keyboard-response","138","230807","0.0-67.0","30IQTZXKALSJBHNM1RTPY6CK3OB0X7","A3JAM040VWXHDO","3R5LWXWHR0UE010DORDQUF3E2FPGXE","","<img src=""img/set1/S4.jpg"" width=""540"" height = ""360"" style=""border:16px solid orange"">","null","","","","","","","",""
"null","","html-keyboard-response","139","230809","0.0-68.0","30IQTZXKALSJBHNM1RTPY6CK3OB0X7","A3JAM040VWXHDO","3R5LWXWHR0UE010DORDQUF3E2FPGXE","","","null","","","","","","","",""
"842.6000001430511","","image-keyboard-response","140","231653","0.0-69.0","30IQTZXKALSJBHNM1RTPY6CK3OB0X7","A3JAM040VWXHDO","3R5LWXWHR0UE010DORDQUF3E2FPGXE","","img/set1/S2.jpg","68","2","structured_normal","68","true","structured_normal,structured_incentive,random","1,2,2,3","",""
"null","","html-keyboard-response","141","232008","0.0-70.0","30IQTZXKALSJBHNM1RTPY6CK3OB0X7","A3JAM040VWXHDO","3R5LWXWHR0UE010DORDQUF3E2FPGXE","","<img src=""img/set1/S2.jpg"" width=""540"" height = ""360"" style=""border:16px solid orange"">","null","","","","","","","",""
"null","","html-keyboard-response","142","232011","0.0-71.0","30IQTZXKALSJBHNM1RTPY6CK3OB0X7","A3JAM040VWXHDO","3R5LWXWHR0UE010DORDQUF3E2FPGXE","","","null","","","","","","","",""
"835","","image-keyboard-response","143","232848","0.0-72.0","30IQTZXKALSJBHNM1RTPY6CK3OB0X7","A3JAM040VWXHDO","3R5LWXWHR0UE010DORDQUF3E2FPGXE","","img/set1/S4.jpg","74","4","structured_normal","74","true","structured_normal,structured_incentive,random","1,2,2,3","",""
"null","","html-keyboard-response","144","233222","0.0-73.0","30IQTZXKALSJBHNM1RTPY6CK3OB0X7","A3JAM040VWXHDO","3R5LWXWHR0UE010DORDQUF3E2FPGXE","","<img src=""img/set1/S4.jpg"" width=""540"" height = ""360"" style=""border:16px solid orange"">","null","","","","","","","",""
"null","","html-keyboard-response","145","233225","0.0-74.0","30IQTZXKALSJBHNM1RTPY6CK3OB0X7","A3JAM040VWXHDO","3R5LWXWHR0UE010DORDQUF3E2FPGXE","","","null","","","","","","","",""
"551.7000000476837","","image-keyboard-response","146","233779","0.0-75.0","30IQTZXKALSJBHNM1RTPY6CK3OB0X7","A3JAM040VWXHDO","3R5LWXWHR0UE010DORDQUF3E2FPGXE","","img/set1/S4.jpg","74","4","structured_normal","74","true","structured_normal,structured_incentive,random","1,2,2,3","",""
"null","","html-keyboard-response","147","234141","0.0-76.0","30IQTZXKALSJBHNM1RTPY6CK3OB0X7","A3JAM040VWXHDO","3R5LWXWHR0UE010DORDQUF3E2FPGXE","","<img src=""img/set1/S4.jpg"" width=""540"" height = ""360"" style=""border:16px solid orange"">","null","","","","","","","",""
"null","","html-keyboard-response","148","234143","0.0-77.0","30IQTZXKALSJBHNM1RTPY6CK3OB0X7","A3JAM040VWXHDO","3R5LWXWHR0UE010DORDQUF3E2FPGXE","","","null","","","","","","","",""
"551.2999999523163","","image-keyboard-response","149","234696","0.0-78.0","30IQTZXKALSJBHNM1RTPY6CK3OB0X7","A3JAM040VWXHDO","3R5LWXWHR0UE010DORDQUF3E2FPGXE","","img/set1/S4.jpg","74","4","structured_normal","74","true","structured_normal,structured_incentive,random","1,2,2,3","",""
"null","","html-keyboard-response","150","235058","0.0-79.0","30IQTZXKALSJBHNM1RTPY6CK3OB0X7","A3JAM040VWXHDO","3R5LWXWHR0UE010DORDQUF3E2FPGXE","","<img src=""img/set1/S4.jpg"" width=""540"" height = ""360"" style=""border:16px solid orange"">","null","","","","","","","",""
"null","","html-keyboard-response","151","235061","0.0-80.0","30IQTZXKALSJBHNM1RTPY6CK3OB0X7","A3JAM040VWXHDO","3R5LWXWHR0UE010DORDQUF3E2FPGXE","","","null","","","","","","","",""
"617.8999998569489","","image-keyboard-response","152","235680","0.0-81.0","30IQTZXKALSJBHNM1RTPY6CK3OB0X7","A3JAM040VWXHDO","3R5LWXWHR0UE010DORDQUF3E2FPGXE","","img/set1/S3.jpg","72","3","structured_normal","72","true","structured_normal,structured_incentive,random","1,2,2,3","",""
"null","","html-keyboard-response","153","236047","0.0-82.0","30IQTZXKALSJBHNM1RTPY6CK3OB0X7","A3JAM040VWXHDO","3R5LWXWHR0UE010DORDQUF3E2FPGXE","","<img src=""img/set1/S3.jpg"" width=""540"" height = ""360"" style=""border:16px solid orange"">","null","","","","","","","",""
"null","","html-keyboard-response","154","236049","0.0-83.0","30IQTZXKALSJBHNM1RTPY6CK3OB0X7","A3JAM040VWXHDO","3R5LWXWHR0UE010DORDQUF3E2FPGXE","","","null","","","","","","","",""
"604.3000001907349","","image-keyboard-response","155","236655","0.0-84.0","30IQTZXKALSJBHNM1RTPY6CK3OB0X7","A3JAM040VWXHDO","3R5LWXWHR0UE010DORDQUF3E2FPGXE","","img/set1/S4.jpg","74","4","structured_normal","74","true","structured_normal,structured_incentive,random","1,2,2,3","",""
"null","","html-keyboard-response","156","237015","0.0-85.0","30IQTZXKALSJBHNM1RTPY6CK3OB0X7","A3JAM040VWXHDO","3R5LWXWHR0UE010DORDQUF3E2FPGXE","","<img src=""img/set1/S4.jpg"" width=""540"" height = ""360"" style=""border:16px solid orange"">","null","","","","","","","",""
"null","","html-keyboard-response","157","237018","0.0-86.0","30IQTZXKALSJBHNM1RTPY6CK3OB0X7","A3JAM040VWXHDO","3R5LWXWHR0UE010DORDQUF3E2FPGXE","","","null","","","","","","","",""
"734.8999998569489","","image-keyboard-response","158","237755","0.0-87.0","30IQTZXKALSJBHNM1RTPY6CK3OB0X7","A3JAM040VWXHDO","3R5LWXWHR0UE010DORDQUF3E2FPGXE","","img/set1/S3.jpg","72","3","structured_normal","72","true","structured_normal,structured_incentive,random","1,2,2,3","",""
"null","","html-keyboard-response","159","238115","0.0-88.0","30IQTZXKALSJBHNM1RTPY6CK3OB0X7","A3JAM040VWXHDO","3R5LWXWHR0UE010DORDQUF3E2FPGXE","","<img src=""img/set1/S3.jpg"" width=""540"" height = ""360"" style=""border:16px solid orange"">","null","","","","","","","",""
"null","","html-keyboard-response","160","238117","0.0-89.0","30IQTZXKALSJBHNM1RTPY6CK3OB0X7","A3JAM040VWXHDO","3R5LWXWHR0UE010DORDQUF3E2FPGXE","","","null","","","","","","","",""
"606.0999999046326","","image-keyboard-response","161","238724","0.0-90.0","30IQTZXKALSJBHNM1RTPY6CK3OB0X7","A3JAM040VWXHDO","3R5LWXWHR0UE010DORDQUF3E2FPGXE","","img/set1/S4.jpg","74","4","structured_normal","74","true","structured_normal,structured_incentive,random","1,2,2,3","",""
"null","","html-keyboard-response","162","239076","0.0-91.0","30IQTZXKALSJBHNM1RTPY6CK3OB0X7","A3JAM040VWXHDO","3R5LWXWHR0UE010DORDQUF3E2FPGXE","","<img src=""img/set1/S4.jpg"" width=""540"" height = ""360"" style=""border:16px solid orange"">","null","","","","","","","",""
"null","","html-keyboard-response","163","239078","0.0-92.0","30IQTZXKALSJBHNM1RTPY6CK3OB0X7","A3JAM040VWXHDO","3R5LWXWHR0UE010DORDQUF3E2FPGXE","","","null","","","","","","","",""
"556.4000000953674","","image-keyboard-response","164","239635","0.0-93.0","30IQTZXKALSJBHNM1RTPY6CK3OB0X7","A3JAM040VWXHDO","3R5LWXWHR0UE010DORDQUF3E2FPGXE","","img/set1/S3.jpg","72","3","structured_normal","72","true","structured_normal,structured_incentive,random","1,2,2,3","",""
"null","","html-keyboard-response","165","239989","0.0-94.0","30IQTZXKALSJBHNM1RTPY6CK3OB0X7","A3JAM040VWXHDO","3R5LWXWHR0UE010DORDQUF3E2FPGXE","","<img src=""img/set1/S3.jpg"" width=""540"" height = ""360"" style=""border:16px solid orange"">","null","","","","","","","",""
"null","","html-keyboard-response","166","239992","0.0-95.0","30IQTZXKALSJBHNM1RTPY6CK3OB0X7","A3JAM040VWXHDO","3R5LWXWHR0UE010DORDQUF3E2FPGXE","","","null","","","","","","","",""
"517.5","","image-keyboard-response","167","240511","0.0-96.0","30IQTZXKALSJBHNM1RTPY6CK3OB0X7","A3JAM040VWXHDO","3R5LWXWHR0UE010DORDQUF3E2FPGXE","","img/set1/S3.jpg","72","3","structured_normal","72","true","structured_normal,structured_incentive,random","1,2,2,3","",""
"null","","html-keyboard-response","168","240879","0.0-97.0","30IQTZXKALSJBHNM1RTPY6CK3OB0X7","A3JAM040VWXHDO","3R5LWXWHR0UE010DORDQUF3E2FPGXE","","<img src=""img/set1/S3.jpg"" width=""540"" height = ""360"" style=""border:16px solid orange"">","null","","","","","","","",""
"null","","html-keyboard-response","169","240882","0.0-98.0","30IQTZXKALSJBHNM1RTPY6CK3OB0X7","A3JAM040VWXHDO","3R5LWXWHR0UE010DORDQUF3E2FPGXE","","","null","","","","","","","",""
"972.8999998569489","","image-keyboard-response","170","241858","0.0-99.0","30IQTZXKALSJBHNM1RTPY6CK3OB0X7","A3JAM040VWXHDO","3R5LWXWHR0UE010DORDQUF3E2FPGXE","","img/set1/S1.jpg","83","1","structured_normal","83","true","structured_normal,structured_incentive,random","1,2,2,3","",""
"null","","html-keyboard-response","171","242214","0.0-100.0","30IQTZXKALSJBHNM1RTPY6CK3OB0X7","A3JAM040VWXHDO","3R5LWXWHR0UE010DORDQUF3E2FPGXE","","<img src=""img/set1/S1.jpg"" width=""540"" height = ""360"" style=""border:16px solid orange"">","null","","","","","","","",""
"null","","html-keyboard-response","172","242216","0.0-101.0","30IQTZXKALSJBHNM1RTPY6CK3OB0X7","A3JAM040VWXHDO","3R5LWXWHR0UE010DORDQUF3E2FPGXE","","","null","","","","","","","",""
"603.7999999523163","","image-keyboard-response","173","242821","0.0-102.0","30IQTZXKALSJBHNM1RTPY6CK3OB0X7","A3JAM040VWXHDO","3R5LWXWHR0UE010DORDQUF3E2FPGXE","","img/set1/S2.jpg","68","2","structured_normal","68","true","structured_normal,structured_incentive,random","1,2,2,3","",""
"null","","html-keyboard-response","174","243182","0.0-103.0","30IQTZXKALSJBHNM1RTPY6CK3OB0X7","A3JAM040VWXHDO","3R5LWXWHR0UE010DORDQUF3E2FPGXE","","<img src=""img/set1/S2.jpg"" width=""540"" height = ""360"" style=""border:16px solid orange"">","null","","","","","","","",""
"null","","html-keyboard-response","175","243184","0.0-104.0","30IQTZXKALSJBHNM1RTPY6CK3OB0X7","A3JAM040VWXHDO","3R5LWXWHR0UE010DORDQUF3E2FPGXE","","","null","","","","","","","",""
"753.3000001907349","","image-keyboard-response","176","243939","0.0-105.0","30IQTZXKALSJBHNM1RTPY6CK3OB0X7","A3JAM040VWXHDO","3R5LWXWHR0UE010DORDQUF3E2FPGXE","","img/set1/S1.jpg","83","1","structured_normal","83","true","structured_normal,structured_incentive,random","1,2,2,3","",""
"null","","html-keyboard-response","177","244295","0.0-106.0","30IQTZXKALSJBHNM1RTPY6CK3OB0X7","A3JAM040VWXHDO","3R5LWXWHR0UE010DORDQUF3E2FPGXE","","<img src=""img/set1/S1.jpg"" width=""540"" height = ""360"" style=""border:16px solid orange"">","null","","","","","","","",""
"null","","html-keyboard-response","178","244297","0.0-107.0","30IQTZXKALSJBHNM1RTPY6CK3OB0X7","A3JAM040VWXHDO","3R5LWXWHR0UE010DORDQUF3E2FPGXE","","","null","","","","","","","",""
"988.6000001430511","","image-keyboard-response","179","245288","0.0-108.0","30IQTZXKALSJBHNM1RTPY6CK3OB0X7","A3JAM040VWXHDO","3R5LWXWHR0UE010DORDQUF3E2FPGXE","","img/set1/S3.jpg","72","3","structured_normal","72","true","structured_normal,structured_incentive,random","1,2,2,3","",""
"null","","html-keyboard-response","180","245655","0.0-109.0","30IQTZXKALSJBHNM1RTPY6CK3OB0X7","A3JAM040VWXHDO","3R5LWXWHR0UE010DORDQUF3E2FPGXE","","<img src=""img/set1/S3.jpg"" width=""540"" height = ""360"" style=""border:16px solid orange"">","null","","","","","","","",""
"null","","html-keyboard-response","181","245657","0.0-110.0","30IQTZXKALSJBHNM1RTPY6CK3OB0X7","A3JAM040VWXHDO","3R5LWXWHR0UE010DORDQUF3E2FPGXE","","","null","","","","","","","",""
"516.0999999046326","","image-keyboard-response","182","246176","0.0-111.0","30IQTZXKALSJBHNM1RTPY6CK3OB0X7","A3JAM040VWXHDO","3R5LWXWHR0UE010DORDQUF3E2FPGXE","","img/set1/S3.jpg","72","3","structured_normal","72","true","structured_normal,structured_incentive,random","1,2,2,3","",""
"null","","html-keyboard-response","183","246534","0.0-112.0","30IQTZXKALSJBHNM1RTPY6CK3OB0X7","A3JAM040VWXHDO","3R5LWXWHR0UE010DORDQUF3E2FPGXE","","<img src=""img/set1/S3.jpg"" width=""540"" height = ""360"" style=""border:16px solid orange"">","null","","","","","","","",""
"null","","html-keyboard-response","184","246537","0.0-113.0","30IQTZXKALSJBHNM1RTPY6CK3OB0X7","A3JAM040VWXHDO","3R5LWXWHR0UE010DORDQUF3E2FPGXE","","","null","","","","","","","",""
"1088.8000001907349","","image-keyboard-response","185","247627","0.0-114.0","30IQTZXKALSJBHNM1RTPY6CK3OB0X7","A3JAM040VWXHDO","3R5LWXWHR0UE010DORDQUF3E2FPGXE","","img/set1/S1.jpg","83","1","structured_normal","83","true","structured_normal,structured_incentive,random","1,2,2,3","",""
"null","","html-keyboard-response","186","247987","0.0-115.0","30IQTZXKALSJBHNM1RTPY6CK3OB0X7","A3JAM040VWXHDO","3R5LWXWHR0UE010DORDQUF3E2FPGXE","","<img src=""img/set1/S1.jpg"" width=""540"" height = ""360"" style=""border:16px solid orange"">","null","","","","","","","",""
"null","","html-keyboard-response","187","247989","0.0-116.0","30IQTZXKALSJBHNM1RTPY6CK3OB0X7","A3JAM040VWXHDO","3R5LWXWHR0UE010DORDQUF3E2FPGXE","","","null","","","","","","","",""
"708.4000000953674","","image-keyboard-response","188","248699","0.0-117.0","30IQTZXKALSJBHNM1RTPY6CK3OB0X7","A3JAM040VWXHDO","3R5LWXWHR0UE010DORDQUF3E2FPGXE","","img/set1/S2.jpg","68","2","structured_normal","68","true","structured_normal,structured_incentive,random","1,2,2,3","",""
"null","","html-keyboard-response","189","249061","0.0-118.0","30IQTZXKALSJBHNM1RTPY6CK3OB0X7","A3JAM040VWXHDO","3R5LWXWHR0UE010DORDQUF3E2FPGXE","","<img src=""img/set1/S2.jpg"" width=""540"" height = ""360"" style=""border:16px solid orange"">","null","","","","","","","",""
"null","","html-keyboard-response","190","249070","0.0-119.0","30IQTZXKALSJBHNM1RTPY6CK3OB0X7","A3JAM040VWXHDO","3R5LWXWHR0UE010DORDQUF3E2FPGXE","","","null","","","","","","","",""
"733.2000000476837","","image-keyboard-response","191","249806","0.0-120.0","30IQTZXKALSJBHNM1RTPY6CK3OB0X7","A3JAM040VWXHDO","3R5LWXWHR0UE010DORDQUF3E2FPGXE","","img/set1/S1.jpg","83","1","structured_normal","83","true","structured_normal,structured_incentive,random","1,2,2,3","",""
"null","","html-keyboard-response","192","250161","0.0-121.0","30IQTZXKALSJBHNM1RTPY6CK3OB0X7","A3JAM040VWXHDO","3R5LWXWHR0UE010DORDQUF3E2FPGXE","","<img src=""img/set1/S1.jpg"" width=""540"" height = ""360"" style=""border:16px solid orange"">","null","","","","","","","",""
"null","","html-keyboard-response","193","250164","0.0-122.0","30IQTZXKALSJBHNM1RTPY6CK3OB0X7","A3JAM040VWXHDO","3R5LWXWHR0UE010DORDQUF3E2FPGXE","","","null","","","","","","","",""
"602.8999998569489","","image-keyboard-response","194","250769","0.0-123.0","30IQTZXKALSJBHNM1RTPY6CK3OB0X7","A3JAM040VWXHDO","3R5LWXWHR0UE010DORDQUF3E2FPGXE","","img/set1/S2.jpg","68","2","structured_normal","68","true","structured_normal,structured_incentive,random","1,2,2,3","",""
"null","","html-keyboard-response","195","251126","0.0-124.0","30IQTZXKALSJBHNM1RTPY6CK3OB0X7","A3JAM040VWXHDO","3R5LWXWHR0UE010DORDQUF3E2FPGXE","","<img src=""img/set1/S2.jpg"" width=""540"" height = ""360"" style=""border:16px solid orange"">","null","","","","","","","",""
"null","","html-keyboard-response","196","251129","0.0-125.0","30IQTZXKALSJBHNM1RTPY6CK3OB0X7","A3JAM040VWXHDO","3R5LWXWHR0UE010DORDQUF3E2FPGXE","","","null","","","","","","","",""
"588.2999999523163","","image-keyboard-response","197","251719","0.0-126.0","30IQTZXKALSJBHNM1RTPY6CK3OB0X7","A3JAM040VWXHDO","3R5LWXWHR0UE010DORDQUF3E2FPGXE","","img/set1/S1.jpg","83","1","structured_normal","83","true","structured_normal,structured_incentive,random","1,2,2,3","",""
"null","","html-keyboard-response","198","252085","0.0-127.0","30IQTZXKALSJBHNM1RTPY6CK3OB0X7","A3JAM040VWXHDO","3R5LWXWHR0UE010DORDQUF3E2FPGXE","","<img src=""img/set1/S1.jpg"" width=""540"" height = ""360"" style=""border:16px solid orange"">","null","","","","","","","",""
"null","","html-keyboard-response","199","252086","0.0-128.0","30IQTZXKALSJBHNM1RTPY6CK3OB0X7","A3JAM040VWXHDO","3R5LWXWHR0UE010DORDQUF3E2FPGXE","","","null","","","","","","","",""
"565.0999999046326","","image-keyboard-response","200","252653","0.0-129.0","30IQTZXKALSJBHNM1RTPY6CK3OB0X7","A3JAM040VWXHDO","3R5LWXWHR0UE010DORDQUF3E2FPGXE","","img/set1/S2.jpg","68","2","structured_normal","68","true","structured_normal,structured_incentive,random","1,2,2,3","",""
"null","","html-keyboard-response","201","253016","0.0-130.0","30IQTZXKALSJBHNM1RTPY6CK3OB0X7","A3JAM040VWXHDO","3R5LWXWHR0UE010DORDQUF3E2FPGXE","","<img src=""img/set1/S2.jpg"" width=""540"" height = ""360"" style=""border:16px solid orange"">","null","","","","","","","",""
"null","","html-keyboard-response","202","253019","0.0-131.0","30IQTZXKALSJBHNM1RTPY6CK3OB0X7","A3JAM040VWXHDO","3R5LWXWHR0UE010DORDQUF3E2FPGXE","","","null","","","","","","","",""
"779.7000000476837","","image-keyboard-response","203","253800","0.0-132.0","30IQTZXKALSJBHNM1RTPY6CK3OB0X7","A3JAM040VWXHDO","3R5LWXWHR0UE010DORDQUF3E2FPGXE","","img/set1/S4.jpg","74","4","structured_normal","74","true","structured_normal,structured_incentive,random","1,2,2,3","",""
"null","","html-keyboard-response","204","254161","0.0-133.0","30IQTZXKALSJBHNM1RTPY6CK3OB0X7","A3JAM040VWXHDO","3R5LWXWHR0UE010DORDQUF3E2FPGXE","","<img src=""img/set1/S4.jpg"" width=""540"" height = ""360"" style=""border:16px solid orange"">","null","","","","","","","",""
"null","","html-keyboard-response","205","254164","0.0-134.0","30IQTZXKALSJBHNM1RTPY6CK3OB0X7","A3JAM040VWXHDO","3R5LWXWHR0UE010DORDQUF3E2FPGXE","","","null","","","","","","","",""
"438.90000009536743","","image-keyboard-response","206","254606","0.0-135.0","30IQTZXKALSJBHNM1RTPY6CK3OB0X7","A3JAM040VWXHDO","3R5LWXWHR0UE010DORDQUF3E2FPGXE","","img/set1/S4.jpg","74","4","structured_normal","74","true","structured_normal,structured_incentive,random","1,2,2,3","",""
"null","","html-keyboard-response","207","254964","0.0-136.0","30IQTZXKALSJBHNM1RTPY6CK3OB0X7","A3JAM040VWXHDO","3R5LWXWHR0UE010DORDQUF3E2FPGXE","","<img src=""img/set1/S4.jpg"" width=""540"" height = ""360"" style=""border:16px solid orange"">","null","","","","","","","",""
"null","","html-keyboard-response","208","254966","0.0-137.0","30IQTZXKALSJBHNM1RTPY6CK3OB0X7","A3JAM040VWXHDO","3R5LWXWHR0UE010DORDQUF3E2FPGXE","","","null","","","","","","","",""
"770.1999998092651","","image-keyboard-response","209","255738","0.0-138.0","30IQTZXKALSJBHNM1RTPY6CK3OB0X7","A3JAM040VWXHDO","3R5LWXWHR0UE010DORDQUF3E2FPGXE","","img/set1/S2.jpg","68","2","structured_normal","68","true","structured_normal,structured_incentive,random","1,2,2,3","",""
"null","","html-keyboard-response","210","256103","0.0-139.0","30IQTZXKALSJBHNM1RTPY6CK3OB0X7","A3JAM040VWXHDO","3R5LWXWHR0UE010DORDQUF3E2FPGXE","","<img src=""img/set1/S2.jpg"" width=""540"" height = ""360"" style=""border:16px solid orange"">","null","","","","","","","",""
"null","","html-keyboard-response","211","256106","0.0-140.0","30IQTZXKALSJBHNM1RTPY6CK3OB0X7","A3JAM040VWXHDO","3R5LWXWHR0UE010DORDQUF3E2FPGXE","","","null","","","","","","","",""
"833","","image-keyboard-response","212","256941","0.0-141.0","30IQTZXKALSJBHNM1RTPY6CK3OB0X7","A3JAM040VWXHDO","3R5LWXWHR0UE010DORDQUF3E2FPGXE","","img/set1/S4.jpg","74","4","structured_normal","74","true","structured_normal,structured_incentive,random","1,2,2,3","",""
"null","","html-keyboard-response","213","257302","0.0-142.0","30IQTZXKALSJBHNM1RTPY6CK3OB0X7","A3JAM040VWXHDO","3R5LWXWHR0UE010DORDQUF3E2FPGXE","","<img src=""img/set1/S4.jpg"" width=""540"" height = ""360"" style=""border:16px solid orange"">","null","","","","","","","",""
"null","","html-keyboard-response","214","257304","0.0-143.0","30IQTZXKALSJBHNM1RTPY6CK3OB0X7","A3JAM040VWXHDO","3R5LWXWHR0UE010DORDQUF3E2FPGXE","","","null","","","","","","","",""
"581.2999999523163","","image-keyboard-response","215","257888","0.0-144.0","30IQTZXKALSJBHNM1RTPY6CK3OB0X7","A3JAM040VWXHDO","3R5LWXWHR0UE010DORDQUF3E2FPGXE","","img/set1/S3.jpg","72","3","structured_normal","72","true","structured_normal,structured_incentive,random","1,2,2,3","",""
"null","","html-keyboard-response","216","258252","0.0-145.0","30IQTZXKALSJBHNM1RTPY6CK3OB0X7","A3JAM040VWXHDO","3R5LWXWHR0UE010DORDQUF3E2FPGXE","","<img src=""img/set1/S3.jpg"" width=""540"" height = ""360"" style=""border:16px solid orange"">","null","","","","","","","",""
"null","","html-keyboard-response","217","258254","0.0-146.0","30IQTZXKALSJBHNM1RTPY6CK3OB0X7","A3JAM040VWXHDO","3R5LWXWHR0UE010DORDQUF3E2FPGXE","","","null","","","","","","","",""
"505.10000014305115","","image-keyboard-response","218","258761","0.0-147.0","30IQTZXKALSJBHNM1RTPY6CK3OB0X7","A3JAM040VWXHDO","3R5LWXWHR0UE010DORDQUF3E2FPGXE","","img/set1/S3.jpg","72","3","structured_normal","72","true","structured_normal,structured_incentive,random","1,2,2,3","",""
"null","","html-keyboard-response","219","259123","0.0-148.0","30IQTZXKALSJBHNM1RTPY6CK3OB0X7","A3JAM040VWXHDO","3R5LWXWHR0UE010DORDQUF3E2FPGXE","","<img src=""img/set1/S3.jpg"" width=""540"" height = ""360"" style=""border:16px solid orange"">","null","","","","","","","",""
"null","","html-keyboard-response","220","259125","0.0-149.0","30IQTZXKALSJBHNM1RTPY6CK3OB0X7","A3JAM040VWXHDO","3R5LWXWHR0UE010DORDQUF3E2FPGXE","","","null","","","","","","","",""
"546.5","","image-keyboard-response","221","259673","0.0-150.0","30IQTZXKALSJBHNM1RTPY6CK3OB0X7","A3JAM040VWXHDO","3R5LWXWHR0UE010DORDQUF3E2FPGXE","","img/set1/S4.jpg","74","4","structured_normal","74","true","structured_normal,structured_incentive,random","1,2,2,3","",""
"null","","html-keyboard-response","222","260032","0.0-151.0","30IQTZXKALSJBHNM1RTPY6CK3OB0X7","A3JAM040VWXHDO","3R5LWXWHR0UE010DORDQUF3E2FPGXE","","<img src=""img/set1/S4.jpg"" width=""540"" height = ""360"" style=""border:16px solid orange"">","null","","","","","","","",""
"null","","html-keyboard-response","223","260034","0.0-152.0","30IQTZXKALSJBHNM1RTPY6CK3OB0X7","A3JAM040VWXHDO","3R5LWXWHR0UE010DORDQUF3E2FPGXE","","","null","","","","","","","",""
"706.7999999523163","","image-keyboard-response","224","260742","0.0-153.0","30IQTZXKALSJBHNM1RTPY6CK3OB0X7","A3JAM040VWXHDO","3R5LWXWHR0UE010DORDQUF3E2FPGXE","","img/set1/S2.jpg","68","2","structured_normal","68","true","structured_normal,structured_incentive,random","1,2,2,3","",""
"null","","html-keyboard-response","225","261100","0.0-154.0","30IQTZXKALSJBHNM1RTPY6CK3OB0X7","A3JAM040VWXHDO","3R5LWXWHR0UE010DORDQUF3E2FPGXE","","<img src=""img/set1/S2.jpg"" width=""540"" height = ""360"" style=""border:16px solid orange"">","null","","","","","","","",""
"null","","html-keyboard-response","226","261102","0.0-155.0","30IQTZXKALSJBHNM1RTPY6CK3OB0X7","A3JAM040VWXHDO","3R5LWXWHR0UE010DORDQUF3E2FPGXE","","","null","","","","","","","",""
"698.5","","image-keyboard-response","227","261802","0.0-156.0","30IQTZXKALSJBHNM1RTPY6CK3OB0X7","A3JAM040VWXHDO","3R5LWXWHR0UE010DORDQUF3E2FPGXE","","img/set1/S3.jpg","72","3","structured_normal","72","true","structured_normal,structured_incentive,random","1,2,2,3","",""
"null","","html-keyboard-response","228","262165","0.0-157.0","30IQTZXKALSJBHNM1RTPY6CK3OB0X7","A3JAM040VWXHDO","3R5LWXWHR0UE010DORDQUF3E2FPGXE","","<img src=""img/set1/S3.jpg"" width=""540"" height = ""360"" style=""border:16px solid orange"">","null","","","","","","","",""
"null","","html-keyboard-response","229","262167","0.0-158.0","30IQTZXKALSJBHNM1RTPY6CK3OB0X7","A3JAM040VWXHDO","3R5LWXWHR0UE010DORDQUF3E2FPGXE","","","null","","","","","","","",""
"852","","image-keyboard-response","230","263021","0.0-159.0","30IQTZXKALSJBHNM1RTPY6CK3OB0X7","A3JAM040VWXHDO","3R5LWXWHR0UE010DORDQUF3E2FPGXE","","img/set1/S1.jpg","83","1","structured_normal","83","true","structured_normal,structured_incentive,random","1,2,2,3","",""
"null","","html-keyboard-response","231","263373","0.0-160.0","30IQTZXKALSJBHNM1RTPY6CK3OB0X7","A3JAM040VWXHDO","3R5LWXWHR0UE010DORDQUF3E2FPGXE","","<img src=""img/set1/S1.jpg"" width=""540"" height = ""360"" style=""border:16px solid orange"">","null","","","","","","","",""
"null","","html-keyboard-response","232","263375","0.0-161.0","30IQTZXKALSJBHNM1RTPY6CK3OB0X7","A3JAM040VWXHDO","3R5LWXWHR0UE010DORDQUF3E2FPGXE","","","null","","","","","","","",""
"517.0999999046326","","image-keyboard-response","233","263894","0.0-162.0","30IQTZXKALSJBHNM1RTPY6CK3OB0X7","A3JAM040VWXHDO","3R5LWXWHR0UE010DORDQUF3E2FPGXE","","img/set1/S2.jpg","68","2","structured_normal","68","true","structured_normal,structured_incentive,random","1,2,2,3","",""
"null","","html-keyboard-response","234","264253","0.0-163.0","30IQTZXKALSJBHNM1RTPY6CK3OB0X7","A3JAM040VWXHDO","3R5LWXWHR0UE010DORDQUF3E2FPGXE","","<img src=""img/set1/S2.jpg"" width=""540"" height = ""360"" style=""border:16px solid orange"">","null","","","","","","","",""
"null","","html-keyboard-response","235","264255","0.0-164.0","30IQTZXKALSJBHNM1RTPY6CK3OB0X7","A3JAM040VWXHDO","3R5LWXWHR0UE010DORDQUF3E2FPGXE","","","null","","","","","","","",""
"710.3999998569489","","image-keyboard-response","236","264967","0.0-165.0","30IQTZXKALSJBHNM1RTPY6CK3OB0X7","A3JAM040VWXHDO","3R5LWXWHR0UE010DORDQUF3E2FPGXE","","img/set1/S4.jpg","74","4","structured_normal","74","true","structured_normal,structured_incentive,random","1,2,2,3","",""
"null","","html-keyboard-response","237","265333","0.0-166.0","30IQTZXKALSJBHNM1RTPY6CK3OB0X7","A3JAM040VWXHDO","3R5LWXWHR0UE010DORDQUF3E2FPGXE","","<img src=""img/set1/S4.jpg"" width=""540"" height = ""360"" style=""border:16px solid orange"">","null","","","","","","","",""
"null","","html-keyboard-response","238","265335","0.0-167.0","30IQTZXKALSJBHNM1RTPY6CK3OB0X7","A3JAM040VWXHDO","3R5LWXWHR0UE010DORDQUF3E2FPGXE","","","null","","","","","","","",""
"623.1000001430511","","image-keyboard-response","239","265960","0.0-168.0","30IQTZXKALSJBHNM1RTPY6CK3OB0X7","A3JAM040VWXHDO","3R5LWXWHR0UE010DORDQUF3E2FPGXE","","img/set1/S3.jpg","72","3","structured_normal","72","true","structured_normal,structured_incentive,random","1,2,2,3","",""
"null","","html-keyboard-response","240","266331","0.0-169.0","30IQTZXKALSJBHNM1RTPY6CK3OB0X7","A3JAM040VWXHDO","3R5LWXWHR0UE010DORDQUF3E2FPGXE","","<img src=""img/set1/S3.jpg"" width=""540"" height = ""360"" style=""border:16px solid orange"">","null","","","","","","","",""
"null","","html-keyboard-response","241","266334","0.0-170.0","30IQTZXKALSJBHNM1RTPY6CK3OB0X7","A3JAM040VWXHDO","3R5LWXWHR0UE010DORDQUF3E2FPGXE","","","null","","","","","","","",""
"752","","image-keyboard-response","242","267090","0.0-171.0","30IQTZXKALSJBHNM1RTPY6CK3OB0X7","A3JAM040VWXHDO","3R5LWXWHR0UE010DORDQUF3E2FPGXE","","img/set1/S1.jpg","83","1","structured_normal","83","true","structured_normal,structured_incentive,random","1,2,2,3","",""
"null","","html-keyboard-response","243","267452","0.0-172.0","30IQTZXKALSJBHNM1RTPY6CK3OB0X7","A3JAM040VWXHDO","3R5LWXWHR0UE010DORDQUF3E2FPGXE","","<img src=""img/set1/S1.jpg"" width=""540"" height = ""360"" style=""border:16px solid orange"">","null","","","","","","","",""
"null","","html-keyboard-response","244","267454","0.0-173.0","30IQTZXKALSJBHNM1RTPY6CK3OB0X7","A3JAM040VWXHDO","3R5LWXWHR0UE010DORDQUF3E2FPGXE","","","null","","","","","","","",""
"449.2000000476837","","image-keyboard-response","245","267905","0.0-174.0","30IQTZXKALSJBHNM1RTPY6CK3OB0X7","A3JAM040VWXHDO","3R5LWXWHR0UE010DORDQUF3E2FPGXE","","img/set1/S2.jpg","68","2","structured_normal","68","true","structured_normal,structured_incentive,random","1,2,2,3","",""
"null","","html-keyboard-response","246","268269","0.0-175.0","30IQTZXKALSJBHNM1RTPY6CK3OB0X7","A3JAM040VWXHDO","3R5LWXWHR0UE010DORDQUF3E2FPGXE","","<img src=""img/set1/S2.jpg"" width=""540"" height = ""360"" style=""border:16px solid orange"">","null","","","","","","","",""
"null","","html-keyboard-response","247","268272","0.0-176.0","30IQTZXKALSJBHNM1RTPY6CK3OB0X7","A3JAM040VWXHDO","3R5LWXWHR0UE010DORDQUF3E2FPGXE","","","null","","","","","","","",""
"732","","image-keyboard-response","248","269006","0.0-177.0","30IQTZXKALSJBHNM1RTPY6CK3OB0X7","A3JAM040VWXHDO","3R5LWXWHR0UE010DORDQUF3E2FPGXE","","img/set1/S4.jpg","74","4","structured_normal","74","true","structured_normal,structured_incentive,random","1,2,2,3","",""
"null","","html-keyboard-response","249","269372","0.0-178.0","30IQTZXKALSJBHNM1RTPY6CK3OB0X7","A3JAM040VWXHDO","3R5LWXWHR0UE010DORDQUF3E2FPGXE","","<img src=""img/set1/S4.jpg"" width=""540"" height = ""360"" style=""border:16px solid orange"">","null","","","","","","","",""
"null","","html-keyboard-response","250","269374","0.0-179.0","30IQTZXKALSJBHNM1RTPY6CK3OB0X7","A3JAM040VWXHDO","3R5LWXWHR0UE010DORDQUF3E2FPGXE","","","null","","","","","","","",""
"540.7999999523163","","image-keyboard-response","251","269917","0.0-180.0","30IQTZXKALSJBHNM1RTPY6CK3OB0X7","A3JAM040VWXHDO","3R5LWXWHR0UE010DORDQUF3E2FPGXE","","img/set1/S4.jpg","74","4","structured_normal","74","true","structured_normal,structured_incentive,random","1,2,2,3","",""
"null","","html-keyboard-response","252","270271","0.0-181.0","30IQTZXKALSJBHNM1RTPY6CK3OB0X7","A3JAM040VWXHDO","3R5LWXWHR0UE010DORDQUF3E2FPGXE","","<img src=""img/set1/S4.jpg"" width=""540"" height = ""360"" style=""border:16px solid orange"">","null","","","","","","","",""
"null","","html-keyboard-response","253","270272","0.0-182.0","30IQTZXKALSJBHNM1RTPY6CK3OB0X7","A3JAM040VWXHDO","3R5LWXWHR0UE010DORDQUF3E2FPGXE","","","null","","","","","","","",""
"732.6000001430511","","image-keyboard-response","254","271007","0.0-183.0","30IQTZXKALSJBHNM1RTPY6CK3OB0X7","A3JAM040VWXHDO","3R5LWXWHR0UE010DORDQUF3E2FPGXE","","img/set1/S1.jpg","83","1","structured_normal","83","true","structured_normal,structured_incentive,random","1,2,2,3","",""
"null","","html-keyboard-response","255","271374","0.0-184.0","30IQTZXKALSJBHNM1RTPY6CK3OB0X7","A3JAM040VWXHDO","3R5LWXWHR0UE010DORDQUF3E2FPGXE","","<img src=""img/set1/S1.jpg"" width=""540"" height = ""360"" style=""border:16px solid orange"">","null","","","","","","","",""
"null","","html-keyboard-response","256","271376","0.0-185.0","30IQTZXKALSJBHNM1RTPY6CK3OB0X7","A3JAM040VWXHDO","3R5LWXWHR0UE010DORDQUF3E2FPGXE","","","null","","","","","","","",""
"451.30000019073486","","image-keyboard-response","257","271829","0.0-186.0","30IQTZXKALSJBHNM1RTPY6CK3OB0X7","A3JAM040VWXHDO","3R5LWXWHR0UE010DORDQUF3E2FPGXE","","img/set1/S2.jpg","68","2","structured_normal","68","true","structured_normal,structured_incentive,random","1,2,2,3","",""
"null","","html-keyboard-response","258","272198","0.0-187.0","30IQTZXKALSJBHNM1RTPY6CK3OB0X7","A3JAM040VWXHDO","3R5LWXWHR0UE010DORDQUF3E2FPGXE","","<img src=""img/set1/S2.jpg"" width=""540"" height = ""360"" style=""border:16px solid orange"">","null","","","","","","","",""
"null","","html-keyboard-response","259","272201","0.0-188.0","30IQTZXKALSJBHNM1RTPY6CK3OB0X7","A3JAM040VWXHDO","3R5LWXWHR0UE010DORDQUF3E2FPGXE","","","null","","","","","","","",""
"608.7000000476837","","image-keyboard-response","260","272811","0.0-189.0","30IQTZXKALSJBHNM1RTPY6CK3OB0X7","A3JAM040VWXHDO","3R5LWXWHR0UE010DORDQUF3E2FPGXE","","img/set1/S2.jpg","68","2","structured_normal","68","true","structured_normal,structured_incentive,random","1,2,2,3","",""
"null","","html-keyboard-response","261","273165","0.0-190.0","30IQTZXKALSJBHNM1RTPY6CK3OB0X7","A3JAM040VWXHDO","3R5LWXWHR0UE010DORDQUF3E2FPGXE","","<img src=""img/set1/S2.jpg"" width=""540"" height = ""360"" style=""border:16px solid orange"">","null","","","","","","","",""
"null","","html-keyboard-response","262","273166","0.0-191.0","30IQTZXKALSJBHNM1RTPY6CK3OB0X7","A3JAM040VWXHDO","3R5LWXWHR0UE010DORDQUF3E2FPGXE","","","null","","","","","","","",""
"705.8999998569489","","image-keyboard-response","263","273873","0.0-192.0","30IQTZXKALSJBHNM1RTPY6CK3OB0X7","A3JAM040VWXHDO","3R5LWXWHR0UE010DORDQUF3E2FPGXE","","img/set1/S4.jpg","74","4","structured_normal","74","true","structured_normal,structured_incentive,random","1,2,2,3","",""
"null","","html-keyboard-response","264","274239","0.0-193.0","30IQTZXKALSJBHNM1RTPY6CK3OB0X7","A3JAM040VWXHDO","3R5LWXWHR0UE010DORDQUF3E2FPGXE","","<img src=""img/set1/S4.jpg"" width=""540"" height = ""360"" style=""border:16px solid orange"">","null","","","","","","","",""
"null","","html-keyboard-response","265","274241","0.0-194.0","30IQTZXKALSJBHNM1RTPY6CK3OB0X7","A3JAM040VWXHDO","3R5LWXWHR0UE010DORDQUF3E2FPGXE","","","null","","","","","","","",""
"500.09999990463257","","image-keyboard-response","266","274743","0.0-195.0","30IQTZXKALSJBHNM1RTPY6CK3OB0X7","A3JAM040VWXHDO","3R5LWXWHR0UE010DORDQUF3E2FPGXE","","img/set1/S3.jpg","72","3","structured_normal","72","true","structured_normal,structured_incentive,random","1,2,2,3","",""
"null","","html-keyboard-response","267","275108","0.0-196.0","30IQTZXKALSJBHNM1RTPY6CK3OB0X7","A3JAM040VWXHDO","3R5LWXWHR0UE010DORDQUF3E2FPGXE","","<img src=""img/set1/S3.jpg"" width=""540"" height = ""360"" style=""border:16px solid orange"">","null","","","","","","","",""
"null","","html-keyboard-response","268","275111","0.0-197.0","30IQTZXKALSJBHNM1RTPY6CK3OB0X7","A3JAM040VWXHDO","3R5LWXWHR0UE010DORDQUF3E2FPGXE","","","null","","","","","","","",""
"771.8999998569489","","image-keyboard-response","269","275886","0.0-198.0","30IQTZXKALSJBHNM1RTPY6CK3OB0X7","A3JAM040VWXHDO","3R5LWXWHR0UE010DORDQUF3E2FPGXE","","img/set1/S1.jpg","83","1","structured_normal","83","true","structured_normal,structured_incentive,random","1,2,2,3","",""
"null","","html-keyboard-response","270","276241","0.0-199.0","30IQTZXKALSJBHNM1RTPY6CK3OB0X7","A3JAM040VWXHDO","3R5LWXWHR0UE010DORDQUF3E2FPGXE","","<img src=""img/set1/S1.jpg"" width=""540"" height = ""360"" style=""border:16px solid orange"">","null","","","","","","","",""
"null","","html-keyboard-response","271","276243","0.0-200.0","30IQTZXKALSJBHNM1RTPY6CK3OB0X7","A3JAM040VWXHDO","3R5LWXWHR0UE010DORDQUF3E2FPGXE","","","null","","","","","","","",""
"802","","image-keyboard-response","272","277046","0.0-201.0","30IQTZXKALSJBHNM1RTPY6CK3OB0X7","A3JAM040VWXHDO","3R5LWXWHR0UE010DORDQUF3E2FPGXE","","img/set1/S3.jpg","72","3","structured_normal","72","true","structured_normal,structured_incentive,random","1,2,2,3","",""
"null","","html-keyboard-response","273","277408","0.0-202.0","30IQTZXKALSJBHNM1RTPY6CK3OB0X7","A3JAM040VWXHDO","3R5LWXWHR0UE010DORDQUF3E2FPGXE","","<img src=""img/set1/S3.jpg"" width=""540"" height = ""360"" style=""border:16px solid orange"">","null","","","","","","","",""
"null","","html-keyboard-response","274","277410","0.0-203.0","30IQTZXKALSJBHNM1RTPY6CK3OB0X7","A3JAM040VWXHDO","3R5LWXWHR0UE010DORDQUF3E2FPGXE","","","null","","","","","","","",""
"869.5999999046326","","image-keyboard-response","275","278281","0.0-204.0","30IQTZXKALSJBHNM1RTPY6CK3OB0X7","A3JAM040VWXHDO","3R5LWXWHR0UE010DORDQUF3E2FPGXE","","img/set1/S1.jpg","83","1","structured_normal","83","true","structured_normal,structured_incentive,random","1,2,2,3","",""
"null","","html-keyboard-response","276","278634","0.0-205.0","30IQTZXKALSJBHNM1RTPY6CK3OB0X7","A3JAM040VWXHDO","3R5LWXWHR0UE010DORDQUF3E2FPGXE","","<img src=""img/set1/S1.jpg"" width=""540"" height = ""360"" style=""border:16px solid orange"">","null","","","","","","","",""
"null","","html-keyboard-response","277","278638","0.0-206.0","30IQTZXKALSJBHNM1RTPY6CK3OB0X7","A3JAM040VWXHDO","3R5LWXWHR0UE010DORDQUF3E2FPGXE","","","null","","","","","","","",""
"715.7999999523163","","image-keyboard-response","278","279355","0.0-207.0","30IQTZXKALSJBHNM1RTPY6CK3OB0X7","A3JAM040VWXHDO","3R5LWXWHR0UE010DORDQUF3E2FPGXE","","img/set1/S2.jpg","68","2","structured_normal","68","true","structured_normal,structured_incentive,random","1,2,2,3","",""
"null","","html-keyboard-response","279","279728","0.0-208.0","30IQTZXKALSJBHNM1RTPY6CK3OB0X7","A3JAM040VWXHDO","3R5LWXWHR0UE010DORDQUF3E2FPGXE","","<img src=""img/set1/S2.jpg"" width=""540"" height = ""360"" style=""border:16px solid orange"">","null","","","","","","","",""
"null","","html-keyboard-response","280","279731","0.0-209.0","30IQTZXKALSJBHNM1RTPY6CK3OB0X7","A3JAM040VWXHDO","3R5LWXWHR0UE010DORDQUF3E2FPGXE","","","null","","","","","","","",""
"641.5","","image-keyboard-response","281","280375","0.0-210.0","30IQTZXKALSJBHNM1RTPY6CK3OB0X7","A3JAM040VWXHDO","3R5LWXWHR0UE010DORDQUF3E2FPGXE","","img/set1/S4.jpg","74","4","structured_normal","74","true","structured_normal,structured_incentive,random","1,2,2,3","",""
"null","","html-keyboard-response","282","280730","0.0-211.0","30IQTZXKALSJBHNM1RTPY6CK3OB0X7","A3JAM040VWXHDO","3R5LWXWHR0UE010DORDQUF3E2FPGXE","","<img src=""img/set1/S4.jpg"" width=""540"" height = ""360"" style=""border:16px solid orange"">","null","","","","","","","",""
"null","","html-keyboard-response","283","280732","0.0-212.0","30IQTZXKALSJBHNM1RTPY6CK3OB0X7","A3JAM040VWXHDO","3R5LWXWHR0UE010DORDQUF3E2FPGXE","","","null","","","","","","","",""
"713.7000000476837","","image-keyboard-response","284","281447","0.0-213.0","30IQTZXKALSJBHNM1RTPY6CK3OB0X7","A3JAM040VWXHDO","3R5LWXWHR0UE010DORDQUF3E2FPGXE","","img/set1/S1.jpg","83","1","structured_normal","83","true","structured_normal,structured_incentive,random","1,2,2,3","",""
"null","","html-keyboard-response","285","281811","0.0-214.0","30IQTZXKALSJBHNM1RTPY6CK3OB0X7","A3JAM040VWXHDO","3R5LWXWHR0UE010DORDQUF3E2FPGXE","","<img src=""img/set1/S1.jpg"" width=""540"" height = ""360"" style=""border:16px solid orange"">","null","","","","","","","",""
"null","","html-keyboard-response","286","281812","0.0-215.0","30IQTZXKALSJBHNM1RTPY6CK3OB0X7","A3JAM040VWXHDO","3R5LWXWHR0UE010DORDQUF3E2FPGXE","","","null","","","","","","","",""
"638.5","","image-keyboard-response","287","282452","0.0-216.0","30IQTZXKALSJBHNM1RTPY6CK3OB0X7","A3JAM040VWXHDO","3R5LWXWHR0UE010DORDQUF3E2FPGXE","","img/set1/S2.jpg","68","2","structured_normal","68","true","structured_normal,structured_incentive,random","1,2,2,3","",""
"null","","html-keyboard-response","288","282813","0.0-217.0","30IQTZXKALSJBHNM1RTPY6CK3OB0X7","A3JAM040VWXHDO","3R5LWXWHR0UE010DORDQUF3E2FPGXE","","<img src=""img/set1/S2.jpg"" width=""540"" height = ""360"" style=""border:16px solid orange"">","null","","","","","","","",""
"null","","html-keyboard-response","289","282815","0.0-218.0","30IQTZXKALSJBHNM1RTPY6CK3OB0X7","A3JAM040VWXHDO","3R5LWXWHR0UE010DORDQUF3E2FPGXE","","","null","","","","","","","",""
"667.7999999523163","","image-keyboard-response","290","283485","0.0-219.0","30IQTZXKALSJBHNM1RTPY6CK3OB0X7","A3JAM040VWXHDO","3R5LWXWHR0UE010DORDQUF3E2FPGXE","","img/set1/S3.jpg","72","3","structured_normal","72","true","structured_normal,structured_incentive,random","1,2,2,3","",""
"null","","html-keyboard-response","291","283853","0.0-220.0","30IQTZXKALSJBHNM1RTPY6CK3OB0X7","A3JAM040VWXHDO","3R5LWXWHR0UE010DORDQUF3E2FPGXE","","<img src=""img/set1/S3.jpg"" width=""540"" height = ""360"" style=""border:16px solid orange"">","null","","","","","","","",""
"null","","html-keyboard-response","292","283855","0.0-221.0","30IQTZXKALSJBHNM1RTPY6CK3OB0X7","A3JAM040VWXHDO","3R5LWXWHR0UE010DORDQUF3E2FPGXE","","","null","","","","","","","",""
"542.6000001430511","","image-keyboard-response","293","284400","0.0-222.0","30IQTZXKALSJBHNM1RTPY6CK3OB0X7","A3JAM040VWXHDO","3R5LWXWHR0UE010DORDQUF3E2FPGXE","","img/set1/S4.jpg","74","4","structured_normal","74","true","structured_normal,structured_incentive,random","1,2,2,3","",""
"null","","html-keyboard-response","294","284756","0.0-223.0","30IQTZXKALSJBHNM1RTPY6CK3OB0X7","A3JAM040VWXHDO","3R5LWXWHR0UE010DORDQUF3E2FPGXE","","<img src=""img/set1/S4.jpg"" width=""540"" height = ""360"" style=""border:16px solid orange"">","null","","","","","","","",""
"null","","html-keyboard-response","295","284759","0.0-224.0","30IQTZXKALSJBHNM1RTPY6CK3OB0X7","A3JAM040VWXHDO","3R5LWXWHR0UE010DORDQUF3E2FPGXE","","","null","","","","","","","",""
"704.6000001430511","","image-keyboard-response","296","285465","0.0-225.0","30IQTZXKALSJBHNM1RTPY6CK3OB0X7","A3JAM040VWXHDO","3R5LWXWHR0UE010DORDQUF3E2FPGXE","","img/set1/S1.jpg","83","1","structured_normal","83","true","structured_normal,structured_incentive,random","1,2,2,3","",""
"null","","html-keyboard-response","297","285827","0.0-226.0","30IQTZXKALSJBHNM1RTPY6CK3OB0X7","A3JAM040VWXHDO","3R5LWXWHR0UE010DORDQUF3E2FPGXE","","<img src=""img/set1/S1.jpg"" width=""540"" height = ""360"" style=""border:16px solid orange"">","null","","","","","","","",""
"null","","html-keyboard-response","298","285831","0.0-227.0","30IQTZXKALSJBHNM1RTPY6CK3OB0X7","A3JAM040VWXHDO","3R5LWXWHR0UE010DORDQUF3E2FPGXE","","","null","","","","","","","",""
"729.7000000476837","","image-keyboard-response","299","286562","0.0-228.0","30IQTZXKALSJBHNM1RTPY6CK3OB0X7","A3JAM040VWXHDO","3R5LWXWHR0UE010DORDQUF3E2FPGXE","","img/set1/S3.jpg","72","3","structured_normal","72","true","structured_normal,structured_incentive,random","1,2,2,3","",""
"null","","html-keyboard-response","300","286931","0.0-229.0","30IQTZXKALSJBHNM1RTPY6CK3OB0X7","A3JAM040VWXHDO","3R5LWXWHR0UE010DORDQUF3E2FPGXE","","<img src=""img/set1/S3.jpg"" width=""540"" height = ""360"" style=""border:16px solid orange"">","null","","","","","","","",""
"null","","html-keyboard-response","301","286934","0.0-230.0","30IQTZXKALSJBHNM1RTPY6CK3OB0X7","A3JAM040VWXHDO","3R5LWXWHR0UE010DORDQUF3E2FPGXE","","","null","","","","","","","",""
"664.8999998569489","","image-keyboard-response","302","287601","0.0-231.0","30IQTZXKALSJBHNM1RTPY6CK3OB0X7","A3JAM040VWXHDO","3R5LWXWHR0UE010DORDQUF3E2FPGXE","","img/set1/S2.jpg","68","2","structured_normal","68","true","structured_normal,structured_incentive,random","1,2,2,3","",""
"null","","html-keyboard-response","303","287960","0.0-232.0","30IQTZXKALSJBHNM1RTPY6CK3OB0X7","A3JAM040VWXHDO","3R5LWXWHR0UE010DORDQUF3E2FPGXE","","<img src=""img/set1/S2.jpg"" width=""540"" height = ""360"" style=""border:16px solid orange"">","null","","","","","","","",""
"null","","html-keyboard-response","304","287963","0.0-233.0","30IQTZXKALSJBHNM1RTPY6CK3OB0X7","A3JAM040VWXHDO","3R5LWXWHR0UE010DORDQUF3E2FPGXE","","","null","","","","","","","",""
"675.9000000953674","","image-keyboard-response","305","288642","0.0-234.0","30IQTZXKALSJBHNM1RTPY6CK3OB0X7","A3JAM040VWXHDO","3R5LWXWHR0UE010DORDQUF3E2FPGXE","","img/set1/S3.jpg","72","3","structured_normal","72","true","structured_normal,structured_incentive,random","1,2,2,3","",""
"null","","html-keyboard-response","306","289005","0.0-235.0","30IQTZXKALSJBHNM1RTPY6CK3OB0X7","A3JAM040VWXHDO","3R5LWXWHR0UE010DORDQUF3E2FPGXE","","<img src=""img/set1/S3.jpg"" width=""540"" height = ""360"" style=""border:16px solid orange"">","null","","","","","","","",""
"null","","html-keyboard-response","307","289007","0.0-236.0","30IQTZXKALSJBHNM1RTPY6CK3OB0X7","A3JAM040VWXHDO","3R5LWXWHR0UE010DORDQUF3E2FPGXE","","","null","","","","","","","",""
"637.2000000476837","","image-keyboard-response","308","289646","0.0-237.0","30IQTZXKALSJBHNM1RTPY6CK3OB0X7","A3JAM040VWXHDO","3R5LWXWHR0UE010DORDQUF3E2FPGXE","","img/set1/S1.jpg","83","1","structured_normal","83","true","structured_normal,structured_incentive,random","1,2,2,3","",""
"null","","html-keyboard-response","309","290014","0.0-238.0","30IQTZXKALSJBHNM1RTPY6CK3OB0X7","A3JAM040VWXHDO","3R5LWXWHR0UE010DORDQUF3E2FPGXE","","<img src=""img/set1/S1.jpg"" width=""540"" height = ""360"" style=""border:16px solid orange"">","null","","","","","","","",""
"null","","html-keyboard-response","310","290016","0.0-239.0","30IQTZXKALSJBHNM1RTPY6CK3OB0X7","A3JAM040VWXHDO","3R5LWXWHR0UE010DORDQUF3E2FPGXE","","","null","","","","","","","",""
"760.1000001430511","","image-keyboard-response","311","290777","0.0-240.0","30IQTZXKALSJBHNM1RTPY6CK3OB0X7","A3JAM040VWXHDO","3R5LWXWHR0UE010DORDQUF3E2FPGXE","","img/set1/S3.jpg","72","3","structured_normal","72","true","structured_normal,structured_incentive,random","1,2,2,3","",""
"null","","html-keyboard-response","312","291133","0.0-241.0","30IQTZXKALSJBHNM1RTPY6CK3OB0X7","A3JAM040VWXHDO","3R5LWXWHR0UE010DORDQUF3E2FPGXE","","<img src=""img/set1/S3.jpg"" width=""540"" height = ""360"" style=""border:16px solid orange"">","null","","","","","","","",""
"null","","html-keyboard-response","313","291134","0.0-242.0","30IQTZXKALSJBHNM1RTPY6CK3OB0X7","A3JAM040VWXHDO","3R5LWXWHR0UE010DORDQUF3E2FPGXE","","","null","","","","","","","",""
"557.7999999523163","","image-keyboard-response","314","291694","0.0-243.0","30IQTZXKALSJBHNM1RTPY6CK3OB0X7","A3JAM040VWXHDO","3R5LWXWHR0UE010DORDQUF3E2FPGXE","","img/set1/S3.jpg","72","3","structured_normal","72","true","structured_normal,structured_incentive,random","1,2,2,3","",""
"null","","html-keyboard-response","315","292061","0.0-244.0","30IQTZXKALSJBHNM1RTPY6CK3OB0X7","A3JAM040VWXHDO","3R5LWXWHR0UE010DORDQUF3E2FPGXE","","<img src=""img/set1/S3.jpg"" width=""540"" height = ""360"" style=""border:16px solid orange"">","null","","","","","","","",""
"null","","html-keyboard-response","316","292073","0.0-245.0","30IQTZXKALSJBHNM1RTPY6CK3OB0X7","A3JAM040VWXHDO","3R5LWXWHR0UE010DORDQUF3E2FPGXE","","","null","","","","","","","",""
"675.7999999523163","","image-keyboard-response","317","292751","0.0-246.0","30IQTZXKALSJBHNM1RTPY6CK3OB0X7","A3JAM040VWXHDO","3R5LWXWHR0UE010DORDQUF3E2FPGXE","","img/set1/S4.jpg","74","4","structured_normal","74","true","structured_normal,structured_incentive,random","1,2,2,3","",""
"null","","html-keyboard-response","318","293108","0.0-247.0","30IQTZXKALSJBHNM1RTPY6CK3OB0X7","A3JAM040VWXHDO","3R5LWXWHR0UE010DORDQUF3E2FPGXE","","<img src=""img/set1/S4.jpg"" width=""540"" height = ""360"" style=""border:16px solid orange"">","null","","","","","","","",""
"null","","html-keyboard-response","319","293111","0.0-248.0","30IQTZXKALSJBHNM1RTPY6CK3OB0X7","A3JAM040VWXHDO","3R5LWXWHR0UE010DORDQUF3E2FPGXE","","","null","","","","","","","",""
"469.5","","image-keyboard-response","320","293582","0.0-249.0","30IQTZXKALSJBHNM1RTPY6CK3OB0X7","A3JAM040VWXHDO","3R5LWXWHR0UE010DORDQUF3E2FPGXE","","img/set1/S4.jpg","74","4","structured_normal","74","true","structured_normal,structured_incentive,random","1,2,2,3","",""
"null","","html-keyboard-response","321","293941","0.0-250.0","30IQTZXKALSJBHNM1RTPY6CK3OB0X7","A3JAM040VWXHDO","3R5LWXWHR0UE010DORDQUF3E2FPGXE","","<img src=""img/set1/S4.jpg"" width=""540"" height = ""360"" style=""border:16px solid orange"">","null","","","","","","","",""
"null","","html-keyboard-response","322","293943","0.0-251.0","30IQTZXKALSJBHNM1RTPY6CK3OB0X7","A3JAM040VWXHDO","3R5LWXWHR0UE010DORDQUF3E2FPGXE","","","null","","","","","","","",""
"650.7999999523163","","image-keyboard-response","323","294595","0.0-252.0","30IQTZXKALSJBHNM1RTPY6CK3OB0X7","A3JAM040VWXHDO","3R5LWXWHR0UE010DORDQUF3E2FPGXE","","img/set1/S1.jpg","83","1","structured_normal","83","true","structured_normal,structured_incentive,random","1,2,2,3","",""
"null","","html-keyboard-response","324","294957","0.0-253.0","30IQTZXKALSJBHNM1RTPY6CK3OB0X7","A3JAM040VWXHDO","3R5LWXWHR0UE010DORDQUF3E2FPGXE","","<img src=""img/set1/S1.jpg"" width=""540"" height = ""360"" style=""border:16px solid orange"">","null","","","","","","","",""
"null","","html-keyboard-response","325","294960","0.0-254.0","30IQTZXKALSJBHNM1RTPY6CK3OB0X7","A3JAM040VWXHDO","3R5LWXWHR0UE010DORDQUF3E2FPGXE","","","null","","","","","","","",""
"726.1999998092651","","image-keyboard-response","326","295688","0.0-255.0","30IQTZXKALSJBHNM1RTPY6CK3OB0X7","A3JAM040VWXHDO","3R5LWXWHR0UE010DORDQUF3E2FPGXE","","img/set1/S3.jpg","72","3","structured_normal","72","true","structured_normal,structured_incentive,random","1,2,2,3","",""
"null","","html-keyboard-response","327","296061","0.0-256.0","30IQTZXKALSJBHNM1RTPY6CK3OB0X7","A3JAM040VWXHDO","3R5LWXWHR0UE010DORDQUF3E2FPGXE","","<img src=""img/set1/S3.jpg"" width=""540"" height = ""360"" style=""border:16px solid orange"">","null","","","","","","","",""
"null","","html-keyboard-response","328","296064","0.0-257.0","30IQTZXKALSJBHNM1RTPY6CK3OB0X7","A3JAM040VWXHDO","3R5LWXWHR0UE010DORDQUF3E2FPGXE","","","null","","","","","","","",""
"797.7999999523163","","image-keyboard-response","329","296864","0.0-258.0","30IQTZXKALSJBHNM1RTPY6CK3OB0X7","A3JAM040VWXHDO","3R5LWXWHR0UE010DORDQUF3E2FPGXE","","img/set1/S1.jpg","83","1","structured_normal","83","true","structured_normal,structured_incentive,random","1,2,2,3","",""
"null","","html-keyboard-response","330","297227","0.0-259.0","30IQTZXKALSJBHNM1RTPY6CK3OB0X7","A3JAM040VWXHDO","3R5LWXWHR0UE010DORDQUF3E2FPGXE","","<img src=""img/set1/S1.jpg"" width=""540"" height = ""360"" style=""border:16px solid orange"">","null","","","","","","","",""
"null","","html-keyboard-response","331","297230","0.0-260.0","30IQTZXKALSJBHNM1RTPY6CK3OB0X7","A3JAM040VWXHDO","3R5LWXWHR0UE010DORDQUF3E2FPGXE","","","null","","","","","","","",""
"717.1000001430511","","image-keyboard-response","332","297949","0.0-261.0","30IQTZXKALSJBHNM1RTPY6CK3OB0X7","A3JAM040VWXHDO","3R5LWXWHR0UE010DORDQUF3E2FPGXE","","img/set1/S3.jpg","72","3","structured_normal","72","true","structured_normal,structured_incentive,random","1,2,2,3","",""
"null","","html-keyboard-response","333","298311","0.0-262.0","30IQTZXKALSJBHNM1RTPY6CK3OB0X7","A3JAM040VWXHDO","3R5LWXWHR0UE010DORDQUF3E2FPGXE","","<img src=""img/set1/S3.jpg"" width=""540"" height = ""360"" style=""border:16px solid orange"">","null","","","","","","","",""
"null","","html-keyboard-response","334","298313","0.0-263.0","30IQTZXKALSJBHNM1RTPY6CK3OB0X7","A3JAM040VWXHDO","3R5LWXWHR0UE010DORDQUF3E2FPGXE","","","null","","","","","","","",""
"749.3999998569489","","image-keyboard-response","335","299063","0.0-264.0","30IQTZXKALSJBHNM1RTPY6CK3OB0X7","A3JAM040VWXHDO","3R5LWXWHR0UE010DORDQUF3E2FPGXE","","img/set1/S1.jpg","83","1","structured_normal","83","true","structured_normal,structured_incentive,random","1,2,2,3","",""
"null","","html-keyboard-response","336","299422","0.0-265.0","30IQTZXKALSJBHNM1RTPY6CK3OB0X7","A3JAM040VWXHDO","3R5LWXWHR0UE010DORDQUF3E2FPGXE","","<img src=""img/set1/S1.jpg"" width=""540"" height = ""360"" style=""border:16px solid orange"">","null","","","","","","","",""
"null","","html-keyboard-response","337","299425","0.0-266.0","30IQTZXKALSJBHNM1RTPY6CK3OB0X7","A3JAM040VWXHDO","3R5LWXWHR0UE010DORDQUF3E2FPGXE","","","null","","","","","","","",""
"644.3999998569489","","image-keyboard-response","338","300071","0.0-267.0","30IQTZXKALSJBHNM1RTPY6CK3OB0X7","A3JAM040VWXHDO","3R5LWXWHR0UE010DORDQUF3E2FPGXE","","img/set1/S2.jpg","68","2","structured_normal","68","true","structured_normal,structured_incentive,random","1,2,2,3","",""
"null","","html-keyboard-response","339","300434","0.0-268.0","30IQTZXKALSJBHNM1RTPY6CK3OB0X7","A3JAM040VWXHDO","3R5LWXWHR0UE010DORDQUF3E2FPGXE","","<img src=""img/set1/S2.jpg"" width=""540"" height = ""360"" style=""border:16px solid orange"">","null","","","","","","","",""
"null","","html-keyboard-response","340","300437","0.0-269.0","30IQTZXKALSJBHNM1RTPY6CK3OB0X7","A3JAM040VWXHDO","3R5LWXWHR0UE010DORDQUF3E2FPGXE","","","null","","","","","","","",""
"728.2000000476837","","image-keyboard-response","341","301167","0.0-270.0","30IQTZXKALSJBHNM1RTPY6CK3OB0X7","A3JAM040VWXHDO","3R5LWXWHR0UE010DORDQUF3E2FPGXE","","img/set1/S1.jpg","83","1","structured_normal","83","true","structured_normal,structured_incentive,random","1,2,2,3","",""
"null","","html-keyboard-response","342","301521","0.0-271.0","30IQTZXKALSJBHNM1RTPY6CK3OB0X7","A3JAM040VWXHDO","3R5LWXWHR0UE010DORDQUF3E2FPGXE","","<img src=""img/set1/S1.jpg"" width=""540"" height = ""360"" style=""border:16px solid orange"">","null","","","","","","","",""
"null","","html-keyboard-response","343","301523","0.0-272.0","30IQTZXKALSJBHNM1RTPY6CK3OB0X7","A3JAM040VWXHDO","3R5LWXWHR0UE010DORDQUF3E2FPGXE","","","null","","","","","","","",""
"736.4000000953674","","image-keyboard-response","344","302261","0.0-273.0","30IQTZXKALSJBHNM1RTPY6CK3OB0X7","A3JAM040VWXHDO","3R5LWXWHR0UE010DORDQUF3E2FPGXE","","img/set1/S2.jpg","68","2","structured_normal","68","true","structured_normal,structured_incentive,random","1,2,2,3","",""
"null","","html-keyboard-response","345","302623","0.0-274.0","30IQTZXKALSJBHNM1RTPY6CK3OB0X7","A3JAM040VWXHDO","3R5LWXWHR0UE010DORDQUF3E2FPGXE","","<img src=""img/set1/S2.jpg"" width=""540"" height = ""360"" style=""border:16px solid orange"">","null","","","","","","","",""
"null","","html-keyboard-response","346","302626","0.0-275.0","30IQTZXKALSJBHNM1RTPY6CK3OB0X7","A3JAM040VWXHDO","3R5LWXWHR0UE010DORDQUF3E2FPGXE","","","null","","","","","","","",""
"710.3000001907349","","image-keyboard-response","347","303337","0.0-276.0","30IQTZXKALSJBHNM1RTPY6CK3OB0X7","A3JAM040VWXHDO","3R5LWXWHR0UE010DORDQUF3E2FPGXE","","img/set1/S4.jpg","74","4","structured_normal","74","true","structured_normal,structured_incentive,random","1,2,2,3","",""
"null","","html-keyboard-response","348","303705","0.0-277.0","30IQTZXKALSJBHNM1RTPY6CK3OB0X7","A3JAM040VWXHDO","3R5LWXWHR0UE010DORDQUF3E2FPGXE","","<img src=""img/set1/S4.jpg"" width=""540"" height = ""360"" style=""border:16px solid orange"">","null","","","","","","","",""
"null","","html-keyboard-response","349","303707","0.0-278.0","30IQTZXKALSJBHNM1RTPY6CK3OB0X7","A3JAM040VWXHDO","3R5LWXWHR0UE010DORDQUF3E2FPGXE","","","null","","","","","","","",""
"593.7999999523163","","image-keyboard-response","350","304303","0.0-279.0","30IQTZXKALSJBHNM1RTPY6CK3OB0X7","A3JAM040VWXHDO","3R5LWXWHR0UE010DORDQUF3E2FPGXE","","img/set1/S3.jpg","72","3","structured_normal","72","true","structured_normal,structured_incentive,random","1,2,2,3","",""
"null","","html-keyboard-response","351","304659","0.0-280.0","30IQTZXKALSJBHNM1RTPY6CK3OB0X7","A3JAM040VWXHDO","3R5LWXWHR0UE010DORDQUF3E2FPGXE","","<img src=""img/set1/S3.jpg"" width=""540"" height = ""360"" style=""border:16px solid orange"">","null","","","","","","","",""
"null","","html-keyboard-response","352","304662","0.0-281.0","30IQTZXKALSJBHNM1RTPY6CK3OB0X7","A3JAM040VWXHDO","3R5LWXWHR0UE010DORDQUF3E2FPGXE","","","null","","","","","","","",""
"604.7999999523163","","image-keyboard-response","353","305269","0.0-282.0","30IQTZXKALSJBHNM1RTPY6CK3OB0X7","A3JAM040VWXHDO","3R5LWXWHR0UE010DORDQUF3E2FPGXE","","img/set1/S4.jpg","74","4","structured_normal","74","true","structured_normal,structured_incentive,random","1,2,2,3","",""
"null","","html-keyboard-response","354","305624","0.0-283.0","30IQTZXKALSJBHNM1RTPY6CK3OB0X7","A3JAM040VWXHDO","3R5LWXWHR0UE010DORDQUF3E2FPGXE","","<img src=""img/set1/S4.jpg"" width=""540"" height = ""360"" style=""border:16px solid orange"">","null","","","","","","","",""
"null","","html-keyboard-response","355","305627","0.0-284.0","30IQTZXKALSJBHNM1RTPY6CK3OB0X7","A3JAM040VWXHDO","3R5LWXWHR0UE010DORDQUF3E2FPGXE","","","null","","","","","","","",""
"636.5","","image-keyboard-response","356","306266","0.0-285.0","30IQTZXKALSJBHNM1RTPY6CK3OB0X7","A3JAM040VWXHDO","3R5LWXWHR0UE010DORDQUF3E2FPGXE","","img/set1/S1.jpg","83","1","structured_normal","83","true","structured_normal,structured_incentive,random","1,2,2,3","",""
"null","","html-keyboard-response","357","306627","0.0-286.0","30IQTZXKALSJBHNM1RTPY6CK3OB0X7","A3JAM040VWXHDO","3R5LWXWHR0UE010DORDQUF3E2FPGXE","","<img src=""img/set1/S1.jpg"" width=""540"" height = ""360"" style=""border:16px solid orange"">","null","","","","","","","",""
"null","","html-keyboard-response","358","306629","0.0-287.0","30IQTZXKALSJBHNM1RTPY6CK3OB0X7","A3JAM040VWXHDO","3R5LWXWHR0UE010DORDQUF3E2FPGXE","","","null","","","","","","","",""
"433","","image-keyboard-response","359","307064","0.0-288.0","30IQTZXKALSJBHNM1RTPY6CK3OB0X7","A3JAM040VWXHDO","3R5LWXWHR0UE010DORDQUF3E2FPGXE","","img/set1/S2.jpg","68","2","structured_normal","68","true","structured_normal,structured_incentive,random","1,2,2,3","",""
"null","","html-keyboard-response","360","307429","0.0-289.0","30IQTZXKALSJBHNM1RTPY6CK3OB0X7","A3JAM040VWXHDO","3R5LWXWHR0UE010DORDQUF3E2FPGXE","","<img src=""img/set1/S2.jpg"" width=""540"" height = ""360"" style=""border:16px solid orange"">","null","","","","","","","",""
"null","","html-keyboard-response","361","307431","0.0-290.0","30IQTZXKALSJBHNM1RTPY6CK3OB0X7","A3JAM040VWXHDO","3R5LWXWHR0UE010DORDQUF3E2FPGXE","","","null","","","","","","","",""
"720.9000000953674","","image-keyboard-response","362","308154","0.0-291.0","30IQTZXKALSJBHNM1RTPY6CK3OB0X7","A3JAM040VWXHDO","3R5LWXWHR0UE010DORDQUF3E2FPGXE","","img/set1/S1.jpg","83","1","structured_normal","83","true","structured_normal,structured_incentive,random","1,2,2,3","",""
"null","","html-keyboard-response","363","308519","0.0-292.0","30IQTZXKALSJBHNM1RTPY6CK3OB0X7","A3JAM040VWXHDO","3R5LWXWHR0UE010DORDQUF3E2FPGXE","","<img src=""img/set1/S1.jpg"" width=""540"" height = ""360"" style=""border:16px solid orange"">","null","","","","","","","",""
"null","","html-keyboard-response","364","308521","0.0-293.0","30IQTZXKALSJBHNM1RTPY6CK3OB0X7","A3JAM040VWXHDO","3R5LWXWHR0UE010DORDQUF3E2FPGXE","","","null","","","","","","","",""
"702.5","","image-keyboard-response","365","309225","0.0-294.0","30IQTZXKALSJBHNM1RTPY6CK3OB0X7","A3JAM040VWXHDO","3R5LWXWHR0UE010DORDQUF3E2FPGXE","","img/set1/S3.jpg","72","3","structured_normal","72","true","structured_normal,structured_incentive,random","1,2,2,3","",""
"null","","html-keyboard-response","366","309583","0.0-295.0","30IQTZXKALSJBHNM1RTPY6CK3OB0X7","A3JAM040VWXHDO","3R5LWXWHR0UE010DORDQUF3E2FPGXE","","<img src=""img/set1/S3.jpg"" width=""540"" height = ""360"" style=""border:16px solid orange"">","null","","","","","","","",""
"null","","html-keyboard-response","367","309590","0.0-296.0","30IQTZXKALSJBHNM1RTPY6CK3OB0X7","A3JAM040VWXHDO","3R5LWXWHR0UE010DORDQUF3E2FPGXE","","","null","","","","","","","",""
"551.0999999046326","","image-keyboard-response","368","310144","0.0-297.0","30IQTZXKALSJBHNM1RTPY6CK3OB0X7","A3JAM040VWXHDO","3R5LWXWHR0UE010DORDQUF3E2FPGXE","","img/set1/S4.jpg","74","4","structured_normal","74","true","structured_normal,structured_incentive,random","1,2,2,3","",""
"null","","html-keyboard-response","369","310511","0.0-298.0","30IQTZXKALSJBHNM1RTPY6CK3OB0X7","A3JAM040VWXHDO","3R5LWXWHR0UE010DORDQUF3E2FPGXE","","<img src=""img/set1/S4.jpg"" width=""540"" height = ""360"" style=""border:16px solid orange"">","null","","","","","","","",""
"null","","html-keyboard-response","370","310519","0.0-299.0","30IQTZXKALSJBHNM1RTPY6CK3OB0X7","A3JAM040VWXHDO","3R5LWXWHR0UE010DORDQUF3E2FPGXE","","","null","","","","","","","",""
"564.5","","image-keyboard-response","371","311086","0.0-300.0","30IQTZXKALSJBHNM1RTPY6CK3OB0X7","A3JAM040VWXHDO","3R5LWXWHR0UE010DORDQUF3E2FPGXE","","img/set1/S1.jpg","83","1","structured_normal","83","true","structured_normal,structured_incentive,random","1,2,2,3","",""
"null","","html-keyboard-response","372","311441","0.0-301.0","30IQTZXKALSJBHNM1RTPY6CK3OB0X7","A3JAM040VWXHDO","3R5LWXWHR0UE010DORDQUF3E2FPGXE","","<img src=""img/set1/S1.jpg"" width=""540"" height = ""360"" style=""border:16px solid orange"">","null","","","","","","","",""
"null","","html-keyboard-response","373","311443","0.0-302.0","30IQTZXKALSJBHNM1RTPY6CK3OB0X7","A3JAM040VWXHDO","3R5LWXWHR0UE010DORDQUF3E2FPGXE","","","null","","","","","","","",""
"647.2999999523163","","image-keyboard-response","374","312092","0.0-303.0","30IQTZXKALSJBHNM1RTPY6CK3OB0X7","A3JAM040VWXHDO","3R5LWXWHR0UE010DORDQUF3E2FPGXE","","img/set1/S2.jpg","68","2","structured_normal","68","true","structured_normal,structured_incentive,random","1,2,2,3","",""
"null","","html-keyboard-response","375","312460","0.0-304.0","30IQTZXKALSJBHNM1RTPY6CK3OB0X7","A3JAM040VWXHDO","3R5LWXWHR0UE010DORDQUF3E2FPGXE","","<img src=""img/set1/S2.jpg"" width=""540"" height = ""360"" style=""border:16px solid orange"">","null","","","","","","","",""
"null","","html-keyboard-response","376","312462","0.0-305.0","30IQTZXKALSJBHNM1RTPY6CK3OB0X7","A3JAM040VWXHDO","3R5LWXWHR0UE010DORDQUF3E2FPGXE","","","null","","","","","","","",""
"684.2000000476837","","image-keyboard-response","377","313148","0.0-306.0","30IQTZXKALSJBHNM1RTPY6CK3OB0X7","A3JAM040VWXHDO","3R5LWXWHR0UE010DORDQUF3E2FPGXE","","img/set1/S4.jpg","74","4","structured_normal","74","true","structured_normal,structured_incentive,random","1,2,2,3","",""
"null","","html-keyboard-response","378","313516","0.0-307.0","30IQTZXKALSJBHNM1RTPY6CK3OB0X7","A3JAM040VWXHDO","3R5LWXWHR0UE010DORDQUF3E2FPGXE","","<img src=""img/set1/S4.jpg"" width=""540"" height = ""360"" style=""border:16px solid orange"">","null","","","","","","","",""
"null","","html-keyboard-response","379","313519","0.0-308.0","30IQTZXKALSJBHNM1RTPY6CK3OB0X7","A3JAM040VWXHDO","3R5LWXWHR0UE010DORDQUF3E2FPGXE","","","null","","","","","","","",""
"426.7000000476837","","image-keyboard-response","380","313949","0.0-309.0","30IQTZXKALSJBHNM1RTPY6CK3OB0X7","A3JAM040VWXHDO","3R5LWXWHR0UE010DORDQUF3E2FPGXE","","img/set1/S4.jpg","74","4","structured_normal","74","true","structured_normal,structured_incentive,random","1,2,2,3","",""
"null","","html-keyboard-response","381","314318","0.0-310.0","30IQTZXKALSJBHNM1RTPY6CK3OB0X7","A3JAM040VWXHDO","3R5LWXWHR0UE010DORDQUF3E2FPGXE","","<img src=""img/set1/S4.jpg"" width=""540"" height = ""360"" style=""border:16px solid orange"">","null","","","","","","","",""
"null","","html-keyboard-response","382","314321","0.0-311.0","30IQTZXKALSJBHNM1RTPY6CK3OB0X7","A3JAM040VWXHDO","3R5LWXWHR0UE010DORDQUF3E2FPGXE","","","null","","","","","","","",""
"476.40000009536743","","image-keyboard-response","383","314800","0.0-312.0","30IQTZXKALSJBHNM1RTPY6CK3OB0X7","A3JAM040VWXHDO","3R5LWXWHR0UE010DORDQUF3E2FPGXE","","img/set1/S3.jpg","72","3","structured_normal","72","true","structured_normal,structured_incentive,random","1,2,2,3","",""
"null","","html-keyboard-response","384","315167","0.0-313.0","30IQTZXKALSJBHNM1RTPY6CK3OB0X7","A3JAM040VWXHDO","3R5LWXWHR0UE010DORDQUF3E2FPGXE","","<img src=""img/set1/S3.jpg"" width=""540"" height = ""360"" style=""border:16px solid orange"">","null","","","","","","","",""
"null","","html-keyboard-response","385","315170","0.0-314.0","30IQTZXKALSJBHNM1RTPY6CK3OB0X7","A3JAM040VWXHDO","3R5LWXWHR0UE010DORDQUF3E2FPGXE","","","null","","","","","","","",""
"668.9000000953674","","image-keyboard-response","386","315840","0.0-315.0","30IQTZXKALSJBHNM1RTPY6CK3OB0X7","A3JAM040VWXHDO","3R5LWXWHR0UE010DORDQUF3E2FPGXE","","img/set1/S1.jpg","83","1","structured_normal","83","true","structured_normal,structured_incentive,random","1,2,2,3","",""
"null","","html-keyboard-response","387","316198","0.0-316.0","30IQTZXKALSJBHNM1RTPY6CK3OB0X7","A3JAM040VWXHDO","3R5LWXWHR0UE010DORDQUF3E2FPGXE","","<img src=""img/set1/S1.jpg"" width=""540"" height = ""360"" style=""border:16px solid orange"">","null","","","","","","","",""
"null","","html-keyboard-response","388","316200","0.0-317.0","30IQTZXKALSJBHNM1RTPY6CK3OB0X7","A3JAM040VWXHDO","3R5LWXWHR0UE010DORDQUF3E2FPGXE","","","null","","","","","","","",""
"685.5","","image-keyboard-response","389","316888","0.0-318.0","30IQTZXKALSJBHNM1RTPY6CK3OB0X7","A3JAM040VWXHDO","3R5LWXWHR0UE010DORDQUF3E2FPGXE","","img/set1/S3.jpg","72","3","structured_normal","72","true","structured_normal,structured_incentive,random","1,2,2,3","",""
"null","","html-keyboard-response","390","317249","0.0-319.0","30IQTZXKALSJBHNM1RTPY6CK3OB0X7","A3JAM040VWXHDO","3R5LWXWHR0UE010DORDQUF3E2FPGXE","","<img src=""img/set1/S3.jpg"" width=""540"" height = ""360"" style=""border:16px solid orange"">","null","","","","","","","",""
"null","","html-keyboard-response","391","317251","0.0-320.0","30IQTZXKALSJBHNM1RTPY6CK3OB0X7","A3JAM040VWXHDO","3R5LWXWHR0UE010DORDQUF3E2FPGXE","","","null","","","","","","","",""
"721.8999998569489","","image-keyboard-response","392","317974","0.0-321.0","30IQTZXKALSJBHNM1RTPY6CK3OB0X7","A3JAM040VWXHDO","3R5LWXWHR0UE010DORDQUF3E2FPGXE","","img/set1/S1.jpg","83","1","structured_normal","83","true","structured_normal,structured_incentive,random","1,2,2,3","",""
"null","","html-keyboard-response","393","318339","0.0-322.0","30IQTZXKALSJBHNM1RTPY6CK3OB0X7","A3JAM040VWXHDO","3R5LWXWHR0UE010DORDQUF3E2FPGXE","","<img src=""img/set1/S1.jpg"" width=""540"" height = ""360"" style=""border:16px solid orange"">","null","","","","","","","",""
"null","","html-keyboard-response","394","318342","0.0-323.0","30IQTZXKALSJBHNM1RTPY6CK3OB0X7","A3JAM040VWXHDO","3R5LWXWHR0UE010DORDQUF3E2FPGXE","","","null","","","","","","","",""
"615.5","","image-keyboard-response","395","318959","0.0-324.0","30IQTZXKALSJBHNM1RTPY6CK3OB0X7","A3JAM040VWXHDO","3R5LWXWHR0UE010DORDQUF3E2FPGXE","","img/set1/S2.jpg","68","2","structured_normal","68","true","structured_normal,structured_incentive,random","1,2,2,3","",""
"null","","html-keyboard-response","396","319320","0.0-325.0","30IQTZXKALSJBHNM1RTPY6CK3OB0X7","A3JAM040VWXHDO","3R5LWXWHR0UE010DORDQUF3E2FPGXE","","<img src=""img/set1/S2.jpg"" width=""540"" height = ""360"" style=""border:16px solid orange"">","null","","","","","","","",""
"null","","html-keyboard-response","397","319322","0.0-326.0","30IQTZXKALSJBHNM1RTPY6CK3OB0X7","A3JAM040VWXHDO","3R5LWXWHR0UE010DORDQUF3E2FPGXE","","","null","","","","","","","",""
"643.9000000953674","","image-keyboard-response","398","319968","0.0-327.0","30IQTZXKALSJBHNM1RTPY6CK3OB0X7","A3JAM040VWXHDO","3R5LWXWHR0UE010DORDQUF3E2FPGXE","","img/set1/S4.jpg","74","4","structured_normal","74","true","structured_normal,structured_incentive,random","1,2,2,3","",""
"null","","html-keyboard-response","399","320322","0.0-328.0","30IQTZXKALSJBHNM1RTPY6CK3OB0X7","A3JAM040VWXHDO","3R5LWXWHR0UE010DORDQUF3E2FPGXE","","<img src=""img/set1/S4.jpg"" width=""540"" height = ""360"" style=""border:16px solid orange"">","null","","","","","","","",""
"null","","html-keyboard-response","400","320328","0.0-329.0","30IQTZXKALSJBHNM1RTPY6CK3OB0X7","A3JAM040VWXHDO","3R5LWXWHR0UE010DORDQUF3E2FPGXE","","","null","","","","","","","",""
"760.2999999523163","","image-keyboard-response","401","321090","0.0-330.0","30IQTZXKALSJBHNM1RTPY6CK3OB0X7","A3JAM040VWXHDO","3R5LWXWHR0UE010DORDQUF3E2FPGXE","","img/set1/S2.jpg","68","2","structured_normal","68","true","structured_normal,structured_incentive,random","1,2,2,3","",""
"null","","html-keyboard-response","402","321445","0.0-331.0","30IQTZXKALSJBHNM1RTPY6CK3OB0X7","A3JAM040VWXHDO","3R5LWXWHR0UE010DORDQUF3E2FPGXE","","<img src=""img/set1/S2.jpg"" width=""540"" height = ""360"" style=""border:16px solid orange"">","null","","","","","","","",""
"null","","html-keyboard-response","403","321447","0.0-332.0","30IQTZXKALSJBHNM1RTPY6CK3OB0X7","A3JAM040VWXHDO","3R5LWXWHR0UE010DORDQUF3E2FPGXE","","","null","","","","","","","",""
"607.8000001907349","","image-keyboard-response","404","322057","0.0-333.0","30IQTZXKALSJBHNM1RTPY6CK3OB0X7","A3JAM040VWXHDO","3R5LWXWHR0UE010DORDQUF3E2FPGXE","","img/set1/S3.jpg","72","3","structured_normal","72","true","structured_normal,structured_incentive,random","1,2,2,3","",""
"null","","html-keyboard-response","405","322417","0.0-334.0","30IQTZXKALSJBHNM1RTPY6CK3OB0X7","A3JAM040VWXHDO","3R5LWXWHR0UE010DORDQUF3E2FPGXE","","<img src=""img/set1/S3.jpg"" width=""540"" height = ""360"" style=""border:16px solid orange"">","null","","","","","","","",""
"null","","html-keyboard-response","406","322420","0.0-335.0","30IQTZXKALSJBHNM1RTPY6CK3OB0X7","A3JAM040VWXHDO","3R5LWXWHR0UE010DORDQUF3E2FPGXE","","","null","","","","","","","",""
"701.9000000953674","","image-keyboard-response","407","323126","0.0-336.0","30IQTZXKALSJBHNM1RTPY6CK3OB0X7","A3JAM040VWXHDO","3R5LWXWHR0UE010DORDQUF3E2FPGXE","","img/set1/S1.jpg","83","1","structured_normal","83","true","structured_normal,structured_incentive,random","1,2,2,3","",""
