"rt","url","trial_type","trial_index","time_elapsed","internal_node_id","assignmentID","mturkID","hitID","view_history","stimulus","key_press","state","test_part","correct_response","correct","order_block","order_chunk","bonus","responses"
"11487","consent.html","external-html","0","11587","0.0-0.0","3QRYMNZ7FZ3FFW69XNUQKFNRYLXTNR","A3L2XKXABNO0N5","3XUSYT70ITN3RRKBJPNBFGD6FGOD06","","","","","","","","","","",""
"84881","","instructions","1","96472","0.0-1.0","3QRYMNZ7FZ3FFW69XNUQKFNRYLXTNR","A3L2XKXABNO0N5","3XUSYT70ITN3RRKBJPNBFGD6FGOD06","[{""page_index"":0,""viewing_time"":3642},{""page_index"":1,""viewing_time"":7003.0999999940395},{""page_index"":2,""viewing_time"":12827.29999999702},{""page_index"":3,""viewing_time"":10554},{""page_index"":4,""viewing_time"":7370.300000011921},{""page_index"":5,""viewing_time"":11314.09999999404},{""page_index"":6,""viewing_time"":9089.40000000596},{""page_index"":7,""viewing_time"":23080.09999999404}]","","","","","","","","","",""
"null","","image-keyboard-response","2","98988","0.0-2.0-0.0","3QRYMNZ7FZ3FFW69XNUQKFNRYLXTNR","A3L2XKXABNO0N5","3XUSYT70ITN3RRKBJPNBFGD6FGOD06","","img/practice/S4.jpg","null","4","practice","74","false","","","",""
"null","","html-keyboard-response","3","99298","0.0-2.0-1.0","3QRYMNZ7FZ3FFW69XNUQKFNRYLXTNR","A3L2XKXABNO0N5","3XUSYT70ITN3RRKBJPNBFGD6FGOD06","","<img src=""img/practice/S4.jpg"" width=""540"" height = ""360"">","null","","","","","","","",""
"null","","html-keyboard-response","4","99300","0.0-2.0-2.0","3QRYMNZ7FZ3FFW69XNUQKFNRYLXTNR","A3L2XKXABNO0N5","3XUSYT70ITN3RRKBJPNBFGD6FGOD06","","","null","","","","","","","",""
"null","","image-keyboard-response","5","101804","0.0-2.0-0.1","3QRYMNZ7FZ3FFW69XNUQKFNRYLXTNR","A3L2XKXABNO0N5","3XUSYT70ITN3RRKBJPNBFGD6FGOD06","","img/practice/S3.jpg","null","3","practice","72","false","","","",""
"null","","html-keyboard-response","6","102117","0.0-2.0-1.1","3QRYMNZ7FZ3FFW69XNUQKFNRYLXTNR","A3L2XKXABNO0N5","3XUSYT70ITN3RRKBJPNBFGD6FGOD06","","<img src=""img/practice/S3.jpg"" width=""540"" height = ""360"">","null","","","","","","","",""
"null","","html-keyboard-response","7","102123","0.0-2.0-2.1","3QRYMNZ7FZ3FFW69XNUQKFNRYLXTNR","A3L2XKXABNO0N5","3XUSYT70ITN3RRKBJPNBFGD6FGOD06","","","null","","","","","","","",""
"2020.1000000089407","","image-keyboard-response","8","104145","0.0-2.0-0.2","3QRYMNZ7FZ3FFW69XNUQKFNRYLXTNR","A3L2XKXABNO0N5","3XUSYT70ITN3RRKBJPNBFGD6FGOD06","","img/practice/S1.jpg","72","1","practice","83","false","","","",""
"null","","html-keyboard-response","9","104448","0.0-2.0-1.2","3QRYMNZ7FZ3FFW69XNUQKFNRYLXTNR","A3L2XKXABNO0N5","3XUSYT70ITN3RRKBJPNBFGD6FGOD06","","<img src=""img/practice/S1.jpg"" width=""540"" height = ""360"">","null","","","","","","","",""
"null","","html-keyboard-response","10","104451","0.0-2.0-2.2","3QRYMNZ7FZ3FFW69XNUQKFNRYLXTNR","A3L2XKXABNO0N5","3XUSYT70ITN3RRKBJPNBFGD6FGOD06","","","null","","","","","","","",""
"1203.1000000089407","","image-keyboard-response","11","105657","0.0-2.0-0.3","3QRYMNZ7FZ3FFW69XNUQKFNRYLXTNR","A3L2XKXABNO0N5","3XUSYT70ITN3RRKBJPNBFGD6FGOD06","","img/practice/S2.jpg","83","2","practice","68","false","","","",""
"null","","html-keyboard-response","12","105967","0.0-2.0-1.3","3QRYMNZ7FZ3FFW69XNUQKFNRYLXTNR","A3L2XKXABNO0N5","3XUSYT70ITN3RRKBJPNBFGD6FGOD06","","<img src=""img/practice/S2.jpg"" width=""540"" height = ""360"">","null","","","","","","","",""
"null","","html-keyboard-response","13","105970","0.0-2.0-2.3","3QRYMNZ7FZ3FFW69XNUQKFNRYLXTNR","A3L2XKXABNO0N5","3XUSYT70ITN3RRKBJPNBFGD6FGOD06","","","null","","","","","","","",""
"1430.0999999940395","","image-keyboard-response","14","107401","0.0-2.0-0.4","3QRYMNZ7FZ3FFW69XNUQKFNRYLXTNR","A3L2XKXABNO0N5","3XUSYT70ITN3RRKBJPNBFGD6FGOD06","","img/practice/S2.jpg","83","2","practice","68","false","","","",""
"null","","html-keyboard-response","15","107707","0.0-2.0-1.4","3QRYMNZ7FZ3FFW69XNUQKFNRYLXTNR","A3L2XKXABNO0N5","3XUSYT70ITN3RRKBJPNBFGD6FGOD06","","<img src=""img/practice/S2.jpg"" width=""540"" height = ""360"">","null","","","","","","","",""
"null","","html-keyboard-response","16","107711","0.0-2.0-2.4","3QRYMNZ7FZ3FFW69XNUQKFNRYLXTNR","A3L2XKXABNO0N5","3XUSYT70ITN3RRKBJPNBFGD6FGOD06","","","null","","","","","","","",""
"1224.7000000029802","","image-keyboard-response","17","108937","0.0-2.0-0.5","3QRYMNZ7FZ3FFW69XNUQKFNRYLXTNR","A3L2XKXABNO0N5","3XUSYT70ITN3RRKBJPNBFGD6FGOD06","","img/practice/S3.jpg","74","3","practice","72","false","","","",""
"null","","html-keyboard-response","18","109248","0.0-2.0-1.5","3QRYMNZ7FZ3FFW69XNUQKFNRYLXTNR","A3L2XKXABNO0N5","3XUSYT70ITN3RRKBJPNBFGD6FGOD06","","<img src=""img/practice/S3.jpg"" width=""540"" height = ""360"">","null","","","","","","","",""
"null","","html-keyboard-response","19","109250","0.0-2.0-2.5","3QRYMNZ7FZ3FFW69XNUQKFNRYLXTNR","A3L2XKXABNO0N5","3XUSYT70ITN3RRKBJPNBFGD6FGOD06","","","null","","","","","","","",""
"703.2999999970198","","image-keyboard-response","20","109955","0.0-2.0-0.6","3QRYMNZ7FZ3FFW69XNUQKFNRYLXTNR","A3L2XKXABNO0N5","3XUSYT70ITN3RRKBJPNBFGD6FGOD06","","img/practice/S1.jpg","72","1","practice","83","false","","","",""
"null","","html-keyboard-response","21","110278","0.0-2.0-1.6","3QRYMNZ7FZ3FFW69XNUQKFNRYLXTNR","A3L2XKXABNO0N5","3XUSYT70ITN3RRKBJPNBFGD6FGOD06","","<img src=""img/practice/S1.jpg"" width=""540"" height = ""360"">","null","","","","","","","",""
"null","","html-keyboard-response","22","110282","0.0-2.0-2.6","3QRYMNZ7FZ3FFW69XNUQKFNRYLXTNR","A3L2XKXABNO0N5","3XUSYT70ITN3RRKBJPNBFGD6FGOD06","","","null","","","","","","","",""
"918.1000000089407","","image-keyboard-response","23","111203","0.0-2.0-0.7","3QRYMNZ7FZ3FFW69XNUQKFNRYLXTNR","A3L2XKXABNO0N5","3XUSYT70ITN3RRKBJPNBFGD6FGOD06","","img/practice/S4.jpg","68","4","practice","74","false","","","",""
"null","","html-keyboard-response","24","111524","0.0-2.0-1.7","3QRYMNZ7FZ3FFW69XNUQKFNRYLXTNR","A3L2XKXABNO0N5","3XUSYT70ITN3RRKBJPNBFGD6FGOD06","","<img src=""img/practice/S4.jpg"" width=""540"" height = ""360"">","null","","","","","","","",""
"null","","html-keyboard-response","25","111526","0.0-2.0-2.7","3QRYMNZ7FZ3FFW69XNUQKFNRYLXTNR","A3L2XKXABNO0N5","3XUSYT70ITN3RRKBJPNBFGD6FGOD06","","","null","","","","","","","",""
"626.5999999940395","","image-keyboard-response","26","112154","0.0-2.0-0.8","3QRYMNZ7FZ3FFW69XNUQKFNRYLXTNR","A3L2XKXABNO0N5","3XUSYT70ITN3RRKBJPNBFGD6FGOD06","","img/practice/S4.jpg","68","4","practice","74","false","","","",""
"null","","html-keyboard-response","27","112468","0.0-2.0-1.8","3QRYMNZ7FZ3FFW69XNUQKFNRYLXTNR","A3L2XKXABNO0N5","3XUSYT70ITN3RRKBJPNBFGD6FGOD06","","<img src=""img/practice/S4.jpg"" width=""540"" height = ""360"">","null","","","","","","","",""
"null","","html-keyboard-response","28","112471","0.0-2.0-2.8","3QRYMNZ7FZ3FFW69XNUQKFNRYLXTNR","A3L2XKXABNO0N5","3XUSYT70ITN3RRKBJPNBFGD6FGOD06","","","null","","","","","","","",""
"1055.7999999970198","","image-keyboard-response","29","113531","0.0-2.0-0.9","3QRYMNZ7FZ3FFW69XNUQKFNRYLXTNR","A3L2XKXABNO0N5","3XUSYT70ITN3RRKBJPNBFGD6FGOD06","","img/practice/S1.jpg","72","1","practice","83","false","","","",""
"null","","html-keyboard-response","30","113833","0.0-2.0-1.9","3QRYMNZ7FZ3FFW69XNUQKFNRYLXTNR","A3L2XKXABNO0N5","3XUSYT70ITN3RRKBJPNBFGD6FGOD06","","<img src=""img/practice/S1.jpg"" width=""540"" height = ""360"">","null","","","","","","","",""
"null","","html-keyboard-response","31","113836","0.0-2.0-2.9","3QRYMNZ7FZ3FFW69XNUQKFNRYLXTNR","A3L2XKXABNO0N5","3XUSYT70ITN3RRKBJPNBFGD6FGOD06","","","null","","","","","","","",""
"565.2000000029802","","image-keyboard-response","32","114403","0.0-2.0-0.10","3QRYMNZ7FZ3FFW69XNUQKFNRYLXTNR","A3L2XKXABNO0N5","3XUSYT70ITN3RRKBJPNBFGD6FGOD06","","img/practice/S3.jpg","74","3","practice","72","false","","","",""
"null","","html-keyboard-response","33","114717","0.0-2.0-1.10","3QRYMNZ7FZ3FFW69XNUQKFNRYLXTNR","A3L2XKXABNO0N5","3XUSYT70ITN3RRKBJPNBFGD6FGOD06","","<img src=""img/practice/S3.jpg"" width=""540"" height = ""360"">","null","","","","","","","",""
"null","","html-keyboard-response","34","114720","0.0-2.0-2.10","3QRYMNZ7FZ3FFW69XNUQKFNRYLXTNR","A3L2XKXABNO0N5","3XUSYT70ITN3RRKBJPNBFGD6FGOD06","","","null","","","","","","","",""
"807.9000000059605","","image-keyboard-response","35","115529","0.0-2.0-0.11","3QRYMNZ7FZ3FFW69XNUQKFNRYLXTNR","A3L2XKXABNO0N5","3XUSYT70ITN3RRKBJPNBFGD6FGOD06","","img/practice/S2.jpg","83","2","practice","68","false","","","",""
"null","","html-keyboard-response","36","115847","0.0-2.0-1.11","3QRYMNZ7FZ3FFW69XNUQKFNRYLXTNR","A3L2XKXABNO0N5","3XUSYT70ITN3RRKBJPNBFGD6FGOD06","","<img src=""img/practice/S2.jpg"" width=""540"" height = ""360"">","null","","","","","","","",""
"null","","html-keyboard-response","37","115850","0.0-2.0-2.11","3QRYMNZ7FZ3FFW69XNUQKFNRYLXTNR","A3L2XKXABNO0N5","3XUSYT70ITN3RRKBJPNBFGD6FGOD06","","","null","","","","","","","",""
"829.2999999970198","","image-keyboard-response","38","116681","0.0-2.0-0.12","3QRYMNZ7FZ3FFW69XNUQKFNRYLXTNR","A3L2XKXABNO0N5","3XUSYT70ITN3RRKBJPNBFGD6FGOD06","","img/practice/S2.jpg","83","2","practice","68","false","","","",""
"null","","html-keyboard-response","39","116987","0.0-2.0-1.12","3QRYMNZ7FZ3FFW69XNUQKFNRYLXTNR","A3L2XKXABNO0N5","3XUSYT70ITN3RRKBJPNBFGD6FGOD06","","<img src=""img/practice/S2.jpg"" width=""540"" height = ""360"">","null","","","","","","","",""
"null","","html-keyboard-response","40","116991","0.0-2.0-2.12","3QRYMNZ7FZ3FFW69XNUQKFNRYLXTNR","A3L2XKXABNO0N5","3XUSYT70ITN3RRKBJPNBFGD6FGOD06","","","null","","","","","","","",""
"929.5999999940395","","image-keyboard-response","41","117922","0.0-2.0-0.13","3QRYMNZ7FZ3FFW69XNUQKFNRYLXTNR","A3L2XKXABNO0N5","3XUSYT70ITN3RRKBJPNBFGD6FGOD06","","img/practice/S1.jpg","72","1","practice","83","false","","","",""
"null","","html-keyboard-response","42","118224","0.0-2.0-1.13","3QRYMNZ7FZ3FFW69XNUQKFNRYLXTNR","A3L2XKXABNO0N5","3XUSYT70ITN3RRKBJPNBFGD6FGOD06","","<img src=""img/practice/S1.jpg"" width=""540"" height = ""360"">","null","","","","","","","",""
"null","","html-keyboard-response","43","118227","0.0-2.0-2.13","3QRYMNZ7FZ3FFW69XNUQKFNRYLXTNR","A3L2XKXABNO0N5","3XUSYT70ITN3RRKBJPNBFGD6FGOD06","","","null","","","","","","","",""
"884.2999999970198","","image-keyboard-response","44","119113","0.0-2.0-0.14","3QRYMNZ7FZ3FFW69XNUQKFNRYLXTNR","A3L2XKXABNO0N5","3XUSYT70ITN3RRKBJPNBFGD6FGOD06","","img/practice/S3.jpg","74","3","practice","72","false","","","",""
"null","","html-keyboard-response","45","119422","0.0-2.0-1.14","3QRYMNZ7FZ3FFW69XNUQKFNRYLXTNR","A3L2XKXABNO0N5","3XUSYT70ITN3RRKBJPNBFGD6FGOD06","","<img src=""img/practice/S3.jpg"" width=""540"" height = ""360"">","null","","","","","","","",""
"null","","html-keyboard-response","46","119424","0.0-2.0-2.14","3QRYMNZ7FZ3FFW69XNUQKFNRYLXTNR","A3L2XKXABNO0N5","3XUSYT70ITN3RRKBJPNBFGD6FGOD06","","","null","","","","","","","",""
"758.8999999910593","","image-keyboard-response","47","120185","0.0-2.0-0.15","3QRYMNZ7FZ3FFW69XNUQKFNRYLXTNR","A3L2XKXABNO0N5","3XUSYT70ITN3RRKBJPNBFGD6FGOD06","","img/practice/S4.jpg","68","4","practice","74","false","","","",""
"null","","html-keyboard-response","48","120490","0.0-2.0-1.15","3QRYMNZ7FZ3FFW69XNUQKFNRYLXTNR","A3L2XKXABNO0N5","3XUSYT70ITN3RRKBJPNBFGD6FGOD06","","<img src=""img/practice/S4.jpg"" width=""540"" height = ""360"">","null","","","","","","","",""
"null","","html-keyboard-response","49","120501","0.0-2.0-2.15","3QRYMNZ7FZ3FFW69XNUQKFNRYLXTNR","A3L2XKXABNO0N5","3XUSYT70ITN3RRKBJPNBFGD6FGOD06","","","null","","","","","","","",""
"442.20000000298023","","image-keyboard-response","50","120947","0.0-2.0-0.16","3QRYMNZ7FZ3FFW69XNUQKFNRYLXTNR","A3L2XKXABNO0N5","3XUSYT70ITN3RRKBJPNBFGD6FGOD06","","img/practice/S4.jpg","68","4","practice","74","false","","","",""
"null","","html-keyboard-response","51","121267","0.0-2.0-1.16","3QRYMNZ7FZ3FFW69XNUQKFNRYLXTNR","A3L2XKXABNO0N5","3XUSYT70ITN3RRKBJPNBFGD6FGOD06","","<img src=""img/practice/S4.jpg"" width=""540"" height = ""360"">","null","","","","","","","",""
"null","","html-keyboard-response","52","121271","0.0-2.0-2.16","3QRYMNZ7FZ3FFW69XNUQKFNRYLXTNR","A3L2XKXABNO0N5","3XUSYT70ITN3RRKBJPNBFGD6FGOD06","","","null","","","","","","","",""
"745.4000000059605","","image-keyboard-response","53","122017","0.0-2.0-0.17","3QRYMNZ7FZ3FFW69XNUQKFNRYLXTNR","A3L2XKXABNO0N5","3XUSYT70ITN3RRKBJPNBFGD6FGOD06","","img/practice/S2.jpg","83","2","practice","68","false","","","",""
"null","","html-keyboard-response","54","122325","0.0-2.0-1.17","3QRYMNZ7FZ3FFW69XNUQKFNRYLXTNR","A3L2XKXABNO0N5","3XUSYT70ITN3RRKBJPNBFGD6FGOD06","","<img src=""img/practice/S2.jpg"" width=""540"" height = ""360"">","null","","","","","","","",""
"null","","html-keyboard-response","55","122329","0.0-2.0-2.17","3QRYMNZ7FZ3FFW69XNUQKFNRYLXTNR","A3L2XKXABNO0N5","3XUSYT70ITN3RRKBJPNBFGD6FGOD06","","","null","","","","","","","",""
"911.2000000029802","","image-keyboard-response","56","123242","0.0-2.0-0.18","3QRYMNZ7FZ3FFW69XNUQKFNRYLXTNR","A3L2XKXABNO0N5","3XUSYT70ITN3RRKBJPNBFGD6FGOD06","","img/practice/S3.jpg","74","3","practice","72","false","","","",""
"null","","html-keyboard-response","57","123552","0.0-2.0-1.18","3QRYMNZ7FZ3FFW69XNUQKFNRYLXTNR","A3L2XKXABNO0N5","3XUSYT70ITN3RRKBJPNBFGD6FGOD06","","<img src=""img/practice/S3.jpg"" width=""540"" height = ""360"">","null","","","","","","","",""
"null","","html-keyboard-response","58","123555","0.0-2.0-2.18","3QRYMNZ7FZ3FFW69XNUQKFNRYLXTNR","A3L2XKXABNO0N5","3XUSYT70ITN3RRKBJPNBFGD6FGOD06","","","null","","","","","","","",""
"1029.6000000089407","","image-keyboard-response","59","124587","0.0-2.0-0.19","3QRYMNZ7FZ3FFW69XNUQKFNRYLXTNR","A3L2XKXABNO0N5","3XUSYT70ITN3RRKBJPNBFGD6FGOD06","","img/practice/S1.jpg","72","1","practice","83","false","","","",""
"null","","html-keyboard-response","60","124907","0.0-2.0-1.19","3QRYMNZ7FZ3FFW69XNUQKFNRYLXTNR","A3L2XKXABNO0N5","3XUSYT70ITN3RRKBJPNBFGD6FGOD06","","<img src=""img/practice/S1.jpg"" width=""540"" height = ""360"">","null","","","","","","","",""
"null","","html-keyboard-response","61","124910","0.0-2.0-2.19","3QRYMNZ7FZ3FFW69XNUQKFNRYLXTNR","A3L2XKXABNO0N5","3XUSYT70ITN3RRKBJPNBFGD6FGOD06","","","null","","","","","","","",""
"690.7999999970198","","image-keyboard-response","62","125603","0.0-2.0-0.20","3QRYMNZ7FZ3FFW69XNUQKFNRYLXTNR","A3L2XKXABNO0N5","3XUSYT70ITN3RRKBJPNBFGD6FGOD06","","img/practice/S3.jpg","74","3","practice","72","false","","","",""
"null","","html-keyboard-response","63","125918","0.0-2.0-1.20","3QRYMNZ7FZ3FFW69XNUQKFNRYLXTNR","A3L2XKXABNO0N5","3XUSYT70ITN3RRKBJPNBFGD6FGOD06","","<img src=""img/practice/S3.jpg"" width=""540"" height = ""360"">","null","","","","","","","",""
"null","","html-keyboard-response","64","125920","0.0-2.0-2.20","3QRYMNZ7FZ3FFW69XNUQKFNRYLXTNR","A3L2XKXABNO0N5","3XUSYT70ITN3RRKBJPNBFGD6FGOD06","","","null","","","","","","","",""
"823.3999999910593","","image-keyboard-response","65","126745","0.0-2.0-0.21","3QRYMNZ7FZ3FFW69XNUQKFNRYLXTNR","A3L2XKXABNO0N5","3XUSYT70ITN3RRKBJPNBFGD6FGOD06","","img/practice/S4.jpg","68","4","practice","74","false","","","",""
"null","","html-keyboard-response","66","127068","0.0-2.0-1.21","3QRYMNZ7FZ3FFW69XNUQKFNRYLXTNR","A3L2XKXABNO0N5","3XUSYT70ITN3RRKBJPNBFGD6FGOD06","","<img src=""img/practice/S4.jpg"" width=""540"" height = ""360"">","null","","","","","","","",""
"null","","html-keyboard-response","67","127071","0.0-2.0-2.21","3QRYMNZ7FZ3FFW69XNUQKFNRYLXTNR","A3L2XKXABNO0N5","3XUSYT70ITN3RRKBJPNBFGD6FGOD06","","","null","","","","","","","",""
"930.2000000029802","","image-keyboard-response","68","128003","0.0-2.0-0.22","3QRYMNZ7FZ3FFW69XNUQKFNRYLXTNR","A3L2XKXABNO0N5","3XUSYT70ITN3RRKBJPNBFGD6FGOD06","","img/practice/S2.jpg","83","2","practice","68","false","","","",""
"null","","html-keyboard-response","69","128318","0.0-2.0-1.22","3QRYMNZ7FZ3FFW69XNUQKFNRYLXTNR","A3L2XKXABNO0N5","3XUSYT70ITN3RRKBJPNBFGD6FGOD06","","<img src=""img/practice/S2.jpg"" width=""540"" height = ""360"">","null","","","","","","","",""
"null","","html-keyboard-response","70","128322","0.0-2.0-2.22","3QRYMNZ7FZ3FFW69XNUQKFNRYLXTNR","A3L2XKXABNO0N5","3XUSYT70ITN3RRKBJPNBFGD6FGOD06","","","null","","","","","","","",""
"1038.1000000089407","","image-keyboard-response","71","129361","0.0-2.0-0.23","3QRYMNZ7FZ3FFW69XNUQKFNRYLXTNR","A3L2XKXABNO0N5","3XUSYT70ITN3RRKBJPNBFGD6FGOD06","","img/practice/S1.jpg","72","1","practice","83","false","","","",""
"null","","html-keyboard-response","72","129667","0.0-2.0-1.23","3QRYMNZ7FZ3FFW69XNUQKFNRYLXTNR","A3L2XKXABNO0N5","3XUSYT70ITN3RRKBJPNBFGD6FGOD06","","<img src=""img/practice/S1.jpg"" width=""540"" height = ""360"">","null","","","","","","","",""
"null","","html-keyboard-response","73","129669","0.0-2.0-2.23","3QRYMNZ7FZ3FFW69XNUQKFNRYLXTNR","A3L2XKXABNO0N5","3XUSYT70ITN3RRKBJPNBFGD6FGOD06","","","null","","","","","","","",""
"3516.0999999940395","","instructions","74","133186","0.0-3.0","3QRYMNZ7FZ3FFW69XNUQKFNRYLXTNR","A3L2XKXABNO0N5","3XUSYT70ITN3RRKBJPNBFGD6FGOD06","[{""page_index"":0,""viewing_time"":3515.9000000059605}]","","","","","","","","","",""
"19657.5","","instructions","75","152845","0.0-4.0","3QRYMNZ7FZ3FFW69XNUQKFNRYLXTNR","A3L2XKXABNO0N5","3XUSYT70ITN3RRKBJPNBFGD6FGOD06","[{""page_index"":0,""viewing_time"":19656.60000000894}]","","","","","","","","","",""
"31375.89999999106","","instructions","76","184222","0.0-5.0","3QRYMNZ7FZ3FFW69XNUQKFNRYLXTNR","A3L2XKXABNO0N5","3XUSYT70ITN3RRKBJPNBFGD6FGOD06","[{""page_index"":0,""viewing_time"":17113.59999999404},{""page_index"":1,""viewing_time"":14261.90000000596}]","","","","","","","","","",""
"1664.9000000059605","","image-keyboard-response","77","185889","0.0-6.0","3QRYMNZ7FZ3FFW69XNUQKFNRYLXTNR","A3L2XKXABNO0N5","3XUSYT70ITN3RRKBJPNBFGD6FGOD06","","img/set1/S1.jpg","74","1","structured_incentive","83","false","structured_incentive,structured_normal,random","2,3,1,2","",""
"null","","html-keyboard-response","78","186273","0.0-7.0","3QRYMNZ7FZ3FFW69XNUQKFNRYLXTNR","A3L2XKXABNO0N5","3XUSYT70ITN3RRKBJPNBFGD6FGOD06","","<img src=""img/set1/S1.jpg"" width=""540"" height = ""360"">","null","","","","","","","",""
"null","","html-keyboard-response","79","186276","0.0-8.0","3QRYMNZ7FZ3FFW69XNUQKFNRYLXTNR","A3L2XKXABNO0N5","3XUSYT70ITN3RRKBJPNBFGD6FGOD06","","","null","","","","","","","",""
"804.4000000059605","","image-keyboard-response","80","187081","0.0-9.0","3QRYMNZ7FZ3FFW69XNUQKFNRYLXTNR","A3L2XKXABNO0N5","3XUSYT70ITN3RRKBJPNBFGD6FGOD06","","img/set1/S1.jpg","74","1","structured_incentive","83","false","structured_incentive,structured_normal,random","2,3,1,2","",""
"null","","html-keyboard-response","81","187439","0.0-10.0","3QRYMNZ7FZ3FFW69XNUQKFNRYLXTNR","A3L2XKXABNO0N5","3XUSYT70ITN3RRKBJPNBFGD6FGOD06","","<img src=""img/set1/S1.jpg"" width=""540"" height = ""360"">","null","","","","","","","",""
"null","","html-keyboard-response","82","187441","0.0-11.0","3QRYMNZ7FZ3FFW69XNUQKFNRYLXTNR","A3L2XKXABNO0N5","3XUSYT70ITN3RRKBJPNBFGD6FGOD06","","","null","","","","","","","",""
"1534.7999999970198","","image-keyboard-response","83","188979","0.0-12.0","3QRYMNZ7FZ3FFW69XNUQKFNRYLXTNR","A3L2XKXABNO0N5","3XUSYT70ITN3RRKBJPNBFGD6FGOD06","","img/set1/S4.jpg","72","4","structured_incentive","74","false","structured_incentive,structured_normal,random","2,3,1,2","",""
"null","","html-keyboard-response","84","189338","0.0-13.0","3QRYMNZ7FZ3FFW69XNUQKFNRYLXTNR","A3L2XKXABNO0N5","3XUSYT70ITN3RRKBJPNBFGD6FGOD06","","<img src=""img/set1/S4.jpg"" width=""540"" height = ""360"">","null","","","","","","","",""
"null","","html-keyboard-response","85","189346","0.0-14.0","3QRYMNZ7FZ3FFW69XNUQKFNRYLXTNR","A3L2XKXABNO0N5","3XUSYT70ITN3RRKBJPNBFGD6FGOD06","","","null","","","","","","","",""
"1012.7000000029802","","image-keyboard-response","86","190362","0.0-15.0","3QRYMNZ7FZ3FFW69XNUQKFNRYLXTNR","A3L2XKXABNO0N5","3XUSYT70ITN3RRKBJPNBFGD6FGOD06","","img/set1/S1.jpg","68","1","structured_incentive","83","false","structured_incentive,structured_normal,random","2,3,1,2","",""
"null","","html-keyboard-response","87","190724","0.0-16.0","3QRYMNZ7FZ3FFW69XNUQKFNRYLXTNR","A3L2XKXABNO0N5","3XUSYT70ITN3RRKBJPNBFGD6FGOD06","","<img src=""img/set1/S1.jpg"" width=""540"" height = ""360"">","null","","","","","","","",""
"null","","html-keyboard-response","88","190727","0.0-17.0","3QRYMNZ7FZ3FFW69XNUQKFNRYLXTNR","A3L2XKXABNO0N5","3XUSYT70ITN3RRKBJPNBFGD6FGOD06","","","null","","","","","","","",""
"489.70000000298023","","image-keyboard-response","89","191219","0.0-18.0","3QRYMNZ7FZ3FFW69XNUQKFNRYLXTNR","A3L2XKXABNO0N5","3XUSYT70ITN3RRKBJPNBFGD6FGOD06","","img/set1/S2.jpg","83","2","structured_incentive","68","false","structured_incentive,structured_normal,random","2,3,1,2","",""
"null","","html-keyboard-response","90","191579","0.0-19.0","3QRYMNZ7FZ3FFW69XNUQKFNRYLXTNR","A3L2XKXABNO0N5","3XUSYT70ITN3RRKBJPNBFGD6FGOD06","","<img src=""img/set1/S2.jpg"" width=""540"" height = ""360"">","null","","","","","","","",""
"null","","html-keyboard-response","91","191582","0.0-20.0","3QRYMNZ7FZ3FFW69XNUQKFNRYLXTNR","A3L2XKXABNO0N5","3XUSYT70ITN3RRKBJPNBFGD6FGOD06","","","null","","","","","","","",""
"1105.1000000089407","","image-keyboard-response","92","192688","0.0-21.0","3QRYMNZ7FZ3FFW69XNUQKFNRYLXTNR","A3L2XKXABNO0N5","3XUSYT70ITN3RRKBJPNBFGD6FGOD06","","img/set1/S3.jpg","74","3","structured_incentive","72","false","structured_incentive,structured_normal,random","2,3,1,2","",""
"null","","html-keyboard-response","93","193055","0.0-22.0","3QRYMNZ7FZ3FFW69XNUQKFNRYLXTNR","A3L2XKXABNO0N5","3XUSYT70ITN3RRKBJPNBFGD6FGOD06","","<img src=""img/set1/S3.jpg"" width=""540"" height = ""360"">","null","","","","","","","",""
"null","","html-keyboard-response","94","193057","0.0-23.0","3QRYMNZ7FZ3FFW69XNUQKFNRYLXTNR","A3L2XKXABNO0N5","3XUSYT70ITN3RRKBJPNBFGD6FGOD06","","","null","","","","","","","",""
"431.90000000596046","","image-keyboard-response","95","193491","0.0-24.0","3QRYMNZ7FZ3FFW69XNUQKFNRYLXTNR","A3L2XKXABNO0N5","3XUSYT70ITN3RRKBJPNBFGD6FGOD06","","img/set1/S1.jpg","72","1","structured_incentive","83","false","structured_incentive,structured_normal,random","2,3,1,2","",""
"null","","html-keyboard-response","96","193847","0.0-25.0","3QRYMNZ7FZ3FFW69XNUQKFNRYLXTNR","A3L2XKXABNO0N5","3XUSYT70ITN3RRKBJPNBFGD6FGOD06","","<img src=""img/set1/S1.jpg"" width=""540"" height = ""360"">","null","","","","","","","",""
"null","","html-keyboard-response","97","193850","0.0-26.0","3QRYMNZ7FZ3FFW69XNUQKFNRYLXTNR","A3L2XKXABNO0N5","3XUSYT70ITN3RRKBJPNBFGD6FGOD06","","","null","","","","","","","",""
"750.5999999940395","","image-keyboard-response","98","194601","0.0-27.0","3QRYMNZ7FZ3FFW69XNUQKFNRYLXTNR","A3L2XKXABNO0N5","3XUSYT70ITN3RRKBJPNBFGD6FGOD06","","img/set1/S1.jpg","83","1","structured_incentive","83","true","structured_incentive,structured_normal,random","2,3,1,2","",""
"null","","html-keyboard-response","99","194958","0.0-28.0","3QRYMNZ7FZ3FFW69XNUQKFNRYLXTNR","A3L2XKXABNO0N5","3XUSYT70ITN3RRKBJPNBFGD6FGOD06","","<img src=""img/set1/S1.jpg"" width=""540"" height = ""360"" style=""border:16px solid orange"">","null","","","","","","","",""
"null","","html-keyboard-response","100","194961","0.0-29.0","3QRYMNZ7FZ3FFW69XNUQKFNRYLXTNR","A3L2XKXABNO0N5","3XUSYT70ITN3RRKBJPNBFGD6FGOD06","","","null","","","","","","","",""
"1734.8999999910593","","image-keyboard-response","101","196699","0.0-30.0","3QRYMNZ7FZ3FFW69XNUQKFNRYLXTNR","A3L2XKXABNO0N5","3XUSYT70ITN3RRKBJPNBFGD6FGOD06","","img/set1/S1.jpg","83","1","structured_incentive","83","true","structured_incentive,structured_normal,random","2,3,1,2","",""
"null","","html-keyboard-response","102","197060","0.0-31.0","3QRYMNZ7FZ3FFW69XNUQKFNRYLXTNR","A3L2XKXABNO0N5","3XUSYT70ITN3RRKBJPNBFGD6FGOD06","","<img src=""img/set1/S1.jpg"" width=""540"" height = ""360"" style=""border:16px solid orange"">","null","","","","","","","",""
"null","","html-keyboard-response","103","197062","0.0-32.0","3QRYMNZ7FZ3FFW69XNUQKFNRYLXTNR","A3L2XKXABNO0N5","3XUSYT70ITN3RRKBJPNBFGD6FGOD06","","","null","","","","","","","",""
"1568.300000011921","","image-keyboard-response","104","198633","0.0-33.0","3QRYMNZ7FZ3FFW69XNUQKFNRYLXTNR","A3L2XKXABNO0N5","3XUSYT70ITN3RRKBJPNBFGD6FGOD06","","img/set1/S2.jpg","68","2","structured_incentive","68","true","structured_incentive,structured_normal,random","2,3,1,2","",""
"null","","html-keyboard-response","105","198998","0.0-34.0","3QRYMNZ7FZ3FFW69XNUQKFNRYLXTNR","A3L2XKXABNO0N5","3XUSYT70ITN3RRKBJPNBFGD6FGOD06","","<img src=""img/set1/S2.jpg"" width=""540"" height = ""360"" style=""border:16px solid orange"">","null","","","","","","","",""
"null","","html-keyboard-response","106","199000","0.0-35.0","3QRYMNZ7FZ3FFW69XNUQKFNRYLXTNR","A3L2XKXABNO0N5","3XUSYT70ITN3RRKBJPNBFGD6FGOD06","","","null","","","","","","","",""
"1647.9000000059605","","image-keyboard-response","107","200650","0.0-36.0","3QRYMNZ7FZ3FFW69XNUQKFNRYLXTNR","A3L2XKXABNO0N5","3XUSYT70ITN3RRKBJPNBFGD6FGOD06","","img/set1/S3.jpg","72","3","structured_incentive","72","true","structured_incentive,structured_normal,random","2,3,1,2","",""
"null","","html-keyboard-response","108","201011","0.0-37.0","3QRYMNZ7FZ3FFW69XNUQKFNRYLXTNR","A3L2XKXABNO0N5","3XUSYT70ITN3RRKBJPNBFGD6FGOD06","","<img src=""img/set1/S3.jpg"" width=""540"" height = ""360"" style=""border:16px solid orange"">","null","","","","","","","",""
"null","","html-keyboard-response","109","201014","0.0-38.0","3QRYMNZ7FZ3FFW69XNUQKFNRYLXTNR","A3L2XKXABNO0N5","3XUSYT70ITN3RRKBJPNBFGD6FGOD06","","","null","","","","","","","",""
"1112.5999999940395","","image-keyboard-response","110","202129","0.0-39.0","3QRYMNZ7FZ3FFW69XNUQKFNRYLXTNR","A3L2XKXABNO0N5","3XUSYT70ITN3RRKBJPNBFGD6FGOD06","","img/set1/S2.jpg","74","2","structured_incentive","68","false","structured_incentive,structured_normal,random","2,3,1,2","",""
"null","","html-keyboard-response","111","202488","0.0-40.0","3QRYMNZ7FZ3FFW69XNUQKFNRYLXTNR","A3L2XKXABNO0N5","3XUSYT70ITN3RRKBJPNBFGD6FGOD06","","<img src=""img/set1/S2.jpg"" width=""540"" height = ""360"">","null","","","","","","","",""
"null","","html-keyboard-response","112","202490","0.0-41.0","3QRYMNZ7FZ3FFW69XNUQKFNRYLXTNR","A3L2XKXABNO0N5","3XUSYT70ITN3RRKBJPNBFGD6FGOD06","","","null","","","","","","","",""
"902.5","","image-keyboard-response","113","203395","0.0-42.0","3QRYMNZ7FZ3FFW69XNUQKFNRYLXTNR","A3L2XKXABNO0N5","3XUSYT70ITN3RRKBJPNBFGD6FGOD06","","img/set1/S4.jpg","74","4","structured_incentive","74","true","structured_incentive,structured_normal,random","2,3,1,2","",""
"null","","html-keyboard-response","114","203768","0.0-43.0","3QRYMNZ7FZ3FFW69XNUQKFNRYLXTNR","A3L2XKXABNO0N5","3XUSYT70ITN3RRKBJPNBFGD6FGOD06","","<img src=""img/set1/S4.jpg"" width=""540"" height = ""360"" style=""border:16px solid Violet"">","null","","","","","","","",""
"null","","html-keyboard-response","115","203770","0.0-44.0","3QRYMNZ7FZ3FFW69XNUQKFNRYLXTNR","A3L2XKXABNO0N5","3XUSYT70ITN3RRKBJPNBFGD6FGOD06","","","null","","","","","","","",""
"758.2999999970198","","image-keyboard-response","116","204531","0.0-45.0","3QRYMNZ7FZ3FFW69XNUQKFNRYLXTNR","A3L2XKXABNO0N5","3XUSYT70ITN3RRKBJPNBFGD6FGOD06","","img/set1/S4.jpg","74","4","structured_incentive","74","true","structured_incentive,structured_normal,random","2,3,1,2","",""
"null","","html-keyboard-response","117","204891","0.0-46.0","3QRYMNZ7FZ3FFW69XNUQKFNRYLXTNR","A3L2XKXABNO0N5","3XUSYT70ITN3RRKBJPNBFGD6FGOD06","","<img src=""img/set1/S4.jpg"" width=""540"" height = ""360"" style=""border:16px solid Violet"">","null","","","","","","","",""
"null","","html-keyboard-response","118","204893","0.0-47.0","3QRYMNZ7FZ3FFW69XNUQKFNRYLXTNR","A3L2XKXABNO0N5","3XUSYT70ITN3RRKBJPNBFGD6FGOD06","","","null","","","","","","","",""
"609.5999999940395","","image-keyboard-response","119","205505","0.0-48.0","3QRYMNZ7FZ3FFW69XNUQKFNRYLXTNR","A3L2XKXABNO0N5","3XUSYT70ITN3RRKBJPNBFGD6FGOD06","","img/set1/S4.jpg","74","4","structured_incentive","74","true","structured_incentive,structured_normal,random","2,3,1,2","",""
"null","","html-keyboard-response","120","205868","0.0-49.0","3QRYMNZ7FZ3FFW69XNUQKFNRYLXTNR","A3L2XKXABNO0N5","3XUSYT70ITN3RRKBJPNBFGD6FGOD06","","<img src=""img/set1/S4.jpg"" width=""540"" height = ""360"" style=""border:16px solid Violet"">","null","","","","","","","",""
"null","","html-keyboard-response","121","205871","0.0-50.0","3QRYMNZ7FZ3FFW69XNUQKFNRYLXTNR","A3L2XKXABNO0N5","3XUSYT70ITN3RRKBJPNBFGD6FGOD06","","","null","","","","","","","",""
"850","","image-keyboard-response","122","206722","0.0-51.0","3QRYMNZ7FZ3FFW69XNUQKFNRYLXTNR","A3L2XKXABNO0N5","3XUSYT70ITN3RRKBJPNBFGD6FGOD06","","img/set1/S1.jpg","68","1","structured_incentive","83","false","structured_incentive,structured_normal,random","2,3,1,2","",""
"null","","html-keyboard-response","123","207077","0.0-52.0","3QRYMNZ7FZ3FFW69XNUQKFNRYLXTNR","A3L2XKXABNO0N5","3XUSYT70ITN3RRKBJPNBFGD6FGOD06","","<img src=""img/set1/S1.jpg"" width=""540"" height = ""360"">","null","","","","","","","",""
"null","","html-keyboard-response","124","207079","0.0-53.0","3QRYMNZ7FZ3FFW69XNUQKFNRYLXTNR","A3L2XKXABNO0N5","3XUSYT70ITN3RRKBJPNBFGD6FGOD06","","","null","","","","","","","",""
"1898.0999999940395","","image-keyboard-response","125","208979","0.0-54.0","3QRYMNZ7FZ3FFW69XNUQKFNRYLXTNR","A3L2XKXABNO0N5","3XUSYT70ITN3RRKBJPNBFGD6FGOD06","","img/set1/S3.jpg","83","3","structured_incentive","72","false","structured_incentive,structured_normal,random","2,3,1,2","",""
"null","","html-keyboard-response","126","209349","0.0-55.0","3QRYMNZ7FZ3FFW69XNUQKFNRYLXTNR","A3L2XKXABNO0N5","3XUSYT70ITN3RRKBJPNBFGD6FGOD06","","<img src=""img/set1/S3.jpg"" width=""540"" height = ""360"">","null","","","","","","","",""
"null","","html-keyboard-response","127","209352","0.0-56.0","3QRYMNZ7FZ3FFW69XNUQKFNRYLXTNR","A3L2XKXABNO0N5","3XUSYT70ITN3RRKBJPNBFGD6FGOD06","","","null","","","","","","","",""
"942.7999999970198","","image-keyboard-response","128","210297","0.0-57.0","3QRYMNZ7FZ3FFW69XNUQKFNRYLXTNR","A3L2XKXABNO0N5","3XUSYT70ITN3RRKBJPNBFGD6FGOD06","","img/set1/S2.jpg","72","2","structured_incentive","68","false","structured_incentive,structured_normal,random","2,3,1,2","",""
"null","","html-keyboard-response","129","210661","0.0-58.0","3QRYMNZ7FZ3FFW69XNUQKFNRYLXTNR","A3L2XKXABNO0N5","3XUSYT70ITN3RRKBJPNBFGD6FGOD06","","<img src=""img/set1/S2.jpg"" width=""540"" height = ""360"">","null","","","","","","","",""
"null","","html-keyboard-response","130","210664","0.0-59.0","3QRYMNZ7FZ3FFW69XNUQKFNRYLXTNR","A3L2XKXABNO0N5","3XUSYT70ITN3RRKBJPNBFGD6FGOD06","","","null","","","","","","","",""
"1052.6000000089407","","image-keyboard-response","131","211722","0.0-60.0","3QRYMNZ7FZ3FFW69XNUQKFNRYLXTNR","A3L2XKXABNO0N5","3XUSYT70ITN3RRKBJPNBFGD6FGOD06","","img/set1/S3.jpg","68","3","structured_incentive","72","false","structured_incentive,structured_normal,random","2,3,1,2","",""
"null","","html-keyboard-response","132","212086","0.0-61.0","3QRYMNZ7FZ3FFW69XNUQKFNRYLXTNR","A3L2XKXABNO0N5","3XUSYT70ITN3RRKBJPNBFGD6FGOD06","","<img src=""img/set1/S3.jpg"" width=""540"" height = ""360"">","null","","","","","","","",""
"null","","html-keyboard-response","133","212089","0.0-62.0","3QRYMNZ7FZ3FFW69XNUQKFNRYLXTNR","A3L2XKXABNO0N5","3XUSYT70ITN3RRKBJPNBFGD6FGOD06","","","null","","","","","","","",""
"535.3999999910593","","image-keyboard-response","134","212626","0.0-63.0","3QRYMNZ7FZ3FFW69XNUQKFNRYLXTNR","A3L2XKXABNO0N5","3XUSYT70ITN3RRKBJPNBFGD6FGOD06","","img/set1/S3.jpg","74","3","structured_incentive","72","false","structured_incentive,structured_normal,random","2,3,1,2","",""
"null","","html-keyboard-response","135","212988","0.0-64.0","3QRYMNZ7FZ3FFW69XNUQKFNRYLXTNR","A3L2XKXABNO0N5","3XUSYT70ITN3RRKBJPNBFGD6FGOD06","","<img src=""img/set1/S3.jpg"" width=""540"" height = ""360"">","null","","","","","","","",""
"null","","html-keyboard-response","136","212991","0.0-65.0","3QRYMNZ7FZ3FFW69XNUQKFNRYLXTNR","A3L2XKXABNO0N5","3XUSYT70ITN3RRKBJPNBFGD6FGOD06","","","null","","","","","","","",""
"518.7999999970198","","image-keyboard-response","137","213513","0.0-66.0","3QRYMNZ7FZ3FFW69XNUQKFNRYLXTNR","A3L2XKXABNO0N5","3XUSYT70ITN3RRKBJPNBFGD6FGOD06","","img/set1/S2.jpg","74","2","structured_incentive","68","false","structured_incentive,structured_normal,random","2,3,1,2","",""
"null","","html-keyboard-response","138","213867","0.0-67.0","3QRYMNZ7FZ3FFW69XNUQKFNRYLXTNR","A3L2XKXABNO0N5","3XUSYT70ITN3RRKBJPNBFGD6FGOD06","","<img src=""img/set1/S2.jpg"" width=""540"" height = ""360"">","null","","","","","","","",""
"null","","html-keyboard-response","139","213870","0.0-68.0","3QRYMNZ7FZ3FFW69XNUQKFNRYLXTNR","A3L2XKXABNO0N5","3XUSYT70ITN3RRKBJPNBFGD6FGOD06","","","null","","","","","","","",""
"1138.7999999970198","","image-keyboard-response","140","215011","0.0-69.0","3QRYMNZ7FZ3FFW69XNUQKFNRYLXTNR","A3L2XKXABNO0N5","3XUSYT70ITN3RRKBJPNBFGD6FGOD06","","img/set1/S3.jpg","83","3","structured_incentive","72","false","structured_incentive,structured_normal,random","2,3,1,2","",""
"null","","html-keyboard-response","141","215368","0.0-70.0","3QRYMNZ7FZ3FFW69XNUQKFNRYLXTNR","A3L2XKXABNO0N5","3XUSYT70ITN3RRKBJPNBFGD6FGOD06","","<img src=""img/set1/S3.jpg"" width=""540"" height = ""360"">","null","","","","","","","",""
"null","","html-keyboard-response","142","215371","0.0-71.0","3QRYMNZ7FZ3FFW69XNUQKFNRYLXTNR","A3L2XKXABNO0N5","3XUSYT70ITN3RRKBJPNBFGD6FGOD06","","","null","","","","","","","",""
"581.9000000059605","","image-keyboard-response","143","215955","0.0-72.0","3QRYMNZ7FZ3FFW69XNUQKFNRYLXTNR","A3L2XKXABNO0N5","3XUSYT70ITN3RRKBJPNBFGD6FGOD06","","img/set1/S2.jpg","68","2","structured_incentive","68","true","structured_incentive,structured_normal,random","2,3,1,2","",""
"null","","html-keyboard-response","144","216310","0.0-73.0","3QRYMNZ7FZ3FFW69XNUQKFNRYLXTNR","A3L2XKXABNO0N5","3XUSYT70ITN3RRKBJPNBFGD6FGOD06","","<img src=""img/set1/S2.jpg"" width=""540"" height = ""360"" style=""border:16px solid orange"">","null","","","","","","","",""
"null","","html-keyboard-response","145","216312","0.0-74.0","3QRYMNZ7FZ3FFW69XNUQKFNRYLXTNR","A3L2XKXABNO0N5","3XUSYT70ITN3RRKBJPNBFGD6FGOD06","","","null","","","","","","","",""
"952.5","","image-keyboard-response","146","217267","0.0-75.0","3QRYMNZ7FZ3FFW69XNUQKFNRYLXTNR","A3L2XKXABNO0N5","3XUSYT70ITN3RRKBJPNBFGD6FGOD06","","img/set1/S3.jpg","83","3","structured_incentive","72","false","structured_incentive,structured_normal,random","2,3,1,2","",""
"null","","html-keyboard-response","147","217631","0.0-76.0","3QRYMNZ7FZ3FFW69XNUQKFNRYLXTNR","A3L2XKXABNO0N5","3XUSYT70ITN3RRKBJPNBFGD6FGOD06","","<img src=""img/set1/S3.jpg"" width=""540"" height = ""360"">","null","","","","","","","",""
"null","","html-keyboard-response","148","217635","0.0-77.0","3QRYMNZ7FZ3FFW69XNUQKFNRYLXTNR","A3L2XKXABNO0N5","3XUSYT70ITN3RRKBJPNBFGD6FGOD06","","","null","","","","","","","",""
"561.3999999910593","","image-keyboard-response","149","218201","0.0-78.0","3QRYMNZ7FZ3FFW69XNUQKFNRYLXTNR","A3L2XKXABNO0N5","3XUSYT70ITN3RRKBJPNBFGD6FGOD06","","img/set1/S1.jpg","68","1","structured_incentive","83","false","structured_incentive,structured_normal,random","2,3,1,2","",""
"null","","html-keyboard-response","150","218568","0.0-79.0","3QRYMNZ7FZ3FFW69XNUQKFNRYLXTNR","A3L2XKXABNO0N5","3XUSYT70ITN3RRKBJPNBFGD6FGOD06","","<img src=""img/set1/S1.jpg"" width=""540"" height = ""360"">","null","","","","","","","",""
"null","","html-keyboard-response","151","218570","0.0-80.0","3QRYMNZ7FZ3FFW69XNUQKFNRYLXTNR","A3L2XKXABNO0N5","3XUSYT70ITN3RRKBJPNBFGD6FGOD06","","","null","","","","","","","",""
"973.7000000029802","","image-keyboard-response","152","219545","0.0-81.0","3QRYMNZ7FZ3FFW69XNUQKFNRYLXTNR","A3L2XKXABNO0N5","3XUSYT70ITN3RRKBJPNBFGD6FGOD06","","img/set1/S4.jpg","68","4","structured_incentive","74","false","structured_incentive,structured_normal,random","2,3,1,2","",""
"null","","html-keyboard-response","153","219918","0.0-82.0","3QRYMNZ7FZ3FFW69XNUQKFNRYLXTNR","A3L2XKXABNO0N5","3XUSYT70ITN3RRKBJPNBFGD6FGOD06","","<img src=""img/set1/S4.jpg"" width=""540"" height = ""360"">","null","","","","","","","",""
"null","","html-keyboard-response","154","219921","0.0-83.0","3QRYMNZ7FZ3FFW69XNUQKFNRYLXTNR","A3L2XKXABNO0N5","3XUSYT70ITN3RRKBJPNBFGD6FGOD06","","","null","","","","","","","",""
"549.6999999880791","","image-keyboard-response","155","220473","0.0-84.0","3QRYMNZ7FZ3FFW69XNUQKFNRYLXTNR","A3L2XKXABNO0N5","3XUSYT70ITN3RRKBJPNBFGD6FGOD06","","img/set1/S4.jpg","83","4","structured_incentive","74","false","structured_incentive,structured_normal,random","2,3,1,2","",""
"null","","html-keyboard-response","156","220829","0.0-85.0","3QRYMNZ7FZ3FFW69XNUQKFNRYLXTNR","A3L2XKXABNO0N5","3XUSYT70ITN3RRKBJPNBFGD6FGOD06","","<img src=""img/set1/S4.jpg"" width=""540"" height = ""360"">","null","","","","","","","",""
"null","","html-keyboard-response","157","220831","0.0-86.0","3QRYMNZ7FZ3FFW69XNUQKFNRYLXTNR","A3L2XKXABNO0N5","3XUSYT70ITN3RRKBJPNBFGD6FGOD06","","","null","","","","","","","",""
"528.7999999970198","","image-keyboard-response","158","221361","0.0-87.0","3QRYMNZ7FZ3FFW69XNUQKFNRYLXTNR","A3L2XKXABNO0N5","3XUSYT70ITN3RRKBJPNBFGD6FGOD06","","img/set1/S4.jpg","72","4","structured_incentive","74","false","structured_incentive,structured_normal,random","2,3,1,2","",""
"null","","html-keyboard-response","159","221727","0.0-88.0","3QRYMNZ7FZ3FFW69XNUQKFNRYLXTNR","A3L2XKXABNO0N5","3XUSYT70ITN3RRKBJPNBFGD6FGOD06","","<img src=""img/set1/S4.jpg"" width=""540"" height = ""360"">","null","","","","","","","",""
"null","","html-keyboard-response","160","221729","0.0-89.0","3QRYMNZ7FZ3FFW69XNUQKFNRYLXTNR","A3L2XKXABNO0N5","3XUSYT70ITN3RRKBJPNBFGD6FGOD06","","","null","","","","","","","",""
"405.59999999403954","","image-keyboard-response","161","222137","0.0-90.0","3QRYMNZ7FZ3FFW69XNUQKFNRYLXTNR","A3L2XKXABNO0N5","3XUSYT70ITN3RRKBJPNBFGD6FGOD06","","img/set1/S4.jpg","74","4","structured_incentive","74","true","structured_incentive,structured_normal,random","2,3,1,2","",""
"null","","html-keyboard-response","162","222498","0.0-91.0","3QRYMNZ7FZ3FFW69XNUQKFNRYLXTNR","A3L2XKXABNO0N5","3XUSYT70ITN3RRKBJPNBFGD6FGOD06","","<img src=""img/set1/S4.jpg"" width=""540"" height = ""360"" style=""border:16px solid Violet"">","null","","","","","","","",""
"null","","html-keyboard-response","163","222501","0.0-92.0","3QRYMNZ7FZ3FFW69XNUQKFNRYLXTNR","A3L2XKXABNO0N5","3XUSYT70ITN3RRKBJPNBFGD6FGOD06","","","null","","","","","","","",""
"1163.2999999970198","","image-keyboard-response","164","223665","0.0-93.0","3QRYMNZ7FZ3FFW69XNUQKFNRYLXTNR","A3L2XKXABNO0N5","3XUSYT70ITN3RRKBJPNBFGD6FGOD06","","img/set1/S3.jpg","68","3","structured_incentive","72","false","structured_incentive,structured_normal,random","2,3,1,2","",""
"null","","html-keyboard-response","165","224019","0.0-94.0","3QRYMNZ7FZ3FFW69XNUQKFNRYLXTNR","A3L2XKXABNO0N5","3XUSYT70ITN3RRKBJPNBFGD6FGOD06","","<img src=""img/set1/S3.jpg"" width=""540"" height = ""360"">","null","","","","","","","",""
"null","","html-keyboard-response","166","224022","0.0-95.0","3QRYMNZ7FZ3FFW69XNUQKFNRYLXTNR","A3L2XKXABNO0N5","3XUSYT70ITN3RRKBJPNBFGD6FGOD06","","","null","","","","","","","",""
"770.7999999970198","","image-keyboard-response","167","224795","0.0-96.0","3QRYMNZ7FZ3FFW69XNUQKFNRYLXTNR","A3L2XKXABNO0N5","3XUSYT70ITN3RRKBJPNBFGD6FGOD06","","img/set1/S4.jpg","74","4","structured_incentive","74","true","structured_incentive,structured_normal,random","2,3,1,2","",""
"null","","html-keyboard-response","168","225168","0.0-97.0","3QRYMNZ7FZ3FFW69XNUQKFNRYLXTNR","A3L2XKXABNO0N5","3XUSYT70ITN3RRKBJPNBFGD6FGOD06","","<img src=""img/set1/S4.jpg"" width=""540"" height = ""360"" style=""border:16px solid Violet"">","null","","","","","","","",""
"null","","html-keyboard-response","169","225172","0.0-98.0","3QRYMNZ7FZ3FFW69XNUQKFNRYLXTNR","A3L2XKXABNO0N5","3XUSYT70ITN3RRKBJPNBFGD6FGOD06","","","null","","","","","","","",""
"1738.5999999940395","","image-keyboard-response","170","226913","0.0-99.0","3QRYMNZ7FZ3FFW69XNUQKFNRYLXTNR","A3L2XKXABNO0N5","3XUSYT70ITN3RRKBJPNBFGD6FGOD06","","img/set1/S2.jpg","72","2","structured_incentive","68","false","structured_incentive,structured_normal,random","2,3,1,2","",""
"null","","html-keyboard-response","171","227268","0.0-100.0","3QRYMNZ7FZ3FFW69XNUQKFNRYLXTNR","A3L2XKXABNO0N5","3XUSYT70ITN3RRKBJPNBFGD6FGOD06","","<img src=""img/set1/S2.jpg"" width=""540"" height = ""360"">","null","","","","","","","",""
"null","","html-keyboard-response","172","227271","0.0-101.0","3QRYMNZ7FZ3FFW69XNUQKFNRYLXTNR","A3L2XKXABNO0N5","3XUSYT70ITN3RRKBJPNBFGD6FGOD06","","","null","","","","","","","",""
"1722.3999999910593","","image-keyboard-response","173","228995","0.0-102.0","3QRYMNZ7FZ3FFW69XNUQKFNRYLXTNR","A3L2XKXABNO0N5","3XUSYT70ITN3RRKBJPNBFGD6FGOD06","","img/set1/S3.jpg","74","3","structured_incentive","72","false","structured_incentive,structured_normal,random","2,3,1,2","",""
"null","","html-keyboard-response","174","229367","0.0-103.0","3QRYMNZ7FZ3FFW69XNUQKFNRYLXTNR","A3L2XKXABNO0N5","3XUSYT70ITN3RRKBJPNBFGD6FGOD06","","<img src=""img/set1/S3.jpg"" width=""540"" height = ""360"">","null","","","","","","","",""
"null","","html-keyboard-response","175","229370","0.0-104.0","3QRYMNZ7FZ3FFW69XNUQKFNRYLXTNR","A3L2XKXABNO0N5","3XUSYT70ITN3RRKBJPNBFGD6FGOD06","","","null","","","","","","","",""
"509.5","","image-keyboard-response","176","229881","0.0-105.0","3QRYMNZ7FZ3FFW69XNUQKFNRYLXTNR","A3L2XKXABNO0N5","3XUSYT70ITN3RRKBJPNBFGD6FGOD06","","img/set1/S3.jpg","72","3","structured_incentive","72","true","structured_incentive,structured_normal,random","2,3,1,2","",""
"null","","html-keyboard-response","177","230239","0.0-106.0","3QRYMNZ7FZ3FFW69XNUQKFNRYLXTNR","A3L2XKXABNO0N5","3XUSYT70ITN3RRKBJPNBFGD6FGOD06","","<img src=""img/set1/S3.jpg"" width=""540"" height = ""360"" style=""border:16px solid orange"">","null","","","","","","","",""
"null","","html-keyboard-response","178","230243","0.0-107.0","3QRYMNZ7FZ3FFW69XNUQKFNRYLXTNR","A3L2XKXABNO0N5","3XUSYT70ITN3RRKBJPNBFGD6FGOD06","","","null","","","","","","","",""
"1213.0999999940395","","image-keyboard-response","179","231457","0.0-108.0","3QRYMNZ7FZ3FFW69XNUQKFNRYLXTNR","A3L2XKXABNO0N5","3XUSYT70ITN3RRKBJPNBFGD6FGOD06","","img/set1/S1.jpg","72","1","structured_incentive","83","false","structured_incentive,structured_normal,random","2,3,1,2","",""
"null","","html-keyboard-response","180","231815","0.0-109.0","3QRYMNZ7FZ3FFW69XNUQKFNRYLXTNR","A3L2XKXABNO0N5","3XUSYT70ITN3RRKBJPNBFGD6FGOD06","","<img src=""img/set1/S1.jpg"" width=""540"" height = ""360"">","null","","","","","","","",""
"null","","html-keyboard-response","181","231818","0.0-110.0","3QRYMNZ7FZ3FFW69XNUQKFNRYLXTNR","A3L2XKXABNO0N5","3XUSYT70ITN3RRKBJPNBFGD6FGOD06","","","null","","","","","","","",""
"643.7999999970198","","image-keyboard-response","182","232465","0.0-111.0","3QRYMNZ7FZ3FFW69XNUQKFNRYLXTNR","A3L2XKXABNO0N5","3XUSYT70ITN3RRKBJPNBFGD6FGOD06","","img/set1/S1.jpg","68","1","structured_incentive","83","false","structured_incentive,structured_normal,random","2,3,1,2","",""
"null","","html-keyboard-response","183","232844","0.0-112.0","3QRYMNZ7FZ3FFW69XNUQKFNRYLXTNR","A3L2XKXABNO0N5","3XUSYT70ITN3RRKBJPNBFGD6FGOD06","","<img src=""img/set1/S1.jpg"" width=""540"" height = ""360"">","null","","","","","","","",""
"null","","html-keyboard-response","184","232847","0.0-113.0","3QRYMNZ7FZ3FFW69XNUQKFNRYLXTNR","A3L2XKXABNO0N5","3XUSYT70ITN3RRKBJPNBFGD6FGOD06","","","null","","","","","","","",""
"498.20000000298023","","image-keyboard-response","185","233347","0.0-114.0","3QRYMNZ7FZ3FFW69XNUQKFNRYLXTNR","A3L2XKXABNO0N5","3XUSYT70ITN3RRKBJPNBFGD6FGOD06","","img/set1/S1.jpg","83","1","structured_incentive","83","true","structured_incentive,structured_normal,random","2,3,1,2","",""
"null","","html-keyboard-response","186","233718","0.0-115.0","3QRYMNZ7FZ3FFW69XNUQKFNRYLXTNR","A3L2XKXABNO0N5","3XUSYT70ITN3RRKBJPNBFGD6FGOD06","","<img src=""img/set1/S1.jpg"" width=""540"" height = ""360"" style=""border:16px solid orange"">","null","","","","","","","",""
"null","","html-keyboard-response","187","233720","0.0-116.0","3QRYMNZ7FZ3FFW69XNUQKFNRYLXTNR","A3L2XKXABNO0N5","3XUSYT70ITN3RRKBJPNBFGD6FGOD06","","","null","","","","","","","",""
"1023.6000000089407","","image-keyboard-response","188","234747","0.0-117.0","3QRYMNZ7FZ3FFW69XNUQKFNRYLXTNR","A3L2XKXABNO0N5","3XUSYT70ITN3RRKBJPNBFGD6FGOD06","","img/set1/S4.jpg","83","4","structured_incentive","74","false","structured_incentive,structured_normal,random","2,3,1,2","",""
"null","","html-keyboard-response","189","235118","0.0-118.0","3QRYMNZ7FZ3FFW69XNUQKFNRYLXTNR","A3L2XKXABNO0N5","3XUSYT70ITN3RRKBJPNBFGD6FGOD06","","<img src=""img/set1/S4.jpg"" width=""540"" height = ""360"">","null","","","","","","","",""
"null","","html-keyboard-response","190","235120","0.0-119.0","3QRYMNZ7FZ3FFW69XNUQKFNRYLXTNR","A3L2XKXABNO0N5","3XUSYT70ITN3RRKBJPNBFGD6FGOD06","","","null","","","","","","","",""
"999","","image-keyboard-response","191","236121","0.0-120.0","3QRYMNZ7FZ3FFW69XNUQKFNRYLXTNR","A3L2XKXABNO0N5","3XUSYT70ITN3RRKBJPNBFGD6FGOD06","","img/set1/S2.jpg","83","2","structured_incentive","68","false","structured_incentive,structured_normal,random","2,3,1,2","",""
"null","","html-keyboard-response","192","236478","0.0-121.0","3QRYMNZ7FZ3FFW69XNUQKFNRYLXTNR","A3L2XKXABNO0N5","3XUSYT70ITN3RRKBJPNBFGD6FGOD06","","<img src=""img/set1/S2.jpg"" width=""540"" height = ""360"">","null","","","","","","","",""
"null","","html-keyboard-response","193","236480","0.0-122.0","3QRYMNZ7FZ3FFW69XNUQKFNRYLXTNR","A3L2XKXABNO0N5","3XUSYT70ITN3RRKBJPNBFGD6FGOD06","","","null","","","","","","","",""
"823.7999999970198","","image-keyboard-response","194","237305","0.0-123.0","3QRYMNZ7FZ3FFW69XNUQKFNRYLXTNR","A3L2XKXABNO0N5","3XUSYT70ITN3RRKBJPNBFGD6FGOD06","","img/set1/S3.jpg","68","3","structured_incentive","72","false","structured_incentive,structured_normal,random","2,3,1,2","",""
"null","","html-keyboard-response","195","237679","0.0-124.0","3QRYMNZ7FZ3FFW69XNUQKFNRYLXTNR","A3L2XKXABNO0N5","3XUSYT70ITN3RRKBJPNBFGD6FGOD06","","<img src=""img/set1/S3.jpg"" width=""540"" height = ""360"">","null","","","","","","","",""
"null","","html-keyboard-response","196","237682","0.0-125.0","3QRYMNZ7FZ3FFW69XNUQKFNRYLXTNR","A3L2XKXABNO0N5","3XUSYT70ITN3RRKBJPNBFGD6FGOD06","","","null","","","","","","","",""
"379.20000000298023","","image-keyboard-response","197","238065","0.0-126.0","3QRYMNZ7FZ3FFW69XNUQKFNRYLXTNR","A3L2XKXABNO0N5","3XUSYT70ITN3RRKBJPNBFGD6FGOD06","","img/set1/S2.jpg","74","2","structured_incentive","68","false","structured_incentive,structured_normal,random","2,3,1,2","",""
"null","","html-keyboard-response","198","238429","0.0-127.0","3QRYMNZ7FZ3FFW69XNUQKFNRYLXTNR","A3L2XKXABNO0N5","3XUSYT70ITN3RRKBJPNBFGD6FGOD06","","<img src=""img/set1/S2.jpg"" width=""540"" height = ""360"">","null","","","","","","","",""
"null","","html-keyboard-response","199","238431","0.0-128.0","3QRYMNZ7FZ3FFW69XNUQKFNRYLXTNR","A3L2XKXABNO0N5","3XUSYT70ITN3RRKBJPNBFGD6FGOD06","","","null","","","","","","","",""
"424.30000001192093","","image-keyboard-response","200","238857","0.0-129.0","3QRYMNZ7FZ3FFW69XNUQKFNRYLXTNR","A3L2XKXABNO0N5","3XUSYT70ITN3RRKBJPNBFGD6FGOD06","","img/set1/S3.jpg","72","3","structured_incentive","72","true","structured_incentive,structured_normal,random","2,3,1,2","",""
"null","","html-keyboard-response","201","239217","0.0-130.0","3QRYMNZ7FZ3FFW69XNUQKFNRYLXTNR","A3L2XKXABNO0N5","3XUSYT70ITN3RRKBJPNBFGD6FGOD06","","<img src=""img/set1/S3.jpg"" width=""540"" height = ""360"" style=""border:16px solid orange"">","null","","","","","","","",""
"null","","html-keyboard-response","202","239220","0.0-131.0","3QRYMNZ7FZ3FFW69XNUQKFNRYLXTNR","A3L2XKXABNO0N5","3XUSYT70ITN3RRKBJPNBFGD6FGOD06","","","null","","","","","","","",""
"795.4000000059605","","image-keyboard-response","203","240017","0.0-132.0","3QRYMNZ7FZ3FFW69XNUQKFNRYLXTNR","A3L2XKXABNO0N5","3XUSYT70ITN3RRKBJPNBFGD6FGOD06","","img/set1/S1.jpg","74","1","structured_incentive","83","false","structured_incentive,structured_normal,random","2,3,1,2","",""
"null","","html-keyboard-response","204","240388","0.0-133.0","3QRYMNZ7FZ3FFW69XNUQKFNRYLXTNR","A3L2XKXABNO0N5","3XUSYT70ITN3RRKBJPNBFGD6FGOD06","","<img src=""img/set1/S1.jpg"" width=""540"" height = ""360"">","null","","","","","","","",""
"null","","html-keyboard-response","205","240391","0.0-134.0","3QRYMNZ7FZ3FFW69XNUQKFNRYLXTNR","A3L2XKXABNO0N5","3XUSYT70ITN3RRKBJPNBFGD6FGOD06","","","null","","","","","","","",""
"784.2999999970198","","image-keyboard-response","206","241179","0.0-135.0","3QRYMNZ7FZ3FFW69XNUQKFNRYLXTNR","A3L2XKXABNO0N5","3XUSYT70ITN3RRKBJPNBFGD6FGOD06","","img/set1/S4.jpg","72","4","structured_incentive","74","false","structured_incentive,structured_normal,random","2,3,1,2","",""
"null","","html-keyboard-response","207","241548","0.0-136.0","3QRYMNZ7FZ3FFW69XNUQKFNRYLXTNR","A3L2XKXABNO0N5","3XUSYT70ITN3RRKBJPNBFGD6FGOD06","","<img src=""img/set1/S4.jpg"" width=""540"" height = ""360"">","null","","","","","","","",""
"null","","html-keyboard-response","208","241551","0.0-137.0","3QRYMNZ7FZ3FFW69XNUQKFNRYLXTNR","A3L2XKXABNO0N5","3XUSYT70ITN3RRKBJPNBFGD6FGOD06","","","null","","","","","","","",""
"583.5999999940395","","image-keyboard-response","209","242137","0.0-138.0","3QRYMNZ7FZ3FFW69XNUQKFNRYLXTNR","A3L2XKXABNO0N5","3XUSYT70ITN3RRKBJPNBFGD6FGOD06","","img/set1/S1.jpg","74","1","structured_incentive","83","false","structured_incentive,structured_normal,random","2,3,1,2","",""
"null","","html-keyboard-response","210","242497","0.0-139.0","3QRYMNZ7FZ3FFW69XNUQKFNRYLXTNR","A3L2XKXABNO0N5","3XUSYT70ITN3RRKBJPNBFGD6FGOD06","","<img src=""img/set1/S1.jpg"" width=""540"" height = ""360"">","null","","","","","","","",""
"null","","html-keyboard-response","211","242500","0.0-140.0","3QRYMNZ7FZ3FFW69XNUQKFNRYLXTNR","A3L2XKXABNO0N5","3XUSYT70ITN3RRKBJPNBFGD6FGOD06","","","null","","","","","","","",""
"1300.699999988079","","image-keyboard-response","212","243803","0.0-141.0","3QRYMNZ7FZ3FFW69XNUQKFNRYLXTNR","A3L2XKXABNO0N5","3XUSYT70ITN3RRKBJPNBFGD6FGOD06","","img/set1/S4.jpg","68","4","structured_incentive","74","false","structured_incentive,structured_normal,random","2,3,1,2","",""
"null","","html-keyboard-response","213","244182","0.0-142.0","3QRYMNZ7FZ3FFW69XNUQKFNRYLXTNR","A3L2XKXABNO0N5","3XUSYT70ITN3RRKBJPNBFGD6FGOD06","","<img src=""img/set1/S4.jpg"" width=""540"" height = ""360"">","null","","","","","","","",""
"null","","html-keyboard-response","214","244185","0.0-143.0","3QRYMNZ7FZ3FFW69XNUQKFNRYLXTNR","A3L2XKXABNO0N5","3XUSYT70ITN3RRKBJPNBFGD6FGOD06","","","null","","","","","","","",""
"1013.0999999940395","","image-keyboard-response","215","245203","0.0-144.0","3QRYMNZ7FZ3FFW69XNUQKFNRYLXTNR","A3L2XKXABNO0N5","3XUSYT70ITN3RRKBJPNBFGD6FGOD06","","img/set1/S1.jpg","68","1","structured_incentive","83","false","structured_incentive,structured_normal,random","2,3,1,2","",""
"null","","html-keyboard-response","216","245568","0.0-145.0","3QRYMNZ7FZ3FFW69XNUQKFNRYLXTNR","A3L2XKXABNO0N5","3XUSYT70ITN3RRKBJPNBFGD6FGOD06","","<img src=""img/set1/S1.jpg"" width=""540"" height = ""360"">","null","","","","","","","",""
"null","","html-keyboard-response","217","245576","0.0-146.0","3QRYMNZ7FZ3FFW69XNUQKFNRYLXTNR","A3L2XKXABNO0N5","3XUSYT70ITN3RRKBJPNBFGD6FGOD06","","","null","","","","","","","",""
"471.90000000596046","","image-keyboard-response","218","246051","0.0-147.0","3QRYMNZ7FZ3FFW69XNUQKFNRYLXTNR","A3L2XKXABNO0N5","3XUSYT70ITN3RRKBJPNBFGD6FGOD06","","img/set1/S1.jpg","83","1","structured_incentive","83","true","structured_incentive,structured_normal,random","2,3,1,2","",""
"null","","html-keyboard-response","219","246409","0.0-148.0","3QRYMNZ7FZ3FFW69XNUQKFNRYLXTNR","A3L2XKXABNO0N5","3XUSYT70ITN3RRKBJPNBFGD6FGOD06","","<img src=""img/set1/S1.jpg"" width=""540"" height = ""360"" style=""border:16px solid orange"">","null","","","","","","","",""
"null","","html-keyboard-response","220","246428","0.0-149.0","3QRYMNZ7FZ3FFW69XNUQKFNRYLXTNR","A3L2XKXABNO0N5","3XUSYT70ITN3RRKBJPNBFGD6FGOD06","","","null","","","","","","","",""
"763.2999999970198","","image-keyboard-response","221","247193","0.0-150.0","3QRYMNZ7FZ3FFW69XNUQKFNRYLXTNR","A3L2XKXABNO0N5","3XUSYT70ITN3RRKBJPNBFGD6FGOD06","","img/set1/S1.jpg","83","1","structured_incentive","83","true","structured_incentive,structured_normal,random","2,3,1,2","",""
"null","","html-keyboard-response","222","247559","0.0-151.0","3QRYMNZ7FZ3FFW69XNUQKFNRYLXTNR","A3L2XKXABNO0N5","3XUSYT70ITN3RRKBJPNBFGD6FGOD06","","<img src=""img/set1/S1.jpg"" width=""540"" height = ""360"" style=""border:16px solid orange"">","null","","","","","","","",""
"null","","html-keyboard-response","223","247562","0.0-152.0","3QRYMNZ7FZ3FFW69XNUQKFNRYLXTNR","A3L2XKXABNO0N5","3XUSYT70ITN3RRKBJPNBFGD6FGOD06","","","null","","","","","","","",""
"1086.4000000059605","","image-keyboard-response","224","248652","0.0-153.0","3QRYMNZ7FZ3FFW69XNUQKFNRYLXTNR","A3L2XKXABNO0N5","3XUSYT70ITN3RRKBJPNBFGD6FGOD06","","img/set1/S4.jpg","83","4","structured_incentive","74","false","structured_incentive,structured_normal,random","2,3,1,2","",""
"null","","html-keyboard-response","225","249019","0.0-154.0","3QRYMNZ7FZ3FFW69XNUQKFNRYLXTNR","A3L2XKXABNO0N5","3XUSYT70ITN3RRKBJPNBFGD6FGOD06","","<img src=""img/set1/S4.jpg"" width=""540"" height = ""360"">","null","","","","","","","",""
"null","","html-keyboard-response","226","249022","0.0-155.0","3QRYMNZ7FZ3FFW69XNUQKFNRYLXTNR","A3L2XKXABNO0N5","3XUSYT70ITN3RRKBJPNBFGD6FGOD06","","","null","","","","","","","",""
"768.7999999970198","","image-keyboard-response","227","249795","0.0-156.0","3QRYMNZ7FZ3FFW69XNUQKFNRYLXTNR","A3L2XKXABNO0N5","3XUSYT70ITN3RRKBJPNBFGD6FGOD06","","img/set1/S1.jpg","83","1","structured_incentive","83","true","structured_incentive,structured_normal,random","2,3,1,2","",""
"null","","html-keyboard-response","228","250171","0.0-157.0","3QRYMNZ7FZ3FFW69XNUQKFNRYLXTNR","A3L2XKXABNO0N5","3XUSYT70ITN3RRKBJPNBFGD6FGOD06","","<img src=""img/set1/S1.jpg"" width=""540"" height = ""360"" style=""border:16px solid orange"">","null","","","","","","","",""
"null","","html-keyboard-response","229","250175","0.0-158.0","3QRYMNZ7FZ3FFW69XNUQKFNRYLXTNR","A3L2XKXABNO0N5","3XUSYT70ITN3RRKBJPNBFGD6FGOD06","","","null","","","","","","","",""
"784.8000000119209","","image-keyboard-response","230","250963","0.0-159.0","3QRYMNZ7FZ3FFW69XNUQKFNRYLXTNR","A3L2XKXABNO0N5","3XUSYT70ITN3RRKBJPNBFGD6FGOD06","","img/set1/S1.jpg","74","1","structured_incentive","83","false","structured_incentive,structured_normal,random","2,3,1,2","",""
"null","","html-keyboard-response","231","251328","0.0-160.0","3QRYMNZ7FZ3FFW69XNUQKFNRYLXTNR","A3L2XKXABNO0N5","3XUSYT70ITN3RRKBJPNBFGD6FGOD06","","<img src=""img/set1/S1.jpg"" width=""540"" height = ""360"">","null","","","","","","","",""
"null","","html-keyboard-response","232","251331","0.0-161.0","3QRYMNZ7FZ3FFW69XNUQKFNRYLXTNR","A3L2XKXABNO0N5","3XUSYT70ITN3RRKBJPNBFGD6FGOD06","","","null","","","","","","","",""
"446.29999999701977","","image-keyboard-response","233","251780","0.0-162.0","3QRYMNZ7FZ3FFW69XNUQKFNRYLXTNR","A3L2XKXABNO0N5","3XUSYT70ITN3RRKBJPNBFGD6FGOD06","","img/set1/S1.jpg","72","1","structured_incentive","83","false","structured_incentive,structured_normal,random","2,3,1,2","",""
"null","","html-keyboard-response","234","252137","0.0-163.0","3QRYMNZ7FZ3FFW69XNUQKFNRYLXTNR","A3L2XKXABNO0N5","3XUSYT70ITN3RRKBJPNBFGD6FGOD06","","<img src=""img/set1/S1.jpg"" width=""540"" height = ""360"">","null","","","","","","","",""
"null","","html-keyboard-response","235","252139","0.0-164.0","3QRYMNZ7FZ3FFW69XNUQKFNRYLXTNR","A3L2XKXABNO0N5","3XUSYT70ITN3RRKBJPNBFGD6FGOD06","","","null","","","","","","","",""
"613.4000000059605","","image-keyboard-response","236","252755","0.0-165.0","3QRYMNZ7FZ3FFW69XNUQKFNRYLXTNR","A3L2XKXABNO0N5","3XUSYT70ITN3RRKBJPNBFGD6FGOD06","","img/set1/S1.jpg","68","1","structured_incentive","83","false","structured_incentive,structured_normal,random","2,3,1,2","",""
"null","","html-keyboard-response","237","253119","0.0-166.0","3QRYMNZ7FZ3FFW69XNUQKFNRYLXTNR","A3L2XKXABNO0N5","3XUSYT70ITN3RRKBJPNBFGD6FGOD06","","<img src=""img/set1/S1.jpg"" width=""540"" height = ""360"">","null","","","","","","","",""
"null","","html-keyboard-response","238","253123","0.0-167.0","3QRYMNZ7FZ3FFW69XNUQKFNRYLXTNR","A3L2XKXABNO0N5","3XUSYT70ITN3RRKBJPNBFGD6FGOD06","","","null","","","","","","","",""
"1419.0999999940395","","image-keyboard-response","239","254545","0.0-168.0","3QRYMNZ7FZ3FFW69XNUQKFNRYLXTNR","A3L2XKXABNO0N5","3XUSYT70ITN3RRKBJPNBFGD6FGOD06","","img/set1/S2.jpg","74","2","structured_incentive","68","false","structured_incentive,structured_normal,random","2,3,1,2","",""
"null","","html-keyboard-response","240","254908","0.0-169.0","3QRYMNZ7FZ3FFW69XNUQKFNRYLXTNR","A3L2XKXABNO0N5","3XUSYT70ITN3RRKBJPNBFGD6FGOD06","","<img src=""img/set1/S2.jpg"" width=""540"" height = ""360"">","null","","","","","","","",""
"null","","html-keyboard-response","241","254911","0.0-170.0","3QRYMNZ7FZ3FFW69XNUQKFNRYLXTNR","A3L2XKXABNO0N5","3XUSYT70ITN3RRKBJPNBFGD6FGOD06","","","null","","","","","","","",""
"721.7999999970198","","image-keyboard-response","242","255636","0.0-171.0","3QRYMNZ7FZ3FFW69XNUQKFNRYLXTNR","A3L2XKXABNO0N5","3XUSYT70ITN3RRKBJPNBFGD6FGOD06","","img/set1/S4.jpg","72","4","structured_incentive","74","false","structured_incentive,structured_normal,random","2,3,1,2","",""
"null","","html-keyboard-response","243","255999","0.0-172.0","3QRYMNZ7FZ3FFW69XNUQKFNRYLXTNR","A3L2XKXABNO0N5","3XUSYT70ITN3RRKBJPNBFGD6FGOD06","","<img src=""img/set1/S4.jpg"" width=""540"" height = ""360"">","null","","","","","","","",""
"null","","html-keyboard-response","244","256002","0.0-173.0","3QRYMNZ7FZ3FFW69XNUQKFNRYLXTNR","A3L2XKXABNO0N5","3XUSYT70ITN3RRKBJPNBFGD6FGOD06","","","null","","","","","","","",""
"758.2000000029802","","image-keyboard-response","245","256763","0.0-174.0","3QRYMNZ7FZ3FFW69XNUQKFNRYLXTNR","A3L2XKXABNO0N5","3XUSYT70ITN3RRKBJPNBFGD6FGOD06","","img/set1/S4.jpg","68","4","structured_incentive","74","false","structured_incentive,structured_normal,random","2,3,1,2","",""
"null","","html-keyboard-response","246","257118","0.0-175.0","3QRYMNZ7FZ3FFW69XNUQKFNRYLXTNR","A3L2XKXABNO0N5","3XUSYT70ITN3RRKBJPNBFGD6FGOD06","","<img src=""img/set1/S4.jpg"" width=""540"" height = ""360"">","null","","","","","","","",""
"null","","html-keyboard-response","247","257121","0.0-176.0","3QRYMNZ7FZ3FFW69XNUQKFNRYLXTNR","A3L2XKXABNO0N5","3XUSYT70ITN3RRKBJPNBFGD6FGOD06","","","null","","","","","","","",""
"390.70000000298023","","image-keyboard-response","248","257512","0.0-177.0","3QRYMNZ7FZ3FFW69XNUQKFNRYLXTNR","A3L2XKXABNO0N5","3XUSYT70ITN3RRKBJPNBFGD6FGOD06","","img/set1/S4.jpg","83","4","structured_incentive","74","false","structured_incentive,structured_normal,random","2,3,1,2","",""
"null","","html-keyboard-response","249","257877","0.0-178.0","3QRYMNZ7FZ3FFW69XNUQKFNRYLXTNR","A3L2XKXABNO0N5","3XUSYT70ITN3RRKBJPNBFGD6FGOD06","","<img src=""img/set1/S4.jpg"" width=""540"" height = ""360"">","null","","","","","","","",""
"null","","html-keyboard-response","250","257879","0.0-179.0","3QRYMNZ7FZ3FFW69XNUQKFNRYLXTNR","A3L2XKXABNO0N5","3XUSYT70ITN3RRKBJPNBFGD6FGOD06","","","null","","","","","","","",""
"2305.2999999970198","","image-keyboard-response","251","260187","0.0-180.0","3QRYMNZ7FZ3FFW69XNUQKFNRYLXTNR","A3L2XKXABNO0N5","3XUSYT70ITN3RRKBJPNBFGD6FGOD06","","img/set1/S2.jpg","74","2","structured_incentive","68","false","structured_incentive,structured_normal,random","2,3,1,2","",""
"null","","html-keyboard-response","252","260559","0.0-181.0","3QRYMNZ7FZ3FFW69XNUQKFNRYLXTNR","A3L2XKXABNO0N5","3XUSYT70ITN3RRKBJPNBFGD6FGOD06","","<img src=""img/set1/S2.jpg"" width=""540"" height = ""360"">","null","","","","","","","",""
"null","","html-keyboard-response","253","260562","0.0-182.0","3QRYMNZ7FZ3FFW69XNUQKFNRYLXTNR","A3L2XKXABNO0N5","3XUSYT70ITN3RRKBJPNBFGD6FGOD06","","","null","","","","","","","",""
"740.8999999910593","","image-keyboard-response","254","261305","0.0-183.0","3QRYMNZ7FZ3FFW69XNUQKFNRYLXTNR","A3L2XKXABNO0N5","3XUSYT70ITN3RRKBJPNBFGD6FGOD06","","img/set1/S4.jpg","72","4","structured_incentive","74","false","structured_incentive,structured_normal,random","2,3,1,2","",""
"null","","html-keyboard-response","255","261659","0.0-184.0","3QRYMNZ7FZ3FFW69XNUQKFNRYLXTNR","A3L2XKXABNO0N5","3XUSYT70ITN3RRKBJPNBFGD6FGOD06","","<img src=""img/set1/S4.jpg"" width=""540"" height = ""360"">","null","","","","","","","",""
"null","","html-keyboard-response","256","261662","0.0-185.0","3QRYMNZ7FZ3FFW69XNUQKFNRYLXTNR","A3L2XKXABNO0N5","3XUSYT70ITN3RRKBJPNBFGD6FGOD06","","","null","","","","","","","",""
"477.5","","image-keyboard-response","257","262143","0.0-186.0","3QRYMNZ7FZ3FFW69XNUQKFNRYLXTNR","A3L2XKXABNO0N5","3XUSYT70ITN3RRKBJPNBFGD6FGOD06","","img/set1/S1.jpg","68","1","structured_incentive","83","false","structured_incentive,structured_normal,random","2,3,1,2","",""
"null","","html-keyboard-response","258","262508","0.0-187.0","3QRYMNZ7FZ3FFW69XNUQKFNRYLXTNR","A3L2XKXABNO0N5","3XUSYT70ITN3RRKBJPNBFGD6FGOD06","","<img src=""img/set1/S1.jpg"" width=""540"" height = ""360"">","null","","","","","","","",""
"null","","html-keyboard-response","259","262511","0.0-188.0","3QRYMNZ7FZ3FFW69XNUQKFNRYLXTNR","A3L2XKXABNO0N5","3XUSYT70ITN3RRKBJPNBFGD6FGOD06","","","null","","","","","","","",""
"399.59999999403954","","image-keyboard-response","260","262913","0.0-189.0","3QRYMNZ7FZ3FFW69XNUQKFNRYLXTNR","A3L2XKXABNO0N5","3XUSYT70ITN3RRKBJPNBFGD6FGOD06","","img/set1/S1.jpg","83","1","structured_incentive","83","true","structured_incentive,structured_normal,random","2,3,1,2","",""
"null","","html-keyboard-response","261","263268","0.0-190.0","3QRYMNZ7FZ3FFW69XNUQKFNRYLXTNR","A3L2XKXABNO0N5","3XUSYT70ITN3RRKBJPNBFGD6FGOD06","","<img src=""img/set1/S1.jpg"" width=""540"" height = ""360"" style=""border:16px solid orange"">","null","","","","","","","",""
"null","","html-keyboard-response","262","263270","0.0-191.0","3QRYMNZ7FZ3FFW69XNUQKFNRYLXTNR","A3L2XKXABNO0N5","3XUSYT70ITN3RRKBJPNBFGD6FGOD06","","","null","","","","","","","",""
"617","","image-keyboard-response","263","263888","0.0-192.0","3QRYMNZ7FZ3FFW69XNUQKFNRYLXTNR","A3L2XKXABNO0N5","3XUSYT70ITN3RRKBJPNBFGD6FGOD06","","img/set1/S1.jpg","83","1","structured_incentive","83","true","structured_incentive,structured_normal,random","2,3,1,2","",""
"null","","html-keyboard-response","264","264244","0.0-193.0","3QRYMNZ7FZ3FFW69XNUQKFNRYLXTNR","A3L2XKXABNO0N5","3XUSYT70ITN3RRKBJPNBFGD6FGOD06","","<img src=""img/set1/S1.jpg"" width=""540"" height = ""360"" style=""border:16px solid orange"">","null","","","","","","","",""
"null","","html-keyboard-response","265","264246","0.0-194.0","3QRYMNZ7FZ3FFW69XNUQKFNRYLXTNR","A3L2XKXABNO0N5","3XUSYT70ITN3RRKBJPNBFGD6FGOD06","","","null","","","","","","","",""
"1081.5","","image-keyboard-response","266","265329","0.0-195.0","3QRYMNZ7FZ3FFW69XNUQKFNRYLXTNR","A3L2XKXABNO0N5","3XUSYT70ITN3RRKBJPNBFGD6FGOD06","","img/set1/S2.jpg","83","2","structured_incentive","68","false","structured_incentive,structured_normal,random","2,3,1,2","",""
"null","","html-keyboard-response","267","265693","0.0-196.0","3QRYMNZ7FZ3FFW69XNUQKFNRYLXTNR","A3L2XKXABNO0N5","3XUSYT70ITN3RRKBJPNBFGD6FGOD06","","<img src=""img/set1/S2.jpg"" width=""540"" height = ""360"">","null","","","","","","","",""
"null","","html-keyboard-response","268","265696","0.0-197.0","3QRYMNZ7FZ3FFW69XNUQKFNRYLXTNR","A3L2XKXABNO0N5","3XUSYT70ITN3RRKBJPNBFGD6FGOD06","","","null","","","","","","","",""
"702.6999999880791","","image-keyboard-response","269","266403","0.0-198.0","3QRYMNZ7FZ3FFW69XNUQKFNRYLXTNR","A3L2XKXABNO0N5","3XUSYT70ITN3RRKBJPNBFGD6FGOD06","","img/set1/S3.jpg","83","3","structured_incentive","72","false","structured_incentive,structured_normal,random","2,3,1,2","",""
"null","","html-keyboard-response","270","266767","0.0-199.0","3QRYMNZ7FZ3FFW69XNUQKFNRYLXTNR","A3L2XKXABNO0N5","3XUSYT70ITN3RRKBJPNBFGD6FGOD06","","<img src=""img/set1/S3.jpg"" width=""540"" height = ""360"">","null","","","","","","","",""
"null","","html-keyboard-response","271","266770","0.0-200.0","3QRYMNZ7FZ3FFW69XNUQKFNRYLXTNR","A3L2XKXABNO0N5","3XUSYT70ITN3RRKBJPNBFGD6FGOD06","","","null","","","","","","","",""
"685.2999999970198","","image-keyboard-response","272","267456","0.0-201.0","3QRYMNZ7FZ3FFW69XNUQKFNRYLXTNR","A3L2XKXABNO0N5","3XUSYT70ITN3RRKBJPNBFGD6FGOD06","","img/set1/S1.jpg","68","1","structured_incentive","83","false","structured_incentive,structured_normal,random","2,3,1,2","",""
"null","","html-keyboard-response","273","267808","0.0-202.0","3QRYMNZ7FZ3FFW69XNUQKFNRYLXTNR","A3L2XKXABNO0N5","3XUSYT70ITN3RRKBJPNBFGD6FGOD06","","<img src=""img/set1/S1.jpg"" width=""540"" height = ""360"">","null","","","","","","","",""
"null","","html-keyboard-response","274","267811","0.0-203.0","3QRYMNZ7FZ3FFW69XNUQKFNRYLXTNR","A3L2XKXABNO0N5","3XUSYT70ITN3RRKBJPNBFGD6FGOD06","","","null","","","","","","","",""
"397.1000000089407","","image-keyboard-response","275","268209","0.0-204.0","3QRYMNZ7FZ3FFW69XNUQKFNRYLXTNR","A3L2XKXABNO0N5","3XUSYT70ITN3RRKBJPNBFGD6FGOD06","","img/set1/S1.jpg","83","1","structured_incentive","83","true","structured_incentive,structured_normal,random","2,3,1,2","",""
"null","","html-keyboard-response","276","268569","0.0-205.0","3QRYMNZ7FZ3FFW69XNUQKFNRYLXTNR","A3L2XKXABNO0N5","3XUSYT70ITN3RRKBJPNBFGD6FGOD06","","<img src=""img/set1/S1.jpg"" width=""540"" height = ""360"" style=""border:16px solid orange"">","null","","","","","","","",""
"null","","html-keyboard-response","277","268572","0.0-206.0","3QRYMNZ7FZ3FFW69XNUQKFNRYLXTNR","A3L2XKXABNO0N5","3XUSYT70ITN3RRKBJPNBFGD6FGOD06","","","null","","","","","","","",""
"788.5","","image-keyboard-response","278","269362","0.0-207.0","3QRYMNZ7FZ3FFW69XNUQKFNRYLXTNR","A3L2XKXABNO0N5","3XUSYT70ITN3RRKBJPNBFGD6FGOD06","","img/set1/S1.jpg","74","1","structured_incentive","83","false","structured_incentive,structured_normal,random","2,3,1,2","",""
"null","","html-keyboard-response","279","269728","0.0-208.0","3QRYMNZ7FZ3FFW69XNUQKFNRYLXTNR","A3L2XKXABNO0N5","3XUSYT70ITN3RRKBJPNBFGD6FGOD06","","<img src=""img/set1/S1.jpg"" width=""540"" height = ""360"">","null","","","","","","","",""
"null","","html-keyboard-response","280","269751","0.0-209.0","3QRYMNZ7FZ3FFW69XNUQKFNRYLXTNR","A3L2XKXABNO0N5","3XUSYT70ITN3RRKBJPNBFGD6FGOD06","","","null","","","","","","","",""
"944","","image-keyboard-response","281","270698","0.0-210.0","3QRYMNZ7FZ3FFW69XNUQKFNRYLXTNR","A3L2XKXABNO0N5","3XUSYT70ITN3RRKBJPNBFGD6FGOD06","","img/set1/S4.jpg","72","4","structured_incentive","74","false","structured_incentive,structured_normal,random","2,3,1,2","",""
"null","","html-keyboard-response","282","271057","0.0-211.0","3QRYMNZ7FZ3FFW69XNUQKFNRYLXTNR","A3L2XKXABNO0N5","3XUSYT70ITN3RRKBJPNBFGD6FGOD06","","<img src=""img/set1/S4.jpg"" width=""540"" height = ""360"">","null","","","","","","","",""
"null","","html-keyboard-response","283","271059","0.0-212.0","3QRYMNZ7FZ3FFW69XNUQKFNRYLXTNR","A3L2XKXABNO0N5","3XUSYT70ITN3RRKBJPNBFGD6FGOD06","","","null","","","","","","","",""
"518","","image-keyboard-response","284","271579","0.0-213.0","3QRYMNZ7FZ3FFW69XNUQKFNRYLXTNR","A3L2XKXABNO0N5","3XUSYT70ITN3RRKBJPNBFGD6FGOD06","","img/set1/S1.jpg","83","1","structured_incentive","83","true","structured_incentive,structured_normal,random","2,3,1,2","",""
"null","","html-keyboard-response","285","271947","0.0-214.0","3QRYMNZ7FZ3FFW69XNUQKFNRYLXTNR","A3L2XKXABNO0N5","3XUSYT70ITN3RRKBJPNBFGD6FGOD06","","<img src=""img/set1/S1.jpg"" width=""540"" height = ""360"" style=""border:16px solid orange"">","null","","","","","","","",""
"null","","html-keyboard-response","286","271950","0.0-215.0","3QRYMNZ7FZ3FFW69XNUQKFNRYLXTNR","A3L2XKXABNO0N5","3XUSYT70ITN3RRKBJPNBFGD6FGOD06","","","null","","","","","","","",""
"794.2999999970198","","image-keyboard-response","287","272747","0.0-216.0","3QRYMNZ7FZ3FFW69XNUQKFNRYLXTNR","A3L2XKXABNO0N5","3XUSYT70ITN3RRKBJPNBFGD6FGOD06","","img/set1/S2.jpg","83","2","structured_incentive","68","false","structured_incentive,structured_normal,random","2,3,1,2","",""
"null","","html-keyboard-response","288","273118","0.0-217.0","3QRYMNZ7FZ3FFW69XNUQKFNRYLXTNR","A3L2XKXABNO0N5","3XUSYT70ITN3RRKBJPNBFGD6FGOD06","","<img src=""img/set1/S2.jpg"" width=""540"" height = ""360"">","null","","","","","","","",""
"null","","html-keyboard-response","289","273121","0.0-218.0","3QRYMNZ7FZ3FFW69XNUQKFNRYLXTNR","A3L2XKXABNO0N5","3XUSYT70ITN3RRKBJPNBFGD6FGOD06","","","null","","","","","","","",""
"574.8999999910593","","image-keyboard-response","290","273699","0.0-219.0","3QRYMNZ7FZ3FFW69XNUQKFNRYLXTNR","A3L2XKXABNO0N5","3XUSYT70ITN3RRKBJPNBFGD6FGOD06","","img/set1/S3.jpg","83","3","structured_incentive","72","false","structured_incentive,structured_normal,random","2,3,1,2","",""
"null","","html-keyboard-response","291","274054","0.0-220.0","3QRYMNZ7FZ3FFW69XNUQKFNRYLXTNR","A3L2XKXABNO0N5","3XUSYT70ITN3RRKBJPNBFGD6FGOD06","","<img src=""img/set1/S3.jpg"" width=""540"" height = ""360"">","null","","","","","","","",""
"null","","html-keyboard-response","292","274057","0.0-221.0","3QRYMNZ7FZ3FFW69XNUQKFNRYLXTNR","A3L2XKXABNO0N5","3XUSYT70ITN3RRKBJPNBFGD6FGOD06","","","null","","","","","","","",""
"590.8999999910593","","image-keyboard-response","293","274649","0.0-222.0","3QRYMNZ7FZ3FFW69XNUQKFNRYLXTNR","A3L2XKXABNO0N5","3XUSYT70ITN3RRKBJPNBFGD6FGOD06","","img/set1/S4.jpg","72","4","structured_incentive","74","false","structured_incentive,structured_normal,random","2,3,1,2","",""
"null","","html-keyboard-response","294","275004","0.0-223.0","3QRYMNZ7FZ3FFW69XNUQKFNRYLXTNR","A3L2XKXABNO0N5","3XUSYT70ITN3RRKBJPNBFGD6FGOD06","","<img src=""img/set1/S4.jpg"" width=""540"" height = ""360"">","null","","","","","","","",""
"null","","html-keyboard-response","295","275014","0.0-224.0","3QRYMNZ7FZ3FFW69XNUQKFNRYLXTNR","A3L2XKXABNO0N5","3XUSYT70ITN3RRKBJPNBFGD6FGOD06","","","null","","","","","","","",""
"520.2999999970198","","image-keyboard-response","296","275539","0.0-225.0","3QRYMNZ7FZ3FFW69XNUQKFNRYLXTNR","A3L2XKXABNO0N5","3XUSYT70ITN3RRKBJPNBFGD6FGOD06","","img/set1/S1.jpg","68","1","structured_incentive","83","false","structured_incentive,structured_normal,random","2,3,1,2","",""
"null","","html-keyboard-response","297","275908","0.0-226.0","3QRYMNZ7FZ3FFW69XNUQKFNRYLXTNR","A3L2XKXABNO0N5","3XUSYT70ITN3RRKBJPNBFGD6FGOD06","","<img src=""img/set1/S1.jpg"" width=""540"" height = ""360"">","null","","","","","","","",""
"null","","html-keyboard-response","298","275912","0.0-227.0","3QRYMNZ7FZ3FFW69XNUQKFNRYLXTNR","A3L2XKXABNO0N5","3XUSYT70ITN3RRKBJPNBFGD6FGOD06","","","null","","","","","","","",""
"464","","image-keyboard-response","299","276379","0.0-228.0","3QRYMNZ7FZ3FFW69XNUQKFNRYLXTNR","A3L2XKXABNO0N5","3XUSYT70ITN3RRKBJPNBFGD6FGOD06","","img/set1/S1.jpg","83","1","structured_incentive","83","true","structured_incentive,structured_normal,random","2,3,1,2","",""
"null","","html-keyboard-response","300","276748","0.0-229.0","3QRYMNZ7FZ3FFW69XNUQKFNRYLXTNR","A3L2XKXABNO0N5","3XUSYT70ITN3RRKBJPNBFGD6FGOD06","","<img src=""img/set1/S1.jpg"" width=""540"" height = ""360"" style=""border:16px solid orange"">","null","","","","","","","",""
"null","","html-keyboard-response","301","276752","0.0-230.0","3QRYMNZ7FZ3FFW69XNUQKFNRYLXTNR","A3L2XKXABNO0N5","3XUSYT70ITN3RRKBJPNBFGD6FGOD06","","","null","","","","","","","",""
"798.8999999910593","","image-keyboard-response","302","277552","0.0-231.0","3QRYMNZ7FZ3FFW69XNUQKFNRYLXTNR","A3L2XKXABNO0N5","3XUSYT70ITN3RRKBJPNBFGD6FGOD06","","img/set1/S4.jpg","83","4","structured_incentive","74","false","structured_incentive,structured_normal,random","2,3,1,2","",""
"null","","html-keyboard-response","303","277907","0.0-232.0","3QRYMNZ7FZ3FFW69XNUQKFNRYLXTNR","A3L2XKXABNO0N5","3XUSYT70ITN3RRKBJPNBFGD6FGOD06","","<img src=""img/set1/S4.jpg"" width=""540"" height = ""360"">","null","","","","","","","",""
"null","","html-keyboard-response","304","277910","0.0-233.0","3QRYMNZ7FZ3FFW69XNUQKFNRYLXTNR","A3L2XKXABNO0N5","3XUSYT70ITN3RRKBJPNBFGD6FGOD06","","","null","","","","","","","",""
"648.7999999970198","","image-keyboard-response","305","278560","0.0-234.0","3QRYMNZ7FZ3FFW69XNUQKFNRYLXTNR","A3L2XKXABNO0N5","3XUSYT70ITN3RRKBJPNBFGD6FGOD06","","img/set1/S4.jpg","68","4","structured_incentive","74","false","structured_incentive,structured_normal,random","2,3,1,2","",""
"null","","html-keyboard-response","306","278919","0.0-235.0","3QRYMNZ7FZ3FFW69XNUQKFNRYLXTNR","A3L2XKXABNO0N5","3XUSYT70ITN3RRKBJPNBFGD6FGOD06","","<img src=""img/set1/S4.jpg"" width=""540"" height = ""360"">","null","","","","","","","",""
"null","","html-keyboard-response","307","278925","0.0-236.0","3QRYMNZ7FZ3FFW69XNUQKFNRYLXTNR","A3L2XKXABNO0N5","3XUSYT70ITN3RRKBJPNBFGD6FGOD06","","","null","","","","","","","",""
"673.5","","image-keyboard-response","308","279603","0.0-237.0","3QRYMNZ7FZ3FFW69XNUQKFNRYLXTNR","A3L2XKXABNO0N5","3XUSYT70ITN3RRKBJPNBFGD6FGOD06","","img/set1/S1.jpg","83","1","structured_incentive","83","true","structured_incentive,structured_normal,random","2,3,1,2","",""
"null","","html-keyboard-response","309","279979","0.0-238.0","3QRYMNZ7FZ3FFW69XNUQKFNRYLXTNR","A3L2XKXABNO0N5","3XUSYT70ITN3RRKBJPNBFGD6FGOD06","","<img src=""img/set1/S1.jpg"" width=""540"" height = ""360"" style=""border:16px solid orange"">","null","","","","","","","",""
"null","","html-keyboard-response","310","279982","0.0-239.0","3QRYMNZ7FZ3FFW69XNUQKFNRYLXTNR","A3L2XKXABNO0N5","3XUSYT70ITN3RRKBJPNBFGD6FGOD06","","","null","","","","","","","",""
"1572.199999988079","","image-keyboard-response","311","281559","0.0-240.0","3QRYMNZ7FZ3FFW69XNUQKFNRYLXTNR","A3L2XKXABNO0N5","3XUSYT70ITN3RRKBJPNBFGD6FGOD06","","img/set1/S4.jpg","72","4","structured_incentive","74","false","structured_incentive,structured_normal,random","2,3,1,2","",""
"null","","html-keyboard-response","312","281928","0.0-241.0","3QRYMNZ7FZ3FFW69XNUQKFNRYLXTNR","A3L2XKXABNO0N5","3XUSYT70ITN3RRKBJPNBFGD6FGOD06","","<img src=""img/set1/S4.jpg"" width=""540"" height = ""360"">","null","","","","","","","",""
"null","","html-keyboard-response","313","281931","0.0-242.0","3QRYMNZ7FZ3FFW69XNUQKFNRYLXTNR","A3L2XKXABNO0N5","3XUSYT70ITN3RRKBJPNBFGD6FGOD06","","","null","","","","","","","",""
"845.4000000059605","","image-keyboard-response","314","282780","0.0-243.0","3QRYMNZ7FZ3FFW69XNUQKFNRYLXTNR","A3L2XKXABNO0N5","3XUSYT70ITN3RRKBJPNBFGD6FGOD06","","img/set1/S2.jpg","72","2","structured_incentive","68","false","structured_incentive,structured_normal,random","2,3,1,2","",""
"null","","html-keyboard-response","315","283148","0.0-244.0","3QRYMNZ7FZ3FFW69XNUQKFNRYLXTNR","A3L2XKXABNO0N5","3XUSYT70ITN3RRKBJPNBFGD6FGOD06","","<img src=""img/set1/S2.jpg"" width=""540"" height = ""360"">","null","","","","","","","",""
"null","","html-keyboard-response","316","283151","0.0-245.0","3QRYMNZ7FZ3FFW69XNUQKFNRYLXTNR","A3L2XKXABNO0N5","3XUSYT70ITN3RRKBJPNBFGD6FGOD06","","","null","","","","","","","",""
"671.5","","image-keyboard-response","317","283825","0.0-246.0","3QRYMNZ7FZ3FFW69XNUQKFNRYLXTNR","A3L2XKXABNO0N5","3XUSYT70ITN3RRKBJPNBFGD6FGOD06","","img/set1/S3.jpg","72","3","structured_incentive","72","true","structured_incentive,structured_normal,random","2,3,1,2","",""
"null","","html-keyboard-response","318","284177","0.0-247.0","3QRYMNZ7FZ3FFW69XNUQKFNRYLXTNR","A3L2XKXABNO0N5","3XUSYT70ITN3RRKBJPNBFGD6FGOD06","","<img src=""img/set1/S3.jpg"" width=""540"" height = ""360"" style=""border:16px solid orange"">","null","","","","","","","",""
"null","","html-keyboard-response","319","284179","0.0-248.0","3QRYMNZ7FZ3FFW69XNUQKFNRYLXTNR","A3L2XKXABNO0N5","3XUSYT70ITN3RRKBJPNBFGD6FGOD06","","","null","","","","","","","",""
"668.3999999910593","","image-keyboard-response","320","284849","0.0-249.0","3QRYMNZ7FZ3FFW69XNUQKFNRYLXTNR","A3L2XKXABNO0N5","3XUSYT70ITN3RRKBJPNBFGD6FGOD06","","img/set1/S3.jpg","72","3","structured_incentive","72","true","structured_incentive,structured_normal,random","2,3,1,2","",""
"null","","html-keyboard-response","321","285203","0.0-250.0","3QRYMNZ7FZ3FFW69XNUQKFNRYLXTNR","A3L2XKXABNO0N5","3XUSYT70ITN3RRKBJPNBFGD6FGOD06","","<img src=""img/set1/S3.jpg"" width=""540"" height = ""360"" style=""border:16px solid orange"">","null","","","","","","","",""
"null","","html-keyboard-response","322","285206","0.0-251.0","3QRYMNZ7FZ3FFW69XNUQKFNRYLXTNR","A3L2XKXABNO0N5","3XUSYT70ITN3RRKBJPNBFGD6FGOD06","","","null","","","","","","","",""
"680.5999999940395","","image-keyboard-response","323","285889","0.0-252.0","3QRYMNZ7FZ3FFW69XNUQKFNRYLXTNR","A3L2XKXABNO0N5","3XUSYT70ITN3RRKBJPNBFGD6FGOD06","","img/set1/S3.jpg","72","3","structured_incentive","72","true","structured_incentive,structured_normal,random","2,3,1,2","",""
"null","","html-keyboard-response","324","286270","0.0-253.0","3QRYMNZ7FZ3FFW69XNUQKFNRYLXTNR","A3L2XKXABNO0N5","3XUSYT70ITN3RRKBJPNBFGD6FGOD06","","<img src=""img/set1/S3.jpg"" width=""540"" height = ""360"" style=""border:16px solid orange"">","null","","","","","","","",""
"null","","html-keyboard-response","325","286274","0.0-254.0","3QRYMNZ7FZ3FFW69XNUQKFNRYLXTNR","A3L2XKXABNO0N5","3XUSYT70ITN3RRKBJPNBFGD6FGOD06","","","null","","","","","","","",""
"829.8999999910593","","image-keyboard-response","326","287105","0.0-255.0","3QRYMNZ7FZ3FFW69XNUQKFNRYLXTNR","A3L2XKXABNO0N5","3XUSYT70ITN3RRKBJPNBFGD6FGOD06","","img/set1/S3.jpg","74","3","structured_incentive","72","false","structured_incentive,structured_normal,random","2,3,1,2","",""
"null","","html-keyboard-response","327","287467","0.0-256.0","3QRYMNZ7FZ3FFW69XNUQKFNRYLXTNR","A3L2XKXABNO0N5","3XUSYT70ITN3RRKBJPNBFGD6FGOD06","","<img src=""img/set1/S3.jpg"" width=""540"" height = ""360"">","null","","","","","","","",""
"null","","html-keyboard-response","328","287469","0.0-257.0","3QRYMNZ7FZ3FFW69XNUQKFNRYLXTNR","A3L2XKXABNO0N5","3XUSYT70ITN3RRKBJPNBFGD6FGOD06","","","null","","","","","","","",""
"540.1999999880791","","image-keyboard-response","329","288011","0.0-258.0","3QRYMNZ7FZ3FFW69XNUQKFNRYLXTNR","A3L2XKXABNO0N5","3XUSYT70ITN3RRKBJPNBFGD6FGOD06","","img/set1/S2.jpg","72","2","structured_incentive","68","false","structured_incentive,structured_normal,random","2,3,1,2","",""
"null","","html-keyboard-response","330","288368","0.0-259.0","3QRYMNZ7FZ3FFW69XNUQKFNRYLXTNR","A3L2XKXABNO0N5","3XUSYT70ITN3RRKBJPNBFGD6FGOD06","","<img src=""img/set1/S2.jpg"" width=""540"" height = ""360"">","null","","","","","","","",""
"null","","html-keyboard-response","331","288371","0.0-260.0","3QRYMNZ7FZ3FFW69XNUQKFNRYLXTNR","A3L2XKXABNO0N5","3XUSYT70ITN3RRKBJPNBFGD6FGOD06","","","null","","","","","","","",""
"915.2000000029802","","image-keyboard-response","332","289289","0.0-261.0","3QRYMNZ7FZ3FFW69XNUQKFNRYLXTNR","A3L2XKXABNO0N5","3XUSYT70ITN3RRKBJPNBFGD6FGOD06","","img/set1/S4.jpg","68","4","structured_incentive","74","false","structured_incentive,structured_normal,random","2,3,1,2","",""
"null","","html-keyboard-response","333","289655","0.0-262.0","3QRYMNZ7FZ3FFW69XNUQKFNRYLXTNR","A3L2XKXABNO0N5","3XUSYT70ITN3RRKBJPNBFGD6FGOD06","","<img src=""img/set1/S4.jpg"" width=""540"" height = ""360"">","null","","","","","","","",""
"null","","html-keyboard-response","334","289657","0.0-263.0","3QRYMNZ7FZ3FFW69XNUQKFNRYLXTNR","A3L2XKXABNO0N5","3XUSYT70ITN3RRKBJPNBFGD6FGOD06","","","null","","","","","","","",""
"792.3000000119209","","image-keyboard-response","335","290453","0.0-264.0","3QRYMNZ7FZ3FFW69XNUQKFNRYLXTNR","A3L2XKXABNO0N5","3XUSYT70ITN3RRKBJPNBFGD6FGOD06","","img/set1/S1.jpg","83","1","structured_incentive","83","true","structured_incentive,structured_normal,random","2,3,1,2","",""
"null","","html-keyboard-response","336","290814","0.0-265.0","3QRYMNZ7FZ3FFW69XNUQKFNRYLXTNR","A3L2XKXABNO0N5","3XUSYT70ITN3RRKBJPNBFGD6FGOD06","","<img src=""img/set1/S1.jpg"" width=""540"" height = ""360"" style=""border:16px solid orange"">","null","","","","","","","",""
"null","","html-keyboard-response","337","290818","0.0-266.0","3QRYMNZ7FZ3FFW69XNUQKFNRYLXTNR","A3L2XKXABNO0N5","3XUSYT70ITN3RRKBJPNBFGD6FGOD06","","","null","","","","","","","",""
"293","","image-keyboard-response","338","291113","0.0-267.0","3QRYMNZ7FZ3FFW69XNUQKFNRYLXTNR","A3L2XKXABNO0N5","3XUSYT70ITN3RRKBJPNBFGD6FGOD06","","img/set1/S1.jpg","83","1","structured_incentive","83","true","structured_incentive,structured_normal,random","2,3,1,2","",""
"null","","html-keyboard-response","339","291467","0.0-268.0","3QRYMNZ7FZ3FFW69XNUQKFNRYLXTNR","A3L2XKXABNO0N5","3XUSYT70ITN3RRKBJPNBFGD6FGOD06","","<img src=""img/set1/S1.jpg"" width=""540"" height = ""360"" style=""border:16px solid orange"">","null","","","","","","","",""
"null","","html-keyboard-response","340","291469","0.0-269.0","3QRYMNZ7FZ3FFW69XNUQKFNRYLXTNR","A3L2XKXABNO0N5","3XUSYT70ITN3RRKBJPNBFGD6FGOD06","","","null","","","","","","","",""
"2234.4000000059605","","image-keyboard-response","341","293705","0.0-270.0","3QRYMNZ7FZ3FFW69XNUQKFNRYLXTNR","A3L2XKXABNO0N5","3XUSYT70ITN3RRKBJPNBFGD6FGOD06","","img/set1/S3.jpg","74","3","structured_incentive","72","false","structured_incentive,structured_normal,random","2,3,1,2","",""
"null","","html-keyboard-response","342","294058","0.0-271.0","3QRYMNZ7FZ3FFW69XNUQKFNRYLXTNR","A3L2XKXABNO0N5","3XUSYT70ITN3RRKBJPNBFGD6FGOD06","","<img src=""img/set1/S3.jpg"" width=""540"" height = ""360"">","null","","","","","","","",""
"null","","html-keyboard-response","343","294061","0.0-272.0","3QRYMNZ7FZ3FFW69XNUQKFNRYLXTNR","A3L2XKXABNO0N5","3XUSYT70ITN3RRKBJPNBFGD6FGOD06","","","null","","","","","","","",""
"763.7000000029802","","image-keyboard-response","344","294825","0.0-273.0","3QRYMNZ7FZ3FFW69XNUQKFNRYLXTNR","A3L2XKXABNO0N5","3XUSYT70ITN3RRKBJPNBFGD6FGOD06","","img/set1/S1.jpg","83","1","structured_incentive","83","true","structured_incentive,structured_normal,random","2,3,1,2","",""
"null","","html-keyboard-response","345","295198","0.0-274.0","3QRYMNZ7FZ3FFW69XNUQKFNRYLXTNR","A3L2XKXABNO0N5","3XUSYT70ITN3RRKBJPNBFGD6FGOD06","","<img src=""img/set1/S1.jpg"" width=""540"" height = ""360"" style=""border:16px solid orange"">","null","","","","","","","",""
"null","","html-keyboard-response","346","295202","0.0-275.0","3QRYMNZ7FZ3FFW69XNUQKFNRYLXTNR","A3L2XKXABNO0N5","3XUSYT70ITN3RRKBJPNBFGD6FGOD06","","","null","","","","","","","",""
"1043.8999999910593","","image-keyboard-response","347","296249","0.0-276.0","3QRYMNZ7FZ3FFW69XNUQKFNRYLXTNR","A3L2XKXABNO0N5","3XUSYT70ITN3RRKBJPNBFGD6FGOD06","","img/set1/S2.jpg","72","2","structured_incentive","68","false","structured_incentive,structured_normal,random","2,3,1,2","",""
"null","","html-keyboard-response","348","296614","0.0-277.0","3QRYMNZ7FZ3FFW69XNUQKFNRYLXTNR","A3L2XKXABNO0N5","3XUSYT70ITN3RRKBJPNBFGD6FGOD06","","<img src=""img/set1/S2.jpg"" width=""540"" height = ""360"">","null","","","","","","","",""
"null","","html-keyboard-response","349","296617","0.0-278.0","3QRYMNZ7FZ3FFW69XNUQKFNRYLXTNR","A3L2XKXABNO0N5","3XUSYT70ITN3RRKBJPNBFGD6FGOD06","","","null","","","","","","","",""
"1710.7999999970198","","image-keyboard-response","350","298331","0.0-279.0","3QRYMNZ7FZ3FFW69XNUQKFNRYLXTNR","A3L2XKXABNO0N5","3XUSYT70ITN3RRKBJPNBFGD6FGOD06","","img/set1/S3.jpg","74","3","structured_incentive","72","false","structured_incentive,structured_normal,random","2,3,1,2","",""
"null","","html-keyboard-response","351","298688","0.0-280.0","3QRYMNZ7FZ3FFW69XNUQKFNRYLXTNR","A3L2XKXABNO0N5","3XUSYT70ITN3RRKBJPNBFGD6FGOD06","","<img src=""img/set1/S3.jpg"" width=""540"" height = ""360"">","null","","","","","","","",""
"null","","html-keyboard-response","352","298691","0.0-281.0","3QRYMNZ7FZ3FFW69XNUQKFNRYLXTNR","A3L2XKXABNO0N5","3XUSYT70ITN3RRKBJPNBFGD6FGOD06","","","null","","","","","","","",""
"606.3999999910593","","image-keyboard-response","353","299299","0.0-282.0","3QRYMNZ7FZ3FFW69XNUQKFNRYLXTNR","A3L2XKXABNO0N5","3XUSYT70ITN3RRKBJPNBFGD6FGOD06","","img/set1/S2.jpg","74","2","structured_incentive","68","false","structured_incentive,structured_normal,random","2,3,1,2","",""
"null","","html-keyboard-response","354","299663","0.0-283.0","3QRYMNZ7FZ3FFW69XNUQKFNRYLXTNR","A3L2XKXABNO0N5","3XUSYT70ITN3RRKBJPNBFGD6FGOD06","","<img src=""img/set1/S2.jpg"" width=""540"" height = ""360"">","null","","","","","","","",""
"null","","html-keyboard-response","355","299670","0.0-284.0","3QRYMNZ7FZ3FFW69XNUQKFNRYLXTNR","A3L2XKXABNO0N5","3XUSYT70ITN3RRKBJPNBFGD6FGOD06","","","null","","","","","","","",""
"505.59999999403954","","image-keyboard-response","356","300177","0.0-285.0","3QRYMNZ7FZ3FFW69XNUQKFNRYLXTNR","A3L2XKXABNO0N5","3XUSYT70ITN3RRKBJPNBFGD6FGOD06","","img/set1/S3.jpg","74","3","structured_incentive","72","false","structured_incentive,structured_normal,random","2,3,1,2","",""
"null","","html-keyboard-response","357","300531","0.0-286.0","3QRYMNZ7FZ3FFW69XNUQKFNRYLXTNR","A3L2XKXABNO0N5","3XUSYT70ITN3RRKBJPNBFGD6FGOD06","","<img src=""img/set1/S3.jpg"" width=""540"" height = ""360"">","null","","","","","","","",""
"null","","html-keyboard-response","358","300533","0.0-287.0","3QRYMNZ7FZ3FFW69XNUQKFNRYLXTNR","A3L2XKXABNO0N5","3XUSYT70ITN3RRKBJPNBFGD6FGOD06","","","null","","","","","","","",""
"787.2999999970198","","image-keyboard-response","359","301322","0.0-288.0","3QRYMNZ7FZ3FFW69XNUQKFNRYLXTNR","A3L2XKXABNO0N5","3XUSYT70ITN3RRKBJPNBFGD6FGOD06","","img/set1/S4.jpg","74","4","structured_incentive","74","true","structured_incentive,structured_normal,random","2,3,1,2","",""
"null","","html-keyboard-response","360","301678","0.0-289.0","3QRYMNZ7FZ3FFW69XNUQKFNRYLXTNR","A3L2XKXABNO0N5","3XUSYT70ITN3RRKBJPNBFGD6FGOD06","","<img src=""img/set1/S4.jpg"" width=""540"" height = ""360"" style=""border:16px solid Violet"">","null","","","","","","","",""
"null","","html-keyboard-response","361","301686","0.0-290.0","3QRYMNZ7FZ3FFW69XNUQKFNRYLXTNR","A3L2XKXABNO0N5","3XUSYT70ITN3RRKBJPNBFGD6FGOD06","","","null","","","","","","","",""
"1681.7999999970198","","image-keyboard-response","362","303369","0.0-291.0","3QRYMNZ7FZ3FFW69XNUQKFNRYLXTNR","A3L2XKXABNO0N5","3XUSYT70ITN3RRKBJPNBFGD6FGOD06","","img/set1/S2.jpg","72","2","structured_incentive","68","false","structured_incentive,structured_normal,random","2,3,1,2","",""
"null","","html-keyboard-response","363","303727","0.0-292.0","3QRYMNZ7FZ3FFW69XNUQKFNRYLXTNR","A3L2XKXABNO0N5","3XUSYT70ITN3RRKBJPNBFGD6FGOD06","","<img src=""img/set1/S2.jpg"" width=""540"" height = ""360"">","null","","","","","","","",""
"null","","html-keyboard-response","364","303730","0.0-293.0","3QRYMNZ7FZ3FFW69XNUQKFNRYLXTNR","A3L2XKXABNO0N5","3XUSYT70ITN3RRKBJPNBFGD6FGOD06","","","null","","","","","","","",""
"879.5999999940395","","image-keyboard-response","365","304611","0.0-294.0","3QRYMNZ7FZ3FFW69XNUQKFNRYLXTNR","A3L2XKXABNO0N5","3XUSYT70ITN3RRKBJPNBFGD6FGOD06","","img/set1/S4.jpg","74","4","structured_incentive","74","true","structured_incentive,structured_normal,random","2,3,1,2","",""
"null","","html-keyboard-response","366","304968","0.0-295.0","3QRYMNZ7FZ3FFW69XNUQKFNRYLXTNR","A3L2XKXABNO0N5","3XUSYT70ITN3RRKBJPNBFGD6FGOD06","","<img src=""img/set1/S4.jpg"" width=""540"" height = ""360"" style=""border:16px solid Violet"">","null","","","","","","","",""
"null","","html-keyboard-response","367","304971","0.0-296.0","3QRYMNZ7FZ3FFW69XNUQKFNRYLXTNR","A3L2XKXABNO0N5","3XUSYT70ITN3RRKBJPNBFGD6FGOD06","","","null","","","","","","","",""
"1132.6000000089407","","image-keyboard-response","368","306106","0.0-297.0","3QRYMNZ7FZ3FFW69XNUQKFNRYLXTNR","A3L2XKXABNO0N5","3XUSYT70ITN3RRKBJPNBFGD6FGOD06","","img/set1/S1.jpg","83","1","structured_incentive","83","true","structured_incentive,structured_normal,random","2,3,1,2","",""
"null","","html-keyboard-response","369","306473","0.0-298.0","3QRYMNZ7FZ3FFW69XNUQKFNRYLXTNR","A3L2XKXABNO0N5","3XUSYT70ITN3RRKBJPNBFGD6FGOD06","","<img src=""img/set1/S1.jpg"" width=""540"" height = ""360"" style=""border:16px solid orange"">","null","","","","","","","",""
"null","","html-keyboard-response","370","306476","0.0-299.0","3QRYMNZ7FZ3FFW69XNUQKFNRYLXTNR","A3L2XKXABNO0N5","3XUSYT70ITN3RRKBJPNBFGD6FGOD06","","","null","","","","","","","",""
"676.7999999970198","","image-keyboard-response","371","307154","0.0-300.0","3QRYMNZ7FZ3FFW69XNUQKFNRYLXTNR","A3L2XKXABNO0N5","3XUSYT70ITN3RRKBJPNBFGD6FGOD06","","img/set1/S1.jpg","83","1","structured_incentive","83","true","structured_incentive,structured_normal,random","2,3,1,2","",""
"null","","html-keyboard-response","372","307527","0.0-301.0","3QRYMNZ7FZ3FFW69XNUQKFNRYLXTNR","A3L2XKXABNO0N5","3XUSYT70ITN3RRKBJPNBFGD6FGOD06","","<img src=""img/set1/S1.jpg"" width=""540"" height = ""360"" style=""border:16px solid orange"">","null","","","","","","","",""
"null","","html-keyboard-response","373","307530","0.0-302.0","3QRYMNZ7FZ3FFW69XNUQKFNRYLXTNR","A3L2XKXABNO0N5","3XUSYT70ITN3RRKBJPNBFGD6FGOD06","","","null","","","","","","","",""
"1925.5","","image-keyboard-response","374","309457","0.0-303.0","3QRYMNZ7FZ3FFW69XNUQKFNRYLXTNR","A3L2XKXABNO0N5","3XUSYT70ITN3RRKBJPNBFGD6FGOD06","","img/set1/S2.jpg","72","2","structured_incentive","68","false","structured_incentive,structured_normal,random","2,3,1,2","",""
"null","","html-keyboard-response","375","309813","0.0-304.0","3QRYMNZ7FZ3FFW69XNUQKFNRYLXTNR","A3L2XKXABNO0N5","3XUSYT70ITN3RRKBJPNBFGD6FGOD06","","<img src=""img/set1/S2.jpg"" width=""540"" height = ""360"">","null","","","","","","","",""
"null","","html-keyboard-response","376","309815","0.0-305.0","3QRYMNZ7FZ3FFW69XNUQKFNRYLXTNR","A3L2XKXABNO0N5","3XUSYT70ITN3RRKBJPNBFGD6FGOD06","","","null","","","","","","","",""
"735.9000000059605","","image-keyboard-response","377","310554","0.0-306.0","3QRYMNZ7FZ3FFW69XNUQKFNRYLXTNR","A3L2XKXABNO0N5","3XUSYT70ITN3RRKBJPNBFGD6FGOD06","","img/set1/S3.jpg","72","3","structured_incentive","72","true","structured_incentive,structured_normal,random","2,3,1,2","",""
"null","","html-keyboard-response","378","310919","0.0-307.0","3QRYMNZ7FZ3FFW69XNUQKFNRYLXTNR","A3L2XKXABNO0N5","3XUSYT70ITN3RRKBJPNBFGD6FGOD06","","<img src=""img/set1/S3.jpg"" width=""540"" height = ""360"" style=""border:16px solid orange"">","null","","","","","","","",""
"null","","html-keyboard-response","379","310922","0.0-308.0","3QRYMNZ7FZ3FFW69XNUQKFNRYLXTNR","A3L2XKXABNO0N5","3XUSYT70ITN3RRKBJPNBFGD6FGOD06","","","null","","","","","","","",""
"956.1000000089407","","image-keyboard-response","380","311881","0.0-309.0","3QRYMNZ7FZ3FFW69XNUQKFNRYLXTNR","A3L2XKXABNO0N5","3XUSYT70ITN3RRKBJPNBFGD6FGOD06","","img/set1/S2.jpg","68","2","structured_incentive","68","true","structured_incentive,structured_normal,random","2,3,1,2","",""
"null","","html-keyboard-response","381","312247","0.0-310.0","3QRYMNZ7FZ3FFW69XNUQKFNRYLXTNR","A3L2XKXABNO0N5","3XUSYT70ITN3RRKBJPNBFGD6FGOD06","","<img src=""img/set1/S2.jpg"" width=""540"" height = ""360"" style=""border:16px solid orange"">","null","","","","","","","",""
"null","","html-keyboard-response","382","312250","0.0-311.0","3QRYMNZ7FZ3FFW69XNUQKFNRYLXTNR","A3L2XKXABNO0N5","3XUSYT70ITN3RRKBJPNBFGD6FGOD06","","","null","","","","","","","",""
"981.8000000119209","","image-keyboard-response","383","313232","0.0-312.0","3QRYMNZ7FZ3FFW69XNUQKFNRYLXTNR","A3L2XKXABNO0N5","3XUSYT70ITN3RRKBJPNBFGD6FGOD06","","img/set1/S3.jpg","72","3","structured_incentive","72","true","structured_incentive,structured_normal,random","2,3,1,2","",""
"null","","html-keyboard-response","384","313588","0.0-313.0","3QRYMNZ7FZ3FFW69XNUQKFNRYLXTNR","A3L2XKXABNO0N5","3XUSYT70ITN3RRKBJPNBFGD6FGOD06","","<img src=""img/set1/S3.jpg"" width=""540"" height = ""360"" style=""border:16px solid orange"">","null","","","","","","","",""
"null","","html-keyboard-response","385","313591","0.0-314.0","3QRYMNZ7FZ3FFW69XNUQKFNRYLXTNR","A3L2XKXABNO0N5","3XUSYT70ITN3RRKBJPNBFGD6FGOD06","","","null","","","","","","","",""
"488.3999999910593","","image-keyboard-response","386","314082","0.0-315.0","3QRYMNZ7FZ3FFW69XNUQKFNRYLXTNR","A3L2XKXABNO0N5","3XUSYT70ITN3RRKBJPNBFGD6FGOD06","","img/set1/S2.jpg","68","2","structured_incentive","68","true","structured_incentive,structured_normal,random","2,3,1,2","",""
"null","","html-keyboard-response","387","314448","0.0-316.0","3QRYMNZ7FZ3FFW69XNUQKFNRYLXTNR","A3L2XKXABNO0N5","3XUSYT70ITN3RRKBJPNBFGD6FGOD06","","<img src=""img/set1/S2.jpg"" width=""540"" height = ""360"" style=""border:16px solid orange"">","null","","","","","","","",""
"null","","html-keyboard-response","388","314451","0.0-317.0","3QRYMNZ7FZ3FFW69XNUQKFNRYLXTNR","A3L2XKXABNO0N5","3XUSYT70ITN3RRKBJPNBFGD6FGOD06","","","null","","","","","","","",""
"1113","","image-keyboard-response","389","315569","0.0-318.0","3QRYMNZ7FZ3FFW69XNUQKFNRYLXTNR","A3L2XKXABNO0N5","3XUSYT70ITN3RRKBJPNBFGD6FGOD06","","img/set1/S4.jpg","83","4","structured_incentive","74","false","structured_incentive,structured_normal,random","2,3,1,2","",""
"null","","html-keyboard-response","390","315938","0.0-319.0","3QRYMNZ7FZ3FFW69XNUQKFNRYLXTNR","A3L2XKXABNO0N5","3XUSYT70ITN3RRKBJPNBFGD6FGOD06","","<img src=""img/set1/S4.jpg"" width=""540"" height = ""360"">","null","","","","","","","",""
"null","","html-keyboard-response","391","315942","0.0-320.0","3QRYMNZ7FZ3FFW69XNUQKFNRYLXTNR","A3L2XKXABNO0N5","3XUSYT70ITN3RRKBJPNBFGD6FGOD06","","","null","","","","","","","",""
"1417","","image-keyboard-response","392","317362","0.0-321.0","3QRYMNZ7FZ3FFW69XNUQKFNRYLXTNR","A3L2XKXABNO0N5","3XUSYT70ITN3RRKBJPNBFGD6FGOD06","","img/set1/S2.jpg","72","2","structured_incentive","68","false","structured_incentive,structured_normal,random","2,3,1,2","",""
"null","","html-keyboard-response","393","317728","0.0-322.0","3QRYMNZ7FZ3FFW69XNUQKFNRYLXTNR","A3L2XKXABNO0N5","3XUSYT70ITN3RRKBJPNBFGD6FGOD06","","<img src=""img/set1/S2.jpg"" width=""540"" height = ""360"">","null","","","","","","","",""
"null","","html-keyboard-response","394","317731","0.0-323.0","3QRYMNZ7FZ3FFW69XNUQKFNRYLXTNR","A3L2XKXABNO0N5","3XUSYT70ITN3RRKBJPNBFGD6FGOD06","","","null","","","","","","","",""
"null","","image-keyboard-response","395","320247","0.0-324.0","3QRYMNZ7FZ3FFW69XNUQKFNRYLXTNR","A3L2XKXABNO0N5","3XUSYT70ITN3RRKBJPNBFGD6FGOD06","","img/set1/S3.jpg","null","3","structured_incentive","72","false","structured_incentive,structured_normal,random","2,3,1,2","",""
"null","","html-keyboard-response","396","320609","0.0-325.0","3QRYMNZ7FZ3FFW69XNUQKFNRYLXTNR","A3L2XKXABNO0N5","3XUSYT70ITN3RRKBJPNBFGD6FGOD06","","<img src=""img/set1/S3.jpg"" width=""540"" height = ""360"">","null","","","","","","","",""
"null","","html-keyboard-response","397","320617","0.0-326.0","3QRYMNZ7FZ3FFW69XNUQKFNRYLXTNR","A3L2XKXABNO0N5","3XUSYT70ITN3RRKBJPNBFGD6FGOD06","","","null","","","","","","","",""
"1876.3999999910593","","image-keyboard-response","398","322496","0.0-327.0","3QRYMNZ7FZ3FFW69XNUQKFNRYLXTNR","A3L2XKXABNO0N5","3XUSYT70ITN3RRKBJPNBFGD6FGOD06","","img/set1/S2.jpg","74","2","structured_incentive","68","false","structured_incentive,structured_normal,random","2,3,1,2","",""
"null","","html-keyboard-response","399","322859","0.0-328.0","3QRYMNZ7FZ3FFW69XNUQKFNRYLXTNR","A3L2XKXABNO0N5","3XUSYT70ITN3RRKBJPNBFGD6FGOD06","","<img src=""img/set1/S2.jpg"" width=""540"" height = ""360"">","null","","","","","","","",""
"null","","html-keyboard-response","400","322862","0.0-329.0","3QRYMNZ7FZ3FFW69XNUQKFNRYLXTNR","A3L2XKXABNO0N5","3XUSYT70ITN3RRKBJPNBFGD6FGOD06","","","null","","","","","","","",""
"482","","image-keyboard-response","401","323345","0.0-330.0","3QRYMNZ7FZ3FFW69XNUQKFNRYLXTNR","A3L2XKXABNO0N5","3XUSYT70ITN3RRKBJPNBFGD6FGOD06","","img/set1/S3.jpg","72","3","structured_incentive","72","true","structured_incentive,structured_normal,random","2,3,1,2","",""
"null","","html-keyboard-response","402","323697","0.0-331.0","3QRYMNZ7FZ3FFW69XNUQKFNRYLXTNR","A3L2XKXABNO0N5","3XUSYT70ITN3RRKBJPNBFGD6FGOD06","","<img src=""img/set1/S3.jpg"" width=""540"" height = ""360"" style=""border:16px solid orange"">","null","","","","","","","",""
"null","","html-keyboard-response","403","323700","0.0-332.0","3QRYMNZ7FZ3FFW69XNUQKFNRYLXTNR","A3L2XKXABNO0N5","3XUSYT70ITN3RRKBJPNBFGD6FGOD06","","","null","","","","","","","",""
"932.2000000029802","","image-keyboard-response","404","324634","0.0-333.0","3QRYMNZ7FZ3FFW69XNUQKFNRYLXTNR","A3L2XKXABNO0N5","3XUSYT70ITN3RRKBJPNBFGD6FGOD06","","img/set1/S2.jpg","72","2","structured_incentive","68","false","structured_incentive,structured_normal,random","2,3,1,2","",""
"null","","html-keyboard-response","405","324998","0.0-334.0","3QRYMNZ7FZ3FFW69XNUQKFNRYLXTNR","A3L2XKXABNO0N5","3XUSYT70ITN3RRKBJPNBFGD6FGOD06","","<img src=""img/set1/S2.jpg"" width=""540"" height = ""360"">","null","","","","","","","",""
"null","","html-keyboard-response","406","325002","0.0-335.0","3QRYMNZ7FZ3FFW69XNUQKFNRYLXTNR","A3L2XKXABNO0N5","3XUSYT70ITN3RRKBJPNBFGD6FGOD06","","","null","","","","","","","",""
"723.7000000029802","","image-keyboard-response","407","325728","0.0-336.0","3QRYMNZ7FZ3FFW69XNUQKFNRYLXTNR","A3L2XKXABNO0N5","3XUSYT70ITN3RRKBJPNBFGD6FGOD06","","img/set1/S3.jpg","72","3","structured_incentive","72","true","structured_incentive,structured_normal,random","2,3,1,2","",""
"null","","html-keyboard-response","408","326097","0.0-337.0","3QRYMNZ7FZ3FFW69XNUQKFNRYLXTNR","A3L2XKXABNO0N5","3XUSYT70ITN3RRKBJPNBFGD6FGOD06","","<img src=""img/set1/S3.jpg"" width=""540"" height = ""360"" style=""border:16px solid orange"">","null","","","","","","","",""
"null","","html-keyboard-response","409","326100","0.0-338.0","3QRYMNZ7FZ3FFW69XNUQKFNRYLXTNR","A3L2XKXABNO0N5","3XUSYT70ITN3RRKBJPNBFGD6FGOD06","","","null","","","","","","","",""
"1061","","image-keyboard-response","410","327162","0.0-339.0","3QRYMNZ7FZ3FFW69XNUQKFNRYLXTNR","A3L2XKXABNO0N5","3XUSYT70ITN3RRKBJPNBFGD6FGOD06","","img/set1/S1.jpg","83","1","structured_incentive","83","true","structured_incentive,structured_normal,random","2,3,1,2","",""
"null","","html-keyboard-response","411","327528","0.0-340.0","3QRYMNZ7FZ3FFW69XNUQKFNRYLXTNR","A3L2XKXABNO0N5","3XUSYT70ITN3RRKBJPNBFGD6FGOD06","","<img src=""img/set1/S1.jpg"" width=""540"" height = ""360"" style=""border:16px solid orange"">","null","","","","","","","",""
"null","","html-keyboard-response","412","327531","0.0-341.0","3QRYMNZ7FZ3FFW69XNUQKFNRYLXTNR","A3L2XKXABNO0N5","3XUSYT70ITN3RRKBJPNBFGD6FGOD06","","","null","","","","","","","",""
"1754.7000000029802","","image-keyboard-response","413","329288","0.0-342.0","3QRYMNZ7FZ3FFW69XNUQKFNRYLXTNR","A3L2XKXABNO0N5","3XUSYT70ITN3RRKBJPNBFGD6FGOD06","","img/set1/S4.jpg","68","4","structured_incentive","74","false","structured_incentive,structured_normal,random","2,3,1,2","",""
"null","","html-keyboard-response","414","329654","0.0-343.0","3QRYMNZ7FZ3FFW69XNUQKFNRYLXTNR","A3L2XKXABNO0N5","3XUSYT70ITN3RRKBJPNBFGD6FGOD06","","<img src=""img/set1/S4.jpg"" width=""540"" height = ""360"">","null","","","","","","","",""
"null","","html-keyboard-response","415","329657","0.0-344.0","3QRYMNZ7FZ3FFW69XNUQKFNRYLXTNR","A3L2XKXABNO0N5","3XUSYT70ITN3RRKBJPNBFGD6FGOD06","","","null","","","","","","","",""
"262.20000000298023","","image-keyboard-response","416","329920","0.0-345.0","3QRYMNZ7FZ3FFW69XNUQKFNRYLXTNR","A3L2XKXABNO0N5","3XUSYT70ITN3RRKBJPNBFGD6FGOD06","","img/set1/S2.jpg","83","2","structured_incentive","68","false","structured_incentive,structured_normal,random","2,3,1,2","",""
