"rt","url","trial_type","trial_index","time_elapsed","internal_node_id","assignmentID","mturkID","hitID","view_history","stimulus","key_press","state","test_part","correct_response","correct","order_block","order_chunk","bonus","responses"
"12222.700000047684","consent.html","external-html","0","12338","0.0-0.0","3AAPLD8UCD3N50KYUPZDFVQVC9OTHI","A3LA5P3N3KI8U7","3DFYDSXB2WMWAZWJRSN67LWQ0PPJUT","","","","","","","","","","",""
"83596.59999990463","","instructions","1","95936","0.0-1.0","3AAPLD8UCD3N50KYUPZDFVQVC9OTHI","A3LA5P3N3KI8U7","3DFYDSXB2WMWAZWJRSN67LWQ0PPJUT","[{""page_index"":0,""viewing_time"":1977.5999999046326},{""page_index"":1,""viewing_time"":6952.799999952316},{""page_index"":2,""viewing_time"":7541.900000095367},{""page_index"":3,""viewing_time"":14486.900000095367},{""page_index"":4,""viewing_time"":4987.199999809265},{""page_index"":5,""viewing_time"":9994.900000095367},{""page_index"":6,""viewing_time"":5209.099999904633},{""page_index"":7,""viewing_time"":32445.60000014305}]","","","","","","","","","",""
"null","","image-keyboard-response","2","98438","0.0-2.0-0.0","3AAPLD8UCD3N50KYUPZDFVQVC9OTHI","A3LA5P3N3KI8U7","3DFYDSXB2WMWAZWJRSN67LWQ0PPJUT","","img/practice/S2.jpg","null","2","practice","68","false","","","",""
"null","","html-keyboard-response","3","98740","0.0-2.0-1.0","3AAPLD8UCD3N50KYUPZDFVQVC9OTHI","A3LA5P3N3KI8U7","3DFYDSXB2WMWAZWJRSN67LWQ0PPJUT","","<img src=""img/practice/S2.jpg"" width=""540"" height = ""360"">","null","","","","","","","",""
"null","","html-keyboard-response","4","98743","0.0-2.0-2.0","3AAPLD8UCD3N50KYUPZDFVQVC9OTHI","A3LA5P3N3KI8U7","3DFYDSXB2WMWAZWJRSN67LWQ0PPJUT","","","null","","","","","","","",""
"146.70000004768372","","image-keyboard-response","5","98891","0.0-2.0-0.1","3AAPLD8UCD3N50KYUPZDFVQVC9OTHI","A3LA5P3N3KI8U7","3DFYDSXB2WMWAZWJRSN67LWQ0PPJUT","","img/practice/S3.jpg","83","3","practice","72","false","","","",""
"null","","html-keyboard-response","6","99193","0.0-2.0-1.1","3AAPLD8UCD3N50KYUPZDFVQVC9OTHI","A3LA5P3N3KI8U7","3DFYDSXB2WMWAZWJRSN67LWQ0PPJUT","","<img src=""img/practice/S3.jpg"" width=""540"" height = ""360"">","null","","","","","","","",""
"null","","html-keyboard-response","7","99195","0.0-2.0-2.1","3AAPLD8UCD3N50KYUPZDFVQVC9OTHI","A3LA5P3N3KI8U7","3DFYDSXB2WMWAZWJRSN67LWQ0PPJUT","","","null","","","","","","","",""
"730.2000000476837","","image-keyboard-response","8","99926","0.0-2.0-0.2","3AAPLD8UCD3N50KYUPZDFVQVC9OTHI","A3LA5P3N3KI8U7","3DFYDSXB2WMWAZWJRSN67LWQ0PPJUT","","img/practice/S1.jpg","68","1","practice","83","false","","","",""
"null","","html-keyboard-response","9","100227","0.0-2.0-1.2","3AAPLD8UCD3N50KYUPZDFVQVC9OTHI","A3LA5P3N3KI8U7","3DFYDSXB2WMWAZWJRSN67LWQ0PPJUT","","<img src=""img/practice/S1.jpg"" width=""540"" height = ""360"">","null","","","","","","","",""
"null","","html-keyboard-response","10","100230","0.0-2.0-2.2","3AAPLD8UCD3N50KYUPZDFVQVC9OTHI","A3LA5P3N3KI8U7","3DFYDSXB2WMWAZWJRSN67LWQ0PPJUT","","","null","","","","","","","",""
"462.7000000476837","","image-keyboard-response","11","100693","0.0-2.0-0.3","3AAPLD8UCD3N50KYUPZDFVQVC9OTHI","A3LA5P3N3KI8U7","3DFYDSXB2WMWAZWJRSN67LWQ0PPJUT","","img/practice/S4.jpg","72","4","practice","74","false","","","",""
"null","","html-keyboard-response","12","100995","0.0-2.0-1.3","3AAPLD8UCD3N50KYUPZDFVQVC9OTHI","A3LA5P3N3KI8U7","3DFYDSXB2WMWAZWJRSN67LWQ0PPJUT","","<img src=""img/practice/S4.jpg"" width=""540"" height = ""360"">","null","","","","","","","",""
"null","","html-keyboard-response","13","100997","0.0-2.0-2.3","3AAPLD8UCD3N50KYUPZDFVQVC9OTHI","A3LA5P3N3KI8U7","3DFYDSXB2WMWAZWJRSN67LWQ0PPJUT","","","null","","","","","","","",""
"335.09999990463257","","image-keyboard-response","14","101333","0.0-2.0-0.4","3AAPLD8UCD3N50KYUPZDFVQVC9OTHI","A3LA5P3N3KI8U7","3DFYDSXB2WMWAZWJRSN67LWQ0PPJUT","","img/practice/S3.jpg","83","3","practice","72","false","","","",""
"null","","html-keyboard-response","15","101635","0.0-2.0-1.4","3AAPLD8UCD3N50KYUPZDFVQVC9OTHI","A3LA5P3N3KI8U7","3DFYDSXB2WMWAZWJRSN67LWQ0PPJUT","","<img src=""img/practice/S3.jpg"" width=""540"" height = ""360"">","null","","","","","","","",""
"null","","html-keyboard-response","16","101638","0.0-2.0-2.4","3AAPLD8UCD3N50KYUPZDFVQVC9OTHI","A3LA5P3N3KI8U7","3DFYDSXB2WMWAZWJRSN67LWQ0PPJUT","","","null","","","","","","","",""
"598.2000000476837","","image-keyboard-response","17","102237","0.0-2.0-0.5","3AAPLD8UCD3N50KYUPZDFVQVC9OTHI","A3LA5P3N3KI8U7","3DFYDSXB2WMWAZWJRSN67LWQ0PPJUT","","img/practice/S2.jpg","83","2","practice","68","false","","","",""
"null","","html-keyboard-response","18","102538","0.0-2.0-1.5","3AAPLD8UCD3N50KYUPZDFVQVC9OTHI","A3LA5P3N3KI8U7","3DFYDSXB2WMWAZWJRSN67LWQ0PPJUT","","<img src=""img/practice/S2.jpg"" width=""540"" height = ""360"">","null","","","","","","","",""
"null","","html-keyboard-response","19","102540","0.0-2.0-2.5","3AAPLD8UCD3N50KYUPZDFVQVC9OTHI","A3LA5P3N3KI8U7","3DFYDSXB2WMWAZWJRSN67LWQ0PPJUT","","","null","","","","","","","",""
"542.2999999523163","","image-keyboard-response","20","103084","0.0-2.0-0.6","3AAPLD8UCD3N50KYUPZDFVQVC9OTHI","A3LA5P3N3KI8U7","3DFYDSXB2WMWAZWJRSN67LWQ0PPJUT","","img/practice/S4.jpg","68","4","practice","74","false","","","",""
"null","","html-keyboard-response","21","103385","0.0-2.0-1.6","3AAPLD8UCD3N50KYUPZDFVQVC9OTHI","A3LA5P3N3KI8U7","3DFYDSXB2WMWAZWJRSN67LWQ0PPJUT","","<img src=""img/practice/S4.jpg"" width=""540"" height = ""360"">","null","","","","","","","",""
"null","","html-keyboard-response","22","103387","0.0-2.0-2.6","3AAPLD8UCD3N50KYUPZDFVQVC9OTHI","A3LA5P3N3KI8U7","3DFYDSXB2WMWAZWJRSN67LWQ0PPJUT","","","null","","","","","","","",""
"330.60000014305115","","image-keyboard-response","23","103719","0.0-2.0-0.7","3AAPLD8UCD3N50KYUPZDFVQVC9OTHI","A3LA5P3N3KI8U7","3DFYDSXB2WMWAZWJRSN67LWQ0PPJUT","","img/practice/S1.jpg","72","1","practice","83","false","","","",""
"null","","html-keyboard-response","24","104020","0.0-2.0-1.7","3AAPLD8UCD3N50KYUPZDFVQVC9OTHI","A3LA5P3N3KI8U7","3DFYDSXB2WMWAZWJRSN67LWQ0PPJUT","","<img src=""img/practice/S1.jpg"" width=""540"" height = ""360"">","null","","","","","","","",""
"null","","html-keyboard-response","25","104022","0.0-2.0-2.7","3AAPLD8UCD3N50KYUPZDFVQVC9OTHI","A3LA5P3N3KI8U7","3DFYDSXB2WMWAZWJRSN67LWQ0PPJUT","","","null","","","","","","","",""
"246.80000019073486","","image-keyboard-response","26","104270","0.0-2.0-0.8","3AAPLD8UCD3N50KYUPZDFVQVC9OTHI","A3LA5P3N3KI8U7","3DFYDSXB2WMWAZWJRSN67LWQ0PPJUT","","img/practice/S1.jpg","74","1","practice","83","false","","","",""
"null","","html-keyboard-response","27","104571","0.0-2.0-1.8","3AAPLD8UCD3N50KYUPZDFVQVC9OTHI","A3LA5P3N3KI8U7","3DFYDSXB2WMWAZWJRSN67LWQ0PPJUT","","<img src=""img/practice/S1.jpg"" width=""540"" height = ""360"">","null","","","","","","","",""
"null","","html-keyboard-response","28","104573","0.0-2.0-2.8","3AAPLD8UCD3N50KYUPZDFVQVC9OTHI","A3LA5P3N3KI8U7","3DFYDSXB2WMWAZWJRSN67LWQ0PPJUT","","","null","","","","","","","",""
"921.5","","image-keyboard-response","29","105496","0.0-2.0-0.9","3AAPLD8UCD3N50KYUPZDFVQVC9OTHI","A3LA5P3N3KI8U7","3DFYDSXB2WMWAZWJRSN67LWQ0PPJUT","","img/practice/S2.jpg","83","2","practice","68","false","","","",""
"null","","html-keyboard-response","30","105797","0.0-2.0-1.9","3AAPLD8UCD3N50KYUPZDFVQVC9OTHI","A3LA5P3N3KI8U7","3DFYDSXB2WMWAZWJRSN67LWQ0PPJUT","","<img src=""img/practice/S2.jpg"" width=""540"" height = ""360"">","null","","","","","","","",""
"null","","html-keyboard-response","31","105799","0.0-2.0-2.9","3AAPLD8UCD3N50KYUPZDFVQVC9OTHI","A3LA5P3N3KI8U7","3DFYDSXB2WMWAZWJRSN67LWQ0PPJUT","","","null","","","","","","","",""
"543.2999999523163","","image-keyboard-response","32","106343","0.0-2.0-0.10","3AAPLD8UCD3N50KYUPZDFVQVC9OTHI","A3LA5P3N3KI8U7","3DFYDSXB2WMWAZWJRSN67LWQ0PPJUT","","img/practice/S3.jpg","68","3","practice","72","false","","","",""
"null","","html-keyboard-response","33","106644","0.0-2.0-1.10","3AAPLD8UCD3N50KYUPZDFVQVC9OTHI","A3LA5P3N3KI8U7","3DFYDSXB2WMWAZWJRSN67LWQ0PPJUT","","<img src=""img/practice/S3.jpg"" width=""540"" height = ""360"">","null","","","","","","","",""
"null","","html-keyboard-response","34","106647","0.0-2.0-2.10","3AAPLD8UCD3N50KYUPZDFVQVC9OTHI","A3LA5P3N3KI8U7","3DFYDSXB2WMWAZWJRSN67LWQ0PPJUT","","","null","","","","","","","",""
"670.3999998569489","","image-keyboard-response","35","107318","0.0-2.0-0.11","3AAPLD8UCD3N50KYUPZDFVQVC9OTHI","A3LA5P3N3KI8U7","3DFYDSXB2WMWAZWJRSN67LWQ0PPJUT","","img/practice/S4.jpg","83","4","practice","74","false","","","",""
"null","","html-keyboard-response","36","107620","0.0-2.0-1.11","3AAPLD8UCD3N50KYUPZDFVQVC9OTHI","A3LA5P3N3KI8U7","3DFYDSXB2WMWAZWJRSN67LWQ0PPJUT","","<img src=""img/practice/S4.jpg"" width=""540"" height = ""360"">","null","","","","","","","",""
"null","","html-keyboard-response","37","107622","0.0-2.0-2.11","3AAPLD8UCD3N50KYUPZDFVQVC9OTHI","A3LA5P3N3KI8U7","3DFYDSXB2WMWAZWJRSN67LWQ0PPJUT","","","null","","","","","","","",""
"631.8999998569489","","image-keyboard-response","38","108255","0.0-2.0-0.12","3AAPLD8UCD3N50KYUPZDFVQVC9OTHI","A3LA5P3N3KI8U7","3DFYDSXB2WMWAZWJRSN67LWQ0PPJUT","","img/practice/S4.jpg","83","4","practice","74","false","","","",""
"null","","html-keyboard-response","39","108556","0.0-2.0-1.12","3AAPLD8UCD3N50KYUPZDFVQVC9OTHI","A3LA5P3N3KI8U7","3DFYDSXB2WMWAZWJRSN67LWQ0PPJUT","","<img src=""img/practice/S4.jpg"" width=""540"" height = ""360"">","null","","","","","","","",""
"null","","html-keyboard-response","40","108558","0.0-2.0-2.12","3AAPLD8UCD3N50KYUPZDFVQVC9OTHI","A3LA5P3N3KI8U7","3DFYDSXB2WMWAZWJRSN67LWQ0PPJUT","","","null","","","","","","","",""
"409","","image-keyboard-response","41","108968","0.0-2.0-0.13","3AAPLD8UCD3N50KYUPZDFVQVC9OTHI","A3LA5P3N3KI8U7","3DFYDSXB2WMWAZWJRSN67LWQ0PPJUT","","img/practice/S1.jpg","83","1","practice","83","true","","","",""
"null","","html-keyboard-response","42","109269","0.0-2.0-1.13","3AAPLD8UCD3N50KYUPZDFVQVC9OTHI","A3LA5P3N3KI8U7","3DFYDSXB2WMWAZWJRSN67LWQ0PPJUT","","<img src=""img/practice/S1.jpg"" width=""540"" height = ""360"" style=""border:16px solid orange"">","null","","","","","","","",""
"null","","html-keyboard-response","43","109271","0.0-2.0-2.13","3AAPLD8UCD3N50KYUPZDFVQVC9OTHI","A3LA5P3N3KI8U7","3DFYDSXB2WMWAZWJRSN67LWQ0PPJUT","","","null","","","","","","","",""
"805","","image-keyboard-response","44","110077","0.0-2.0-0.14","3AAPLD8UCD3N50KYUPZDFVQVC9OTHI","A3LA5P3N3KI8U7","3DFYDSXB2WMWAZWJRSN67LWQ0PPJUT","","img/practice/S3.jpg","68","3","practice","72","false","","","",""
"null","","html-keyboard-response","45","110379","0.0-2.0-1.14","3AAPLD8UCD3N50KYUPZDFVQVC9OTHI","A3LA5P3N3KI8U7","3DFYDSXB2WMWAZWJRSN67LWQ0PPJUT","","<img src=""img/practice/S3.jpg"" width=""540"" height = ""360"">","null","","","","","","","",""
"null","","html-keyboard-response","46","110381","0.0-2.0-2.14","3AAPLD8UCD3N50KYUPZDFVQVC9OTHI","A3LA5P3N3KI8U7","3DFYDSXB2WMWAZWJRSN67LWQ0PPJUT","","","null","","","","","","","",""
"430.10000014305115","","image-keyboard-response","47","110812","0.0-2.0-0.15","3AAPLD8UCD3N50KYUPZDFVQVC9OTHI","A3LA5P3N3KI8U7","3DFYDSXB2WMWAZWJRSN67LWQ0PPJUT","","img/practice/S2.jpg","68","2","practice","68","true","","","",""
"null","","html-keyboard-response","48","111114","0.0-2.0-1.15","3AAPLD8UCD3N50KYUPZDFVQVC9OTHI","A3LA5P3N3KI8U7","3DFYDSXB2WMWAZWJRSN67LWQ0PPJUT","","<img src=""img/practice/S2.jpg"" width=""540"" height = ""360"" style=""border:16px solid orange"">","null","","","","","","","",""
"null","","html-keyboard-response","49","111116","0.0-2.0-2.15","3AAPLD8UCD3N50KYUPZDFVQVC9OTHI","A3LA5P3N3KI8U7","3DFYDSXB2WMWAZWJRSN67LWQ0PPJUT","","","null","","","","","","","",""
"1027.7000000476837","","image-keyboard-response","50","112145","0.0-2.0-0.16","3AAPLD8UCD3N50KYUPZDFVQVC9OTHI","A3LA5P3N3KI8U7","3DFYDSXB2WMWAZWJRSN67LWQ0PPJUT","","img/practice/S1.jpg","72","1","practice","83","false","","","",""
"null","","html-keyboard-response","51","112446","0.0-2.0-1.16","3AAPLD8UCD3N50KYUPZDFVQVC9OTHI","A3LA5P3N3KI8U7","3DFYDSXB2WMWAZWJRSN67LWQ0PPJUT","","<img src=""img/practice/S1.jpg"" width=""540"" height = ""360"">","null","","","","","","","",""
"null","","html-keyboard-response","52","112448","0.0-2.0-2.16","3AAPLD8UCD3N50KYUPZDFVQVC9OTHI","A3LA5P3N3KI8U7","3DFYDSXB2WMWAZWJRSN67LWQ0PPJUT","","","null","","","","","","","",""
"80.40000009536743","","image-keyboard-response","53","112529","0.0-2.0-0.17","3AAPLD8UCD3N50KYUPZDFVQVC9OTHI","A3LA5P3N3KI8U7","3DFYDSXB2WMWAZWJRSN67LWQ0PPJUT","","img/practice/S2.jpg","74","2","practice","68","false","","","",""
"null","","html-keyboard-response","54","112830","0.0-2.0-1.17","3AAPLD8UCD3N50KYUPZDFVQVC9OTHI","A3LA5P3N3KI8U7","3DFYDSXB2WMWAZWJRSN67LWQ0PPJUT","","<img src=""img/practice/S2.jpg"" width=""540"" height = ""360"">","null","","","","","","","",""
"null","","html-keyboard-response","55","112832","0.0-2.0-2.17","3AAPLD8UCD3N50KYUPZDFVQVC9OTHI","A3LA5P3N3KI8U7","3DFYDSXB2WMWAZWJRSN67LWQ0PPJUT","","","null","","","","","","","",""
"812.1000001430511","","image-keyboard-response","56","113645","0.0-2.0-0.18","3AAPLD8UCD3N50KYUPZDFVQVC9OTHI","A3LA5P3N3KI8U7","3DFYDSXB2WMWAZWJRSN67LWQ0PPJUT","","img/practice/S4.jpg","72","4","practice","74","false","","","",""
"null","","html-keyboard-response","57","113946","0.0-2.0-1.18","3AAPLD8UCD3N50KYUPZDFVQVC9OTHI","A3LA5P3N3KI8U7","3DFYDSXB2WMWAZWJRSN67LWQ0PPJUT","","<img src=""img/practice/S4.jpg"" width=""540"" height = ""360"">","null","","","","","","","",""
"null","","html-keyboard-response","58","113949","0.0-2.0-2.18","3AAPLD8UCD3N50KYUPZDFVQVC9OTHI","A3LA5P3N3KI8U7","3DFYDSXB2WMWAZWJRSN67LWQ0PPJUT","","","null","","","","","","","",""
"398","","image-keyboard-response","59","114347","0.0-2.0-0.19","3AAPLD8UCD3N50KYUPZDFVQVC9OTHI","A3LA5P3N3KI8U7","3DFYDSXB2WMWAZWJRSN67LWQ0PPJUT","","img/practice/S3.jpg","74","3","practice","72","false","","","",""
"null","","html-keyboard-response","60","114649","0.0-2.0-1.19","3AAPLD8UCD3N50KYUPZDFVQVC9OTHI","A3LA5P3N3KI8U7","3DFYDSXB2WMWAZWJRSN67LWQ0PPJUT","","<img src=""img/practice/S3.jpg"" width=""540"" height = ""360"">","null","","","","","","","",""
"null","","html-keyboard-response","61","114651","0.0-2.0-2.19","3AAPLD8UCD3N50KYUPZDFVQVC9OTHI","A3LA5P3N3KI8U7","3DFYDSXB2WMWAZWJRSN67LWQ0PPJUT","","","null","","","","","","","",""
"725.8000001907349","","image-keyboard-response","62","115378","0.0-2.0-0.20","3AAPLD8UCD3N50KYUPZDFVQVC9OTHI","A3LA5P3N3KI8U7","3DFYDSXB2WMWAZWJRSN67LWQ0PPJUT","","img/practice/S1.jpg","83","1","practice","83","true","","","",""
"null","","html-keyboard-response","63","115680","0.0-2.0-1.20","3AAPLD8UCD3N50KYUPZDFVQVC9OTHI","A3LA5P3N3KI8U7","3DFYDSXB2WMWAZWJRSN67LWQ0PPJUT","","<img src=""img/practice/S1.jpg"" width=""540"" height = ""360"" style=""border:16px solid orange"">","null","","","","","","","",""
"null","","html-keyboard-response","64","115682","0.0-2.0-2.20","3AAPLD8UCD3N50KYUPZDFVQVC9OTHI","A3LA5P3N3KI8U7","3DFYDSXB2WMWAZWJRSN67LWQ0PPJUT","","","null","","","","","","","",""
"948.5","","image-keyboard-response","65","116631","0.0-2.0-0.21","3AAPLD8UCD3N50KYUPZDFVQVC9OTHI","A3LA5P3N3KI8U7","3DFYDSXB2WMWAZWJRSN67LWQ0PPJUT","","img/practice/S4.jpg","68","4","practice","74","false","","","",""
"null","","html-keyboard-response","66","116933","0.0-2.0-1.21","3AAPLD8UCD3N50KYUPZDFVQVC9OTHI","A3LA5P3N3KI8U7","3DFYDSXB2WMWAZWJRSN67LWQ0PPJUT","","<img src=""img/practice/S4.jpg"" width=""540"" height = ""360"">","null","","","","","","","",""
"null","","html-keyboard-response","67","116936","0.0-2.0-2.21","3AAPLD8UCD3N50KYUPZDFVQVC9OTHI","A3LA5P3N3KI8U7","3DFYDSXB2WMWAZWJRSN67LWQ0PPJUT","","","null","","","","","","","",""
"778.7000000476837","","image-keyboard-response","68","117715","0.0-2.0-0.22","3AAPLD8UCD3N50KYUPZDFVQVC9OTHI","A3LA5P3N3KI8U7","3DFYDSXB2WMWAZWJRSN67LWQ0PPJUT","","img/practice/S3.jpg","68","3","practice","72","false","","","",""
"null","","html-keyboard-response","69","118016","0.0-2.0-1.22","3AAPLD8UCD3N50KYUPZDFVQVC9OTHI","A3LA5P3N3KI8U7","3DFYDSXB2WMWAZWJRSN67LWQ0PPJUT","","<img src=""img/practice/S3.jpg"" width=""540"" height = ""360"">","null","","","","","","","",""
"null","","html-keyboard-response","70","118020","0.0-2.0-2.22","3AAPLD8UCD3N50KYUPZDFVQVC9OTHI","A3LA5P3N3KI8U7","3DFYDSXB2WMWAZWJRSN67LWQ0PPJUT","","","null","","","","","","","",""
"841.6999998092651","","image-keyboard-response","71","118862","0.0-2.0-0.23","3AAPLD8UCD3N50KYUPZDFVQVC9OTHI","A3LA5P3N3KI8U7","3DFYDSXB2WMWAZWJRSN67LWQ0PPJUT","","img/practice/S2.jpg","68","2","practice","68","true","","","",""
"null","","html-keyboard-response","72","119163","0.0-2.0-1.23","3AAPLD8UCD3N50KYUPZDFVQVC9OTHI","A3LA5P3N3KI8U7","3DFYDSXB2WMWAZWJRSN67LWQ0PPJUT","","<img src=""img/practice/S2.jpg"" width=""540"" height = ""360"" style=""border:16px solid orange"">","null","","","","","","","",""
"null","","html-keyboard-response","73","119166","0.0-2.0-2.23","3AAPLD8UCD3N50KYUPZDFVQVC9OTHI","A3LA5P3N3KI8U7","3DFYDSXB2WMWAZWJRSN67LWQ0PPJUT","","","null","","","","","","","",""
"2058.5","","instructions","74","121225","0.0-3.0","3AAPLD8UCD3N50KYUPZDFVQVC9OTHI","A3LA5P3N3KI8U7","3DFYDSXB2WMWAZWJRSN67LWQ0PPJUT","[{""page_index"":0,""viewing_time"":2058.2999999523163}]","","","","","","","","","",""
"3845.600000143051","","instructions","75","125071","0.0-4.0","3AAPLD8UCD3N50KYUPZDFVQVC9OTHI","A3LA5P3N3KI8U7","3DFYDSXB2WMWAZWJRSN67LWQ0PPJUT","[{""page_index"":0,""viewing_time"":3845.5}]","","","","","","","","","",""
"2069.2000000476837","","instructions","76","127141","0.0-5.0","3AAPLD8UCD3N50KYUPZDFVQVC9OTHI","A3LA5P3N3KI8U7","3DFYDSXB2WMWAZWJRSN67LWQ0PPJUT","[{""page_index"":0,""viewing_time"":2069}]","","","","","","","","","",""
"2381.7999999523163","","image-keyboard-response","77","129523","0.0-6.0","3AAPLD8UCD3N50KYUPZDFVQVC9OTHI","A3LA5P3N3KI8U7","3DFYDSXB2WMWAZWJRSN67LWQ0PPJUT","","img/set1/S2.jpg","83","2","random","68","false","random,structured_normal,structured_incentive","2,3,1,2","",""
"null","","html-keyboard-response","78","129876","0.0-7.0","3AAPLD8UCD3N50KYUPZDFVQVC9OTHI","A3LA5P3N3KI8U7","3DFYDSXB2WMWAZWJRSN67LWQ0PPJUT","","<img src=""img/set1/S2.jpg"" width=""540"" height = ""360"">","null","","","","","","","",""
"null","","html-keyboard-response","79","129879","0.0-8.0","3AAPLD8UCD3N50KYUPZDFVQVC9OTHI","A3LA5P3N3KI8U7","3DFYDSXB2WMWAZWJRSN67LWQ0PPJUT","","","null","","","","","","","",""
"893.1999998092651","","image-keyboard-response","80","130773","0.0-9.0","3AAPLD8UCD3N50KYUPZDFVQVC9OTHI","A3LA5P3N3KI8U7","3DFYDSXB2WMWAZWJRSN67LWQ0PPJUT","","img/set1/S1.jpg","83","1","random","83","true","random,structured_normal,structured_incentive","2,3,1,2","",""
"null","","html-keyboard-response","81","131124","0.0-10.0","3AAPLD8UCD3N50KYUPZDFVQVC9OTHI","A3LA5P3N3KI8U7","3DFYDSXB2WMWAZWJRSN67LWQ0PPJUT","","<img src=""img/set1/S1.jpg"" width=""540"" height = ""360"" style=""border:16px solid orange"">","null","","","","","","","",""
"null","","html-keyboard-response","82","131127","0.0-11.0","3AAPLD8UCD3N50KYUPZDFVQVC9OTHI","A3LA5P3N3KI8U7","3DFYDSXB2WMWAZWJRSN67LWQ0PPJUT","","","null","","","","","","","",""
"843.6000001430511","","image-keyboard-response","83","131971","0.0-12.0","3AAPLD8UCD3N50KYUPZDFVQVC9OTHI","A3LA5P3N3KI8U7","3DFYDSXB2WMWAZWJRSN67LWQ0PPJUT","","img/set1/S1.jpg","83","1","random","83","true","random,structured_normal,structured_incentive","2,3,1,2","",""
"null","","html-keyboard-response","84","132322","0.0-13.0","3AAPLD8UCD3N50KYUPZDFVQVC9OTHI","A3LA5P3N3KI8U7","3DFYDSXB2WMWAZWJRSN67LWQ0PPJUT","","<img src=""img/set1/S1.jpg"" width=""540"" height = ""360"" style=""border:16px solid orange"">","null","","","","","","","",""
"null","","html-keyboard-response","85","132325","0.0-14.0","3AAPLD8UCD3N50KYUPZDFVQVC9OTHI","A3LA5P3N3KI8U7","3DFYDSXB2WMWAZWJRSN67LWQ0PPJUT","","","null","","","","","","","",""
"710.5","","image-keyboard-response","86","133036","0.0-15.0","3AAPLD8UCD3N50KYUPZDFVQVC9OTHI","A3LA5P3N3KI8U7","3DFYDSXB2WMWAZWJRSN67LWQ0PPJUT","","img/set1/S4.jpg","68","4","random","74","false","random,structured_normal,structured_incentive","2,3,1,2","",""
"null","","html-keyboard-response","87","133388","0.0-16.0","3AAPLD8UCD3N50KYUPZDFVQVC9OTHI","A3LA5P3N3KI8U7","3DFYDSXB2WMWAZWJRSN67LWQ0PPJUT","","<img src=""img/set1/S4.jpg"" width=""540"" height = ""360"">","null","","","","","","","",""
"null","","html-keyboard-response","88","133391","0.0-17.0","3AAPLD8UCD3N50KYUPZDFVQVC9OTHI","A3LA5P3N3KI8U7","3DFYDSXB2WMWAZWJRSN67LWQ0PPJUT","","","null","","","","","","","",""
"493.60000014305115","","image-keyboard-response","89","133885","0.0-18.0","3AAPLD8UCD3N50KYUPZDFVQVC9OTHI","A3LA5P3N3KI8U7","3DFYDSXB2WMWAZWJRSN67LWQ0PPJUT","","img/set1/S2.jpg","68","2","random","68","true","random,structured_normal,structured_incentive","2,3,1,2","",""
"null","","html-keyboard-response","90","134236","0.0-19.0","3AAPLD8UCD3N50KYUPZDFVQVC9OTHI","A3LA5P3N3KI8U7","3DFYDSXB2WMWAZWJRSN67LWQ0PPJUT","","<img src=""img/set1/S2.jpg"" width=""540"" height = ""360"" style=""border:16px solid orange"">","null","","","","","","","",""
"null","","html-keyboard-response","91","134239","0.0-20.0","3AAPLD8UCD3N50KYUPZDFVQVC9OTHI","A3LA5P3N3KI8U7","3DFYDSXB2WMWAZWJRSN67LWQ0PPJUT","","","null","","","","","","","",""
"1706","","image-keyboard-response","92","135946","0.0-21.0","3AAPLD8UCD3N50KYUPZDFVQVC9OTHI","A3LA5P3N3KI8U7","3DFYDSXB2WMWAZWJRSN67LWQ0PPJUT","","img/set1/S2.jpg","68","2","random","68","true","random,structured_normal,structured_incentive","2,3,1,2","",""
"null","","html-keyboard-response","93","136297","0.0-22.0","3AAPLD8UCD3N50KYUPZDFVQVC9OTHI","A3LA5P3N3KI8U7","3DFYDSXB2WMWAZWJRSN67LWQ0PPJUT","","<img src=""img/set1/S2.jpg"" width=""540"" height = ""360"" style=""border:16px solid orange"">","null","","","","","","","",""
"null","","html-keyboard-response","94","136299","0.0-23.0","3AAPLD8UCD3N50KYUPZDFVQVC9OTHI","A3LA5P3N3KI8U7","3DFYDSXB2WMWAZWJRSN67LWQ0PPJUT","","","null","","","","","","","",""
"1853.7000000476837","","image-keyboard-response","95","138154","0.0-24.0","3AAPLD8UCD3N50KYUPZDFVQVC9OTHI","A3LA5P3N3KI8U7","3DFYDSXB2WMWAZWJRSN67LWQ0PPJUT","","img/set1/S3.jpg","83","3","random","72","false","random,structured_normal,structured_incentive","2,3,1,2","",""
"null","","html-keyboard-response","96","138506","0.0-25.0","3AAPLD8UCD3N50KYUPZDFVQVC9OTHI","A3LA5P3N3KI8U7","3DFYDSXB2WMWAZWJRSN67LWQ0PPJUT","","<img src=""img/set1/S3.jpg"" width=""540"" height = ""360"">","null","","","","","","","",""
"null","","html-keyboard-response","97","138508","0.0-26.0","3AAPLD8UCD3N50KYUPZDFVQVC9OTHI","A3LA5P3N3KI8U7","3DFYDSXB2WMWAZWJRSN67LWQ0PPJUT","","","null","","","","","","","",""
"547.7999999523163","","image-keyboard-response","98","139056","0.0-27.0","3AAPLD8UCD3N50KYUPZDFVQVC9OTHI","A3LA5P3N3KI8U7","3DFYDSXB2WMWAZWJRSN67LWQ0PPJUT","","img/set1/S1.jpg","72","1","random","83","false","random,structured_normal,structured_incentive","2,3,1,2","",""
"null","","html-keyboard-response","99","139408","0.0-28.0","3AAPLD8UCD3N50KYUPZDFVQVC9OTHI","A3LA5P3N3KI8U7","3DFYDSXB2WMWAZWJRSN67LWQ0PPJUT","","<img src=""img/set1/S1.jpg"" width=""540"" height = ""360"">","null","","","","","","","",""
"null","","html-keyboard-response","100","139410","0.0-29.0","3AAPLD8UCD3N50KYUPZDFVQVC9OTHI","A3LA5P3N3KI8U7","3DFYDSXB2WMWAZWJRSN67LWQ0PPJUT","","","null","","","","","","","",""
"74.09999990463257","","image-keyboard-response","101","139485","0.0-30.0","3AAPLD8UCD3N50KYUPZDFVQVC9OTHI","A3LA5P3N3KI8U7","3DFYDSXB2WMWAZWJRSN67LWQ0PPJUT","","img/set1/S4.jpg","83","4","random","74","false","random,structured_normal,structured_incentive","2,3,1,2","",""
"null","","html-keyboard-response","102","139837","0.0-31.0","3AAPLD8UCD3N50KYUPZDFVQVC9OTHI","A3LA5P3N3KI8U7","3DFYDSXB2WMWAZWJRSN67LWQ0PPJUT","","<img src=""img/set1/S4.jpg"" width=""540"" height = ""360"">","null","","","","","","","",""
"null","","html-keyboard-response","103","139839","0.0-32.0","3AAPLD8UCD3N50KYUPZDFVQVC9OTHI","A3LA5P3N3KI8U7","3DFYDSXB2WMWAZWJRSN67LWQ0PPJUT","","","null","","","","","","","",""
"1938.7000000476837","","image-keyboard-response","104","141778","0.0-33.0","3AAPLD8UCD3N50KYUPZDFVQVC9OTHI","A3LA5P3N3KI8U7","3DFYDSXB2WMWAZWJRSN67LWQ0PPJUT","","img/set1/S4.jpg","72","4","random","74","false","random,structured_normal,structured_incentive","2,3,1,2","",""
"null","","html-keyboard-response","105","142130","0.0-34.0","3AAPLD8UCD3N50KYUPZDFVQVC9OTHI","A3LA5P3N3KI8U7","3DFYDSXB2WMWAZWJRSN67LWQ0PPJUT","","<img src=""img/set1/S4.jpg"" width=""540"" height = ""360"">","null","","","","","","","",""
"null","","html-keyboard-response","106","142132","0.0-35.0","3AAPLD8UCD3N50KYUPZDFVQVC9OTHI","A3LA5P3N3KI8U7","3DFYDSXB2WMWAZWJRSN67LWQ0PPJUT","","","null","","","","","","","",""
"406.09999990463257","","image-keyboard-response","107","142539","0.0-36.0","3AAPLD8UCD3N50KYUPZDFVQVC9OTHI","A3LA5P3N3KI8U7","3DFYDSXB2WMWAZWJRSN67LWQ0PPJUT","","img/set1/S4.jpg","74","4","random","74","true","random,structured_normal,structured_incentive","2,3,1,2","",""
"null","","html-keyboard-response","108","142891","0.0-37.0","3AAPLD8UCD3N50KYUPZDFVQVC9OTHI","A3LA5P3N3KI8U7","3DFYDSXB2WMWAZWJRSN67LWQ0PPJUT","","<img src=""img/set1/S4.jpg"" width=""540"" height = ""360"" style=""border:16px solid orange"">","null","","","","","","","",""
"null","","html-keyboard-response","109","142893","0.0-38.0","3AAPLD8UCD3N50KYUPZDFVQVC9OTHI","A3LA5P3N3KI8U7","3DFYDSXB2WMWAZWJRSN67LWQ0PPJUT","","","null","","","","","","","",""
"1223.5","","image-keyboard-response","110","144117","0.0-39.0","3AAPLD8UCD3N50KYUPZDFVQVC9OTHI","A3LA5P3N3KI8U7","3DFYDSXB2WMWAZWJRSN67LWQ0PPJUT","","img/set1/S1.jpg","83","1","random","83","true","random,structured_normal,structured_incentive","2,3,1,2","",""
"null","","html-keyboard-response","111","144469","0.0-40.0","3AAPLD8UCD3N50KYUPZDFVQVC9OTHI","A3LA5P3N3KI8U7","3DFYDSXB2WMWAZWJRSN67LWQ0PPJUT","","<img src=""img/set1/S1.jpg"" width=""540"" height = ""360"" style=""border:16px solid orange"">","null","","","","","","","",""
"null","","html-keyboard-response","112","144471","0.0-41.0","3AAPLD8UCD3N50KYUPZDFVQVC9OTHI","A3LA5P3N3KI8U7","3DFYDSXB2WMWAZWJRSN67LWQ0PPJUT","","","null","","","","","","","",""
"777.7000000476837","","image-keyboard-response","113","145249","0.0-42.0","3AAPLD8UCD3N50KYUPZDFVQVC9OTHI","A3LA5P3N3KI8U7","3DFYDSXB2WMWAZWJRSN67LWQ0PPJUT","","img/set1/S2.jpg","68","2","random","68","true","random,structured_normal,structured_incentive","2,3,1,2","",""
"null","","html-keyboard-response","114","145601","0.0-43.0","3AAPLD8UCD3N50KYUPZDFVQVC9OTHI","A3LA5P3N3KI8U7","3DFYDSXB2WMWAZWJRSN67LWQ0PPJUT","","<img src=""img/set1/S2.jpg"" width=""540"" height = ""360"" style=""border:16px solid orange"">","null","","","","","","","",""
"null","","html-keyboard-response","115","145604","0.0-44.0","3AAPLD8UCD3N50KYUPZDFVQVC9OTHI","A3LA5P3N3KI8U7","3DFYDSXB2WMWAZWJRSN67LWQ0PPJUT","","","null","","","","","","","",""
"811.5","","image-keyboard-response","116","146417","0.0-45.0","3AAPLD8UCD3N50KYUPZDFVQVC9OTHI","A3LA5P3N3KI8U7","3DFYDSXB2WMWAZWJRSN67LWQ0PPJUT","","img/set1/S4.jpg","74","4","random","74","true","random,structured_normal,structured_incentive","2,3,1,2","",""
"null","","html-keyboard-response","117","146768","0.0-46.0","3AAPLD8UCD3N50KYUPZDFVQVC9OTHI","A3LA5P3N3KI8U7","3DFYDSXB2WMWAZWJRSN67LWQ0PPJUT","","<img src=""img/set1/S4.jpg"" width=""540"" height = ""360"" style=""border:16px solid orange"">","null","","","","","","","",""
"null","","html-keyboard-response","118","146770","0.0-47.0","3AAPLD8UCD3N50KYUPZDFVQVC9OTHI","A3LA5P3N3KI8U7","3DFYDSXB2WMWAZWJRSN67LWQ0PPJUT","","","null","","","","","","","",""
"1716.5","","image-keyboard-response","119","148487","0.0-48.0","3AAPLD8UCD3N50KYUPZDFVQVC9OTHI","A3LA5P3N3KI8U7","3DFYDSXB2WMWAZWJRSN67LWQ0PPJUT","","img/set1/S2.jpg","68","2","random","68","true","random,structured_normal,structured_incentive","2,3,1,2","",""
"null","","html-keyboard-response","120","148839","0.0-49.0","3AAPLD8UCD3N50KYUPZDFVQVC9OTHI","A3LA5P3N3KI8U7","3DFYDSXB2WMWAZWJRSN67LWQ0PPJUT","","<img src=""img/set1/S2.jpg"" width=""540"" height = ""360"" style=""border:16px solid orange"">","null","","","","","","","",""
"null","","html-keyboard-response","121","148841","0.0-50.0","3AAPLD8UCD3N50KYUPZDFVQVC9OTHI","A3LA5P3N3KI8U7","3DFYDSXB2WMWAZWJRSN67LWQ0PPJUT","","","null","","","","","","","",""
"1688.5","","image-keyboard-response","122","150530","0.0-51.0","3AAPLD8UCD3N50KYUPZDFVQVC9OTHI","A3LA5P3N3KI8U7","3DFYDSXB2WMWAZWJRSN67LWQ0PPJUT","","img/set1/S4.jpg","72","4","random","74","false","random,structured_normal,structured_incentive","2,3,1,2","",""
"null","","html-keyboard-response","123","150882","0.0-52.0","3AAPLD8UCD3N50KYUPZDFVQVC9OTHI","A3LA5P3N3KI8U7","3DFYDSXB2WMWAZWJRSN67LWQ0PPJUT","","<img src=""img/set1/S4.jpg"" width=""540"" height = ""360"">","null","","","","","","","",""
"null","","html-keyboard-response","124","150885","0.0-53.0","3AAPLD8UCD3N50KYUPZDFVQVC9OTHI","A3LA5P3N3KI8U7","3DFYDSXB2WMWAZWJRSN67LWQ0PPJUT","","","null","","","","","","","",""
"920.2000000476837","","image-keyboard-response","125","151806","0.0-54.0","3AAPLD8UCD3N50KYUPZDFVQVC9OTHI","A3LA5P3N3KI8U7","3DFYDSXB2WMWAZWJRSN67LWQ0PPJUT","","img/set1/S2.jpg","68","2","random","68","true","random,structured_normal,structured_incentive","2,3,1,2","",""
"null","","html-keyboard-response","126","152157","0.0-55.0","3AAPLD8UCD3N50KYUPZDFVQVC9OTHI","A3LA5P3N3KI8U7","3DFYDSXB2WMWAZWJRSN67LWQ0PPJUT","","<img src=""img/set1/S2.jpg"" width=""540"" height = ""360"" style=""border:16px solid orange"">","null","","","","","","","",""
"null","","html-keyboard-response","127","152159","0.0-56.0","3AAPLD8UCD3N50KYUPZDFVQVC9OTHI","A3LA5P3N3KI8U7","3DFYDSXB2WMWAZWJRSN67LWQ0PPJUT","","","null","","","","","","","",""
"null","","image-keyboard-response","128","154660","0.0-57.0","3AAPLD8UCD3N50KYUPZDFVQVC9OTHI","A3LA5P3N3KI8U7","3DFYDSXB2WMWAZWJRSN67LWQ0PPJUT","","img/set1/S3.jpg","null","3","random","72","false","random,structured_normal,structured_incentive","2,3,1,2","",""
"null","","html-keyboard-response","129","155012","0.0-58.0","3AAPLD8UCD3N50KYUPZDFVQVC9OTHI","A3LA5P3N3KI8U7","3DFYDSXB2WMWAZWJRSN67LWQ0PPJUT","","<img src=""img/set1/S3.jpg"" width=""540"" height = ""360"">","null","","","","","","","",""
"null","","html-keyboard-response","130","155017","0.0-59.0","3AAPLD8UCD3N50KYUPZDFVQVC9OTHI","A3LA5P3N3KI8U7","3DFYDSXB2WMWAZWJRSN67LWQ0PPJUT","","","null","","","","","","","",""
"1017.2999999523163","","image-keyboard-response","131","156035","0.0-60.0","3AAPLD8UCD3N50KYUPZDFVQVC9OTHI","A3LA5P3N3KI8U7","3DFYDSXB2WMWAZWJRSN67LWQ0PPJUT","","img/set1/S2.jpg","68","2","random","68","true","random,structured_normal,structured_incentive","2,3,1,2","",""
"null","","html-keyboard-response","132","156387","0.0-61.0","3AAPLD8UCD3N50KYUPZDFVQVC9OTHI","A3LA5P3N3KI8U7","3DFYDSXB2WMWAZWJRSN67LWQ0PPJUT","","<img src=""img/set1/S2.jpg"" width=""540"" height = ""360"" style=""border:16px solid orange"">","null","","","","","","","",""
"null","","html-keyboard-response","133","156389","0.0-62.0","3AAPLD8UCD3N50KYUPZDFVQVC9OTHI","A3LA5P3N3KI8U7","3DFYDSXB2WMWAZWJRSN67LWQ0PPJUT","","","null","","","","","","","",""
"748.7000000476837","","image-keyboard-response","134","157138","0.0-63.0","3AAPLD8UCD3N50KYUPZDFVQVC9OTHI","A3LA5P3N3KI8U7","3DFYDSXB2WMWAZWJRSN67LWQ0PPJUT","","img/set1/S3.jpg","74","3","random","72","false","random,structured_normal,structured_incentive","2,3,1,2","",""
"null","","html-keyboard-response","135","157490","0.0-64.0","3AAPLD8UCD3N50KYUPZDFVQVC9OTHI","A3LA5P3N3KI8U7","3DFYDSXB2WMWAZWJRSN67LWQ0PPJUT","","<img src=""img/set1/S3.jpg"" width=""540"" height = ""360"">","null","","","","","","","",""
"null","","html-keyboard-response","136","157492","0.0-65.0","3AAPLD8UCD3N50KYUPZDFVQVC9OTHI","A3LA5P3N3KI8U7","3DFYDSXB2WMWAZWJRSN67LWQ0PPJUT","","","null","","","","","","","",""
"655.7000000476837","","image-keyboard-response","137","158149","0.0-66.0","3AAPLD8UCD3N50KYUPZDFVQVC9OTHI","A3LA5P3N3KI8U7","3DFYDSXB2WMWAZWJRSN67LWQ0PPJUT","","img/set1/S2.jpg","68","2","random","68","true","random,structured_normal,structured_incentive","2,3,1,2","",""
"null","","html-keyboard-response","138","158500","0.0-67.0","3AAPLD8UCD3N50KYUPZDFVQVC9OTHI","A3LA5P3N3KI8U7","3DFYDSXB2WMWAZWJRSN67LWQ0PPJUT","","<img src=""img/set1/S2.jpg"" width=""540"" height = ""360"" style=""border:16px solid orange"">","null","","","","","","","",""
"null","","html-keyboard-response","139","158502","0.0-68.0","3AAPLD8UCD3N50KYUPZDFVQVC9OTHI","A3LA5P3N3KI8U7","3DFYDSXB2WMWAZWJRSN67LWQ0PPJUT","","","null","","","","","","","",""
"544.7999999523163","","image-keyboard-response","140","159048","0.0-69.0","3AAPLD8UCD3N50KYUPZDFVQVC9OTHI","A3LA5P3N3KI8U7","3DFYDSXB2WMWAZWJRSN67LWQ0PPJUT","","img/set1/S2.jpg","68","2","random","68","true","random,structured_normal,structured_incentive","2,3,1,2","",""
"null","","html-keyboard-response","141","159400","0.0-70.0","3AAPLD8UCD3N50KYUPZDFVQVC9OTHI","A3LA5P3N3KI8U7","3DFYDSXB2WMWAZWJRSN67LWQ0PPJUT","","<img src=""img/set1/S2.jpg"" width=""540"" height = ""360"" style=""border:16px solid orange"">","null","","","","","","","",""
"null","","html-keyboard-response","142","159402","0.0-71.0","3AAPLD8UCD3N50KYUPZDFVQVC9OTHI","A3LA5P3N3KI8U7","3DFYDSXB2WMWAZWJRSN67LWQ0PPJUT","","","null","","","","","","","",""
"413.10000014305115","","image-keyboard-response","143","159816","0.0-72.0","3AAPLD8UCD3N50KYUPZDFVQVC9OTHI","A3LA5P3N3KI8U7","3DFYDSXB2WMWAZWJRSN67LWQ0PPJUT","","img/set1/S2.jpg","68","2","random","68","true","random,structured_normal,structured_incentive","2,3,1,2","",""
"null","","html-keyboard-response","144","160168","0.0-73.0","3AAPLD8UCD3N50KYUPZDFVQVC9OTHI","A3LA5P3N3KI8U7","3DFYDSXB2WMWAZWJRSN67LWQ0PPJUT","","<img src=""img/set1/S2.jpg"" width=""540"" height = ""360"" style=""border:16px solid orange"">","null","","","","","","","",""
"null","","html-keyboard-response","145","160171","0.0-74.0","3AAPLD8UCD3N50KYUPZDFVQVC9OTHI","A3LA5P3N3KI8U7","3DFYDSXB2WMWAZWJRSN67LWQ0PPJUT","","","null","","","","","","","",""
"1262.5","","image-keyboard-response","146","161434","0.0-75.0","3AAPLD8UCD3N50KYUPZDFVQVC9OTHI","A3LA5P3N3KI8U7","3DFYDSXB2WMWAZWJRSN67LWQ0PPJUT","","img/set1/S4.jpg","72","4","random","74","false","random,structured_normal,structured_incentive","2,3,1,2","",""
"null","","html-keyboard-response","147","161786","0.0-76.0","3AAPLD8UCD3N50KYUPZDFVQVC9OTHI","A3LA5P3N3KI8U7","3DFYDSXB2WMWAZWJRSN67LWQ0PPJUT","","<img src=""img/set1/S4.jpg"" width=""540"" height = ""360"">","null","","","","","","","",""
"null","","html-keyboard-response","148","161788","0.0-77.0","3AAPLD8UCD3N50KYUPZDFVQVC9OTHI","A3LA5P3N3KI8U7","3DFYDSXB2WMWAZWJRSN67LWQ0PPJUT","","","null","","","","","","","",""
"936.8999998569489","","image-keyboard-response","149","162726","0.0-78.0","3AAPLD8UCD3N50KYUPZDFVQVC9OTHI","A3LA5P3N3KI8U7","3DFYDSXB2WMWAZWJRSN67LWQ0PPJUT","","img/set1/S2.jpg","68","2","random","68","true","random,structured_normal,structured_incentive","2,3,1,2","",""
"null","","html-keyboard-response","150","163078","0.0-79.0","3AAPLD8UCD3N50KYUPZDFVQVC9OTHI","A3LA5P3N3KI8U7","3DFYDSXB2WMWAZWJRSN67LWQ0PPJUT","","<img src=""img/set1/S2.jpg"" width=""540"" height = ""360"" style=""border:16px solid orange"">","null","","","","","","","",""
"null","","html-keyboard-response","151","163080","0.0-80.0","3AAPLD8UCD3N50KYUPZDFVQVC9OTHI","A3LA5P3N3KI8U7","3DFYDSXB2WMWAZWJRSN67LWQ0PPJUT","","","null","","","","","","","",""
"987","","image-keyboard-response","152","164068","0.0-81.0","3AAPLD8UCD3N50KYUPZDFVQVC9OTHI","A3LA5P3N3KI8U7","3DFYDSXB2WMWAZWJRSN67LWQ0PPJUT","","img/set1/S4.jpg","83","4","random","74","false","random,structured_normal,structured_incentive","2,3,1,2","",""
"null","","html-keyboard-response","153","164419","0.0-82.0","3AAPLD8UCD3N50KYUPZDFVQVC9OTHI","A3LA5P3N3KI8U7","3DFYDSXB2WMWAZWJRSN67LWQ0PPJUT","","<img src=""img/set1/S4.jpg"" width=""540"" height = ""360"">","null","","","","","","","",""
"null","","html-keyboard-response","154","164422","0.0-83.0","3AAPLD8UCD3N50KYUPZDFVQVC9OTHI","A3LA5P3N3KI8U7","3DFYDSXB2WMWAZWJRSN67LWQ0PPJUT","","","null","","","","","","","",""
"1662.7000000476837","","image-keyboard-response","155","166085","0.0-84.0","3AAPLD8UCD3N50KYUPZDFVQVC9OTHI","A3LA5P3N3KI8U7","3DFYDSXB2WMWAZWJRSN67LWQ0PPJUT","","img/set1/S3.jpg","83","3","random","72","false","random,structured_normal,structured_incentive","2,3,1,2","",""
"null","","html-keyboard-response","156","166437","0.0-85.0","3AAPLD8UCD3N50KYUPZDFVQVC9OTHI","A3LA5P3N3KI8U7","3DFYDSXB2WMWAZWJRSN67LWQ0PPJUT","","<img src=""img/set1/S3.jpg"" width=""540"" height = ""360"">","null","","","","","","","",""
"null","","html-keyboard-response","157","166440","0.0-86.0","3AAPLD8UCD3N50KYUPZDFVQVC9OTHI","A3LA5P3N3KI8U7","3DFYDSXB2WMWAZWJRSN67LWQ0PPJUT","","","null","","","","","","","",""
"771.6999998092651","","image-keyboard-response","158","167213","0.0-87.0","3AAPLD8UCD3N50KYUPZDFVQVC9OTHI","A3LA5P3N3KI8U7","3DFYDSXB2WMWAZWJRSN67LWQ0PPJUT","","img/set1/S2.jpg","68","2","random","68","true","random,structured_normal,structured_incentive","2,3,1,2","",""
"null","","html-keyboard-response","159","167565","0.0-88.0","3AAPLD8UCD3N50KYUPZDFVQVC9OTHI","A3LA5P3N3KI8U7","3DFYDSXB2WMWAZWJRSN67LWQ0PPJUT","","<img src=""img/set1/S2.jpg"" width=""540"" height = ""360"" style=""border:16px solid orange"">","null","","","","","","","",""
"null","","html-keyboard-response","160","167567","0.0-89.0","3AAPLD8UCD3N50KYUPZDFVQVC9OTHI","A3LA5P3N3KI8U7","3DFYDSXB2WMWAZWJRSN67LWQ0PPJUT","","","null","","","","","","","",""
"373.40000009536743","","image-keyboard-response","161","167941","0.0-90.0","3AAPLD8UCD3N50KYUPZDFVQVC9OTHI","A3LA5P3N3KI8U7","3DFYDSXB2WMWAZWJRSN67LWQ0PPJUT","","img/set1/S2.jpg","68","2","random","68","true","random,structured_normal,structured_incentive","2,3,1,2","",""
"null","","html-keyboard-response","162","168293","0.0-91.0","3AAPLD8UCD3N50KYUPZDFVQVC9OTHI","A3LA5P3N3KI8U7","3DFYDSXB2WMWAZWJRSN67LWQ0PPJUT","","<img src=""img/set1/S2.jpg"" width=""540"" height = ""360"" style=""border:16px solid orange"">","null","","","","","","","",""
"null","","html-keyboard-response","163","168295","0.0-92.0","3AAPLD8UCD3N50KYUPZDFVQVC9OTHI","A3LA5P3N3KI8U7","3DFYDSXB2WMWAZWJRSN67LWQ0PPJUT","","","null","","","","","","","",""
"378.59999990463257","","image-keyboard-response","164","168674","0.0-93.0","3AAPLD8UCD3N50KYUPZDFVQVC9OTHI","A3LA5P3N3KI8U7","3DFYDSXB2WMWAZWJRSN67LWQ0PPJUT","","img/set1/S2.jpg","68","2","random","68","true","random,structured_normal,structured_incentive","2,3,1,2","",""
"null","","html-keyboard-response","165","169026","0.0-94.0","3AAPLD8UCD3N50KYUPZDFVQVC9OTHI","A3LA5P3N3KI8U7","3DFYDSXB2WMWAZWJRSN67LWQ0PPJUT","","<img src=""img/set1/S2.jpg"" width=""540"" height = ""360"" style=""border:16px solid orange"">","null","","","","","","","",""
"null","","html-keyboard-response","166","169028","0.0-95.0","3AAPLD8UCD3N50KYUPZDFVQVC9OTHI","A3LA5P3N3KI8U7","3DFYDSXB2WMWAZWJRSN67LWQ0PPJUT","","","null","","","","","","","",""
"648.0999999046326","","image-keyboard-response","167","169677","0.0-96.0","3AAPLD8UCD3N50KYUPZDFVQVC9OTHI","A3LA5P3N3KI8U7","3DFYDSXB2WMWAZWJRSN67LWQ0PPJUT","","img/set1/S4.jpg","72","4","random","74","false","random,structured_normal,structured_incentive","2,3,1,2","",""
"null","","html-keyboard-response","168","170029","0.0-97.0","3AAPLD8UCD3N50KYUPZDFVQVC9OTHI","A3LA5P3N3KI8U7","3DFYDSXB2WMWAZWJRSN67LWQ0PPJUT","","<img src=""img/set1/S4.jpg"" width=""540"" height = ""360"">","null","","","","","","","",""
"null","","html-keyboard-response","169","170031","0.0-98.0","3AAPLD8UCD3N50KYUPZDFVQVC9OTHI","A3LA5P3N3KI8U7","3DFYDSXB2WMWAZWJRSN67LWQ0PPJUT","","","null","","","","","","","",""
"1549.8999998569489","","image-keyboard-response","170","171582","0.0-99.0","3AAPLD8UCD3N50KYUPZDFVQVC9OTHI","A3LA5P3N3KI8U7","3DFYDSXB2WMWAZWJRSN67LWQ0PPJUT","","img/set1/S3.jpg","74","3","random","72","false","random,structured_normal,structured_incentive","2,3,1,2","",""
"null","","html-keyboard-response","171","171933","0.0-100.0","3AAPLD8UCD3N50KYUPZDFVQVC9OTHI","A3LA5P3N3KI8U7","3DFYDSXB2WMWAZWJRSN67LWQ0PPJUT","","<img src=""img/set1/S3.jpg"" width=""540"" height = ""360"">","null","","","","","","","",""
"null","","html-keyboard-response","172","171936","0.0-101.0","3AAPLD8UCD3N50KYUPZDFVQVC9OTHI","A3LA5P3N3KI8U7","3DFYDSXB2WMWAZWJRSN67LWQ0PPJUT","","","null","","","","","","","",""
"877.6000001430511","","image-keyboard-response","173","172814","0.0-102.0","3AAPLD8UCD3N50KYUPZDFVQVC9OTHI","A3LA5P3N3KI8U7","3DFYDSXB2WMWAZWJRSN67LWQ0PPJUT","","img/set1/S3.jpg","72","3","random","72","true","random,structured_normal,structured_incentive","2,3,1,2","",""
"null","","html-keyboard-response","174","173166","0.0-103.0","3AAPLD8UCD3N50KYUPZDFVQVC9OTHI","A3LA5P3N3KI8U7","3DFYDSXB2WMWAZWJRSN67LWQ0PPJUT","","<img src=""img/set1/S3.jpg"" width=""540"" height = ""360"" style=""border:16px solid orange"">","null","","","","","","","",""
"null","","html-keyboard-response","175","173169","0.0-104.0","3AAPLD8UCD3N50KYUPZDFVQVC9OTHI","A3LA5P3N3KI8U7","3DFYDSXB2WMWAZWJRSN67LWQ0PPJUT","","","null","","","","","","","",""
"null","","image-keyboard-response","176","175670","0.0-105.0","3AAPLD8UCD3N50KYUPZDFVQVC9OTHI","A3LA5P3N3KI8U7","3DFYDSXB2WMWAZWJRSN67LWQ0PPJUT","","img/set1/S4.jpg","null","4","random","74","false","random,structured_normal,structured_incentive","2,3,1,2","",""
"null","","html-keyboard-response","177","176021","0.0-106.0","3AAPLD8UCD3N50KYUPZDFVQVC9OTHI","A3LA5P3N3KI8U7","3DFYDSXB2WMWAZWJRSN67LWQ0PPJUT","","<img src=""img/set1/S4.jpg"" width=""540"" height = ""360"">","null","","","","","","","",""
"null","","html-keyboard-response","178","176026","0.0-107.0","3AAPLD8UCD3N50KYUPZDFVQVC9OTHI","A3LA5P3N3KI8U7","3DFYDSXB2WMWAZWJRSN67LWQ0PPJUT","","","null","","","","","","","",""
"718.2000000476837","","image-keyboard-response","179","176745","0.0-108.0","3AAPLD8UCD3N50KYUPZDFVQVC9OTHI","A3LA5P3N3KI8U7","3DFYDSXB2WMWAZWJRSN67LWQ0PPJUT","","img/set1/S3.jpg","72","3","random","72","true","random,structured_normal,structured_incentive","2,3,1,2","",""
"null","","html-keyboard-response","180","177097","0.0-109.0","3AAPLD8UCD3N50KYUPZDFVQVC9OTHI","A3LA5P3N3KI8U7","3DFYDSXB2WMWAZWJRSN67LWQ0PPJUT","","<img src=""img/set1/S3.jpg"" width=""540"" height = ""360"" style=""border:16px solid orange"">","null","","","","","","","",""
"null","","html-keyboard-response","181","177100","0.0-110.0","3AAPLD8UCD3N50KYUPZDFVQVC9OTHI","A3LA5P3N3KI8U7","3DFYDSXB2WMWAZWJRSN67LWQ0PPJUT","","","null","","","","","","","",""
"1321.0999999046326","","image-keyboard-response","182","178422","0.0-111.0","3AAPLD8UCD3N50KYUPZDFVQVC9OTHI","A3LA5P3N3KI8U7","3DFYDSXB2WMWAZWJRSN67LWQ0PPJUT","","img/set1/S4.jpg","83","4","random","74","false","random,structured_normal,structured_incentive","2,3,1,2","",""
"null","","html-keyboard-response","183","178774","0.0-112.0","3AAPLD8UCD3N50KYUPZDFVQVC9OTHI","A3LA5P3N3KI8U7","3DFYDSXB2WMWAZWJRSN67LWQ0PPJUT","","<img src=""img/set1/S4.jpg"" width=""540"" height = ""360"">","null","","","","","","","",""
"null","","html-keyboard-response","184","178776","0.0-113.0","3AAPLD8UCD3N50KYUPZDFVQVC9OTHI","A3LA5P3N3KI8U7","3DFYDSXB2WMWAZWJRSN67LWQ0PPJUT","","","null","","","","","","","",""
"1359.5","","image-keyboard-response","185","180136","0.0-114.0","3AAPLD8UCD3N50KYUPZDFVQVC9OTHI","A3LA5P3N3KI8U7","3DFYDSXB2WMWAZWJRSN67LWQ0PPJUT","","img/set1/S1.jpg","83","1","random","83","true","random,structured_normal,structured_incentive","2,3,1,2","",""
"null","","html-keyboard-response","186","180488","0.0-115.0","3AAPLD8UCD3N50KYUPZDFVQVC9OTHI","A3LA5P3N3KI8U7","3DFYDSXB2WMWAZWJRSN67LWQ0PPJUT","","<img src=""img/set1/S1.jpg"" width=""540"" height = ""360"" style=""border:16px solid orange"">","null","","","","","","","",""
"null","","html-keyboard-response","187","180490","0.0-116.0","3AAPLD8UCD3N50KYUPZDFVQVC9OTHI","A3LA5P3N3KI8U7","3DFYDSXB2WMWAZWJRSN67LWQ0PPJUT","","","null","","","","","","","",""
"727.4000000953674","","image-keyboard-response","188","181218","0.0-117.0","3AAPLD8UCD3N50KYUPZDFVQVC9OTHI","A3LA5P3N3KI8U7","3DFYDSXB2WMWAZWJRSN67LWQ0PPJUT","","img/set1/S4.jpg","68","4","random","74","false","random,structured_normal,structured_incentive","2,3,1,2","",""
"null","","html-keyboard-response","189","181570","0.0-118.0","3AAPLD8UCD3N50KYUPZDFVQVC9OTHI","A3LA5P3N3KI8U7","3DFYDSXB2WMWAZWJRSN67LWQ0PPJUT","","<img src=""img/set1/S4.jpg"" width=""540"" height = ""360"">","null","","","","","","","",""
"null","","html-keyboard-response","190","181573","0.0-119.0","3AAPLD8UCD3N50KYUPZDFVQVC9OTHI","A3LA5P3N3KI8U7","3DFYDSXB2WMWAZWJRSN67LWQ0PPJUT","","","null","","","","","","","",""
"781.2000000476837","","image-keyboard-response","191","182356","0.0-120.0","3AAPLD8UCD3N50KYUPZDFVQVC9OTHI","A3LA5P3N3KI8U7","3DFYDSXB2WMWAZWJRSN67LWQ0PPJUT","","img/set1/S4.jpg","72","4","random","74","false","random,structured_normal,structured_incentive","2,3,1,2","",""
"null","","html-keyboard-response","192","182711","0.0-121.0","3AAPLD8UCD3N50KYUPZDFVQVC9OTHI","A3LA5P3N3KI8U7","3DFYDSXB2WMWAZWJRSN67LWQ0PPJUT","","<img src=""img/set1/S4.jpg"" width=""540"" height = ""360"">","null","","","","","","","",""
"null","","html-keyboard-response","193","182713","0.0-122.0","3AAPLD8UCD3N50KYUPZDFVQVC9OTHI","A3LA5P3N3KI8U7","3DFYDSXB2WMWAZWJRSN67LWQ0PPJUT","","","null","","","","","","","",""
"1805.2000000476837","","image-keyboard-response","194","184519","0.0-123.0","3AAPLD8UCD3N50KYUPZDFVQVC9OTHI","A3LA5P3N3KI8U7","3DFYDSXB2WMWAZWJRSN67LWQ0PPJUT","","img/set1/S1.jpg","83","1","random","83","true","random,structured_normal,structured_incentive","2,3,1,2","",""
"null","","html-keyboard-response","195","184871","0.0-124.0","3AAPLD8UCD3N50KYUPZDFVQVC9OTHI","A3LA5P3N3KI8U7","3DFYDSXB2WMWAZWJRSN67LWQ0PPJUT","","<img src=""img/set1/S1.jpg"" width=""540"" height = ""360"" style=""border:16px solid orange"">","null","","","","","","","",""
"null","","html-keyboard-response","196","184873","0.0-125.0","3AAPLD8UCD3N50KYUPZDFVQVC9OTHI","A3LA5P3N3KI8U7","3DFYDSXB2WMWAZWJRSN67LWQ0PPJUT","","","null","","","","","","","",""
"1470.9000000953674","","image-keyboard-response","197","186344","0.0-126.0","3AAPLD8UCD3N50KYUPZDFVQVC9OTHI","A3LA5P3N3KI8U7","3DFYDSXB2WMWAZWJRSN67LWQ0PPJUT","","img/set1/S3.jpg","72","3","random","72","true","random,structured_normal,structured_incentive","2,3,1,2","",""
"null","","html-keyboard-response","198","186697","0.0-127.0","3AAPLD8UCD3N50KYUPZDFVQVC9OTHI","A3LA5P3N3KI8U7","3DFYDSXB2WMWAZWJRSN67LWQ0PPJUT","","<img src=""img/set1/S3.jpg"" width=""540"" height = ""360"" style=""border:16px solid orange"">","null","","","","","","","",""
"null","","html-keyboard-response","199","186699","0.0-128.0","3AAPLD8UCD3N50KYUPZDFVQVC9OTHI","A3LA5P3N3KI8U7","3DFYDSXB2WMWAZWJRSN67LWQ0PPJUT","","","null","","","","","","","",""
"1361.5999999046326","","image-keyboard-response","200","188062","0.0-129.0","3AAPLD8UCD3N50KYUPZDFVQVC9OTHI","A3LA5P3N3KI8U7","3DFYDSXB2WMWAZWJRSN67LWQ0PPJUT","","img/set1/S4.jpg","72","4","random","74","false","random,structured_normal,structured_incentive","2,3,1,2","",""
"null","","html-keyboard-response","201","188413","0.0-130.0","3AAPLD8UCD3N50KYUPZDFVQVC9OTHI","A3LA5P3N3KI8U7","3DFYDSXB2WMWAZWJRSN67LWQ0PPJUT","","<img src=""img/set1/S4.jpg"" width=""540"" height = ""360"">","null","","","","","","","",""
"null","","html-keyboard-response","202","188416","0.0-131.0","3AAPLD8UCD3N50KYUPZDFVQVC9OTHI","A3LA5P3N3KI8U7","3DFYDSXB2WMWAZWJRSN67LWQ0PPJUT","","","null","","","","","","","",""
"859.0999999046326","","image-keyboard-response","203","189276","0.0-132.0","3AAPLD8UCD3N50KYUPZDFVQVC9OTHI","A3LA5P3N3KI8U7","3DFYDSXB2WMWAZWJRSN67LWQ0PPJUT","","img/set1/S1.jpg","68","1","random","83","false","random,structured_normal,structured_incentive","2,3,1,2","",""
"null","","html-keyboard-response","204","189627","0.0-133.0","3AAPLD8UCD3N50KYUPZDFVQVC9OTHI","A3LA5P3N3KI8U7","3DFYDSXB2WMWAZWJRSN67LWQ0PPJUT","","<img src=""img/set1/S1.jpg"" width=""540"" height = ""360"">","null","","","","","","","",""
"null","","html-keyboard-response","205","189629","0.0-134.0","3AAPLD8UCD3N50KYUPZDFVQVC9OTHI","A3LA5P3N3KI8U7","3DFYDSXB2WMWAZWJRSN67LWQ0PPJUT","","","null","","","","","","","",""
"1711.8999998569489","","image-keyboard-response","206","191342","0.0-135.0","3AAPLD8UCD3N50KYUPZDFVQVC9OTHI","A3LA5P3N3KI8U7","3DFYDSXB2WMWAZWJRSN67LWQ0PPJUT","","img/set1/S4.jpg","74","4","random","74","true","random,structured_normal,structured_incentive","2,3,1,2","",""
"null","","html-keyboard-response","207","191694","0.0-136.0","3AAPLD8UCD3N50KYUPZDFVQVC9OTHI","A3LA5P3N3KI8U7","3DFYDSXB2WMWAZWJRSN67LWQ0PPJUT","","<img src=""img/set1/S4.jpg"" width=""540"" height = ""360"" style=""border:16px solid orange"">","null","","","","","","","",""
"null","","html-keyboard-response","208","191696","0.0-137.0","3AAPLD8UCD3N50KYUPZDFVQVC9OTHI","A3LA5P3N3KI8U7","3DFYDSXB2WMWAZWJRSN67LWQ0PPJUT","","","null","","","","","","","",""
"540.5","","image-keyboard-response","209","192238","0.0-138.0","3AAPLD8UCD3N50KYUPZDFVQVC9OTHI","A3LA5P3N3KI8U7","3DFYDSXB2WMWAZWJRSN67LWQ0PPJUT","","img/set1/S4.jpg","74","4","random","74","true","random,structured_normal,structured_incentive","2,3,1,2","",""
"null","","html-keyboard-response","210","192590","0.0-139.0","3AAPLD8UCD3N50KYUPZDFVQVC9OTHI","A3LA5P3N3KI8U7","3DFYDSXB2WMWAZWJRSN67LWQ0PPJUT","","<img src=""img/set1/S4.jpg"" width=""540"" height = ""360"" style=""border:16px solid orange"">","null","","","","","","","",""
"null","","html-keyboard-response","211","192592","0.0-140.0","3AAPLD8UCD3N50KYUPZDFVQVC9OTHI","A3LA5P3N3KI8U7","3DFYDSXB2WMWAZWJRSN67LWQ0PPJUT","","","null","","","","","","","",""
"386.60000014305115","","image-keyboard-response","212","192980","0.0-141.0","3AAPLD8UCD3N50KYUPZDFVQVC9OTHI","A3LA5P3N3KI8U7","3DFYDSXB2WMWAZWJRSN67LWQ0PPJUT","","img/set1/S4.jpg","74","4","random","74","true","random,structured_normal,structured_incentive","2,3,1,2","",""
"null","","html-keyboard-response","213","193331","0.0-142.0","3AAPLD8UCD3N50KYUPZDFVQVC9OTHI","A3LA5P3N3KI8U7","3DFYDSXB2WMWAZWJRSN67LWQ0PPJUT","","<img src=""img/set1/S4.jpg"" width=""540"" height = ""360"" style=""border:16px solid orange"">","null","","","","","","","",""
"null","","html-keyboard-response","214","193333","0.0-143.0","3AAPLD8UCD3N50KYUPZDFVQVC9OTHI","A3LA5P3N3KI8U7","3DFYDSXB2WMWAZWJRSN67LWQ0PPJUT","","","null","","","","","","","",""
"1251.6000001430511","","image-keyboard-response","215","194585","0.0-144.0","3AAPLD8UCD3N50KYUPZDFVQVC9OTHI","A3LA5P3N3KI8U7","3DFYDSXB2WMWAZWJRSN67LWQ0PPJUT","","img/set1/S1.jpg","83","1","random","83","true","random,structured_normal,structured_incentive","2,3,1,2","",""
"null","","html-keyboard-response","216","194937","0.0-145.0","3AAPLD8UCD3N50KYUPZDFVQVC9OTHI","A3LA5P3N3KI8U7","3DFYDSXB2WMWAZWJRSN67LWQ0PPJUT","","<img src=""img/set1/S1.jpg"" width=""540"" height = ""360"" style=""border:16px solid orange"">","null","","","","","","","",""
"null","","html-keyboard-response","217","194939","0.0-146.0","3AAPLD8UCD3N50KYUPZDFVQVC9OTHI","A3LA5P3N3KI8U7","3DFYDSXB2WMWAZWJRSN67LWQ0PPJUT","","","null","","","","","","","",""
"595.7000000476837","","image-keyboard-response","218","195536","0.0-147.0","3AAPLD8UCD3N50KYUPZDFVQVC9OTHI","A3LA5P3N3KI8U7","3DFYDSXB2WMWAZWJRSN67LWQ0PPJUT","","img/set1/S4.jpg","74","4","random","74","true","random,structured_normal,structured_incentive","2,3,1,2","",""
"null","","html-keyboard-response","219","195887","0.0-148.0","3AAPLD8UCD3N50KYUPZDFVQVC9OTHI","A3LA5P3N3KI8U7","3DFYDSXB2WMWAZWJRSN67LWQ0PPJUT","","<img src=""img/set1/S4.jpg"" width=""540"" height = ""360"" style=""border:16px solid orange"">","null","","","","","","","",""
"null","","html-keyboard-response","220","195890","0.0-149.0","3AAPLD8UCD3N50KYUPZDFVQVC9OTHI","A3LA5P3N3KI8U7","3DFYDSXB2WMWAZWJRSN67LWQ0PPJUT","","","null","","","","","","","",""
"651.0999999046326","","image-keyboard-response","221","196542","0.0-150.0","3AAPLD8UCD3N50KYUPZDFVQVC9OTHI","A3LA5P3N3KI8U7","3DFYDSXB2WMWAZWJRSN67LWQ0PPJUT","","img/set1/S1.jpg","83","1","random","83","true","random,structured_normal,structured_incentive","2,3,1,2","",""
"null","","html-keyboard-response","222","196893","0.0-151.0","3AAPLD8UCD3N50KYUPZDFVQVC9OTHI","A3LA5P3N3KI8U7","3DFYDSXB2WMWAZWJRSN67LWQ0PPJUT","","<img src=""img/set1/S1.jpg"" width=""540"" height = ""360"" style=""border:16px solid orange"">","null","","","","","","","",""
"null","","html-keyboard-response","223","196896","0.0-152.0","3AAPLD8UCD3N50KYUPZDFVQVC9OTHI","A3LA5P3N3KI8U7","3DFYDSXB2WMWAZWJRSN67LWQ0PPJUT","","","null","","","","","","","",""
"1245","","image-keyboard-response","224","198142","0.0-153.0","3AAPLD8UCD3N50KYUPZDFVQVC9OTHI","A3LA5P3N3KI8U7","3DFYDSXB2WMWAZWJRSN67LWQ0PPJUT","","img/set1/S3.jpg","68","3","random","72","false","random,structured_normal,structured_incentive","2,3,1,2","",""
"null","","html-keyboard-response","225","198493","0.0-154.0","3AAPLD8UCD3N50KYUPZDFVQVC9OTHI","A3LA5P3N3KI8U7","3DFYDSXB2WMWAZWJRSN67LWQ0PPJUT","","<img src=""img/set1/S3.jpg"" width=""540"" height = ""360"">","null","","","","","","","",""
"null","","html-keyboard-response","226","198496","0.0-155.0","3AAPLD8UCD3N50KYUPZDFVQVC9OTHI","A3LA5P3N3KI8U7","3DFYDSXB2WMWAZWJRSN67LWQ0PPJUT","","","null","","","","","","","",""
"1520.8000001907349","","image-keyboard-response","227","200018","0.0-156.0","3AAPLD8UCD3N50KYUPZDFVQVC9OTHI","A3LA5P3N3KI8U7","3DFYDSXB2WMWAZWJRSN67LWQ0PPJUT","","img/set1/S4.jpg","74","4","random","74","true","random,structured_normal,structured_incentive","2,3,1,2","",""
"null","","html-keyboard-response","228","200369","0.0-157.0","3AAPLD8UCD3N50KYUPZDFVQVC9OTHI","A3LA5P3N3KI8U7","3DFYDSXB2WMWAZWJRSN67LWQ0PPJUT","","<img src=""img/set1/S4.jpg"" width=""540"" height = ""360"" style=""border:16px solid orange"">","null","","","","","","","",""
"null","","html-keyboard-response","229","200372","0.0-158.0","3AAPLD8UCD3N50KYUPZDFVQVC9OTHI","A3LA5P3N3KI8U7","3DFYDSXB2WMWAZWJRSN67LWQ0PPJUT","","","null","","","","","","","",""
"853.5","","image-keyboard-response","230","201226","0.0-159.0","3AAPLD8UCD3N50KYUPZDFVQVC9OTHI","A3LA5P3N3KI8U7","3DFYDSXB2WMWAZWJRSN67LWQ0PPJUT","","img/set1/S1.jpg","83","1","random","83","true","random,structured_normal,structured_incentive","2,3,1,2","",""
"null","","html-keyboard-response","231","201578","0.0-160.0","3AAPLD8UCD3N50KYUPZDFVQVC9OTHI","A3LA5P3N3KI8U7","3DFYDSXB2WMWAZWJRSN67LWQ0PPJUT","","<img src=""img/set1/S1.jpg"" width=""540"" height = ""360"" style=""border:16px solid orange"">","null","","","","","","","",""
"null","","html-keyboard-response","232","201580","0.0-161.0","3AAPLD8UCD3N50KYUPZDFVQVC9OTHI","A3LA5P3N3KI8U7","3DFYDSXB2WMWAZWJRSN67LWQ0PPJUT","","","null","","","","","","","",""
"766.8000001907349","","image-keyboard-response","233","202347","0.0-162.0","3AAPLD8UCD3N50KYUPZDFVQVC9OTHI","A3LA5P3N3KI8U7","3DFYDSXB2WMWAZWJRSN67LWQ0PPJUT","","img/set1/S4.jpg","74","4","random","74","true","random,structured_normal,structured_incentive","2,3,1,2","",""
"null","","html-keyboard-response","234","202699","0.0-163.0","3AAPLD8UCD3N50KYUPZDFVQVC9OTHI","A3LA5P3N3KI8U7","3DFYDSXB2WMWAZWJRSN67LWQ0PPJUT","","<img src=""img/set1/S4.jpg"" width=""540"" height = ""360"" style=""border:16px solid orange"">","null","","","","","","","",""
"null","","html-keyboard-response","235","202701","0.0-164.0","3AAPLD8UCD3N50KYUPZDFVQVC9OTHI","A3LA5P3N3KI8U7","3DFYDSXB2WMWAZWJRSN67LWQ0PPJUT","","","null","","","","","","","",""
"710.2000000476837","","image-keyboard-response","236","203412","0.0-165.0","3AAPLD8UCD3N50KYUPZDFVQVC9OTHI","A3LA5P3N3KI8U7","3DFYDSXB2WMWAZWJRSN67LWQ0PPJUT","","img/set1/S4.jpg","74","4","random","74","true","random,structured_normal,structured_incentive","2,3,1,2","",""
"null","","html-keyboard-response","237","203764","0.0-166.0","3AAPLD8UCD3N50KYUPZDFVQVC9OTHI","A3LA5P3N3KI8U7","3DFYDSXB2WMWAZWJRSN67LWQ0PPJUT","","<img src=""img/set1/S4.jpg"" width=""540"" height = ""360"" style=""border:16px solid orange"">","null","","","","","","","",""
"null","","html-keyboard-response","238","203766","0.0-167.0","3AAPLD8UCD3N50KYUPZDFVQVC9OTHI","A3LA5P3N3KI8U7","3DFYDSXB2WMWAZWJRSN67LWQ0PPJUT","","","null","","","","","","","",""
"419.90000009536743","","image-keyboard-response","239","204186","0.0-168.0","3AAPLD8UCD3N50KYUPZDFVQVC9OTHI","A3LA5P3N3KI8U7","3DFYDSXB2WMWAZWJRSN67LWQ0PPJUT","","img/set1/S4.jpg","74","4","random","74","true","random,structured_normal,structured_incentive","2,3,1,2","",""
"null","","html-keyboard-response","240","204538","0.0-169.0","3AAPLD8UCD3N50KYUPZDFVQVC9OTHI","A3LA5P3N3KI8U7","3DFYDSXB2WMWAZWJRSN67LWQ0PPJUT","","<img src=""img/set1/S4.jpg"" width=""540"" height = ""360"" style=""border:16px solid orange"">","null","","","","","","","",""
"null","","html-keyboard-response","241","204540","0.0-170.0","3AAPLD8UCD3N50KYUPZDFVQVC9OTHI","A3LA5P3N3KI8U7","3DFYDSXB2WMWAZWJRSN67LWQ0PPJUT","","","null","","","","","","","",""
"1014.0999999046326","","image-keyboard-response","242","205555","0.0-171.0","3AAPLD8UCD3N50KYUPZDFVQVC9OTHI","A3LA5P3N3KI8U7","3DFYDSXB2WMWAZWJRSN67LWQ0PPJUT","","img/set1/S3.jpg","68","3","random","72","false","random,structured_normal,structured_incentive","2,3,1,2","",""
"null","","html-keyboard-response","243","205906","0.0-172.0","3AAPLD8UCD3N50KYUPZDFVQVC9OTHI","A3LA5P3N3KI8U7","3DFYDSXB2WMWAZWJRSN67LWQ0PPJUT","","<img src=""img/set1/S3.jpg"" width=""540"" height = ""360"">","null","","","","","","","",""
"null","","html-keyboard-response","244","205909","0.0-173.0","3AAPLD8UCD3N50KYUPZDFVQVC9OTHI","A3LA5P3N3KI8U7","3DFYDSXB2WMWAZWJRSN67LWQ0PPJUT","","","null","","","","","","","",""
"730.9000000953674","","image-keyboard-response","245","206641","0.0-174.0","3AAPLD8UCD3N50KYUPZDFVQVC9OTHI","A3LA5P3N3KI8U7","3DFYDSXB2WMWAZWJRSN67LWQ0PPJUT","","img/set1/S4.jpg","74","4","random","74","true","random,structured_normal,structured_incentive","2,3,1,2","",""
"null","","html-keyboard-response","246","206992","0.0-175.0","3AAPLD8UCD3N50KYUPZDFVQVC9OTHI","A3LA5P3N3KI8U7","3DFYDSXB2WMWAZWJRSN67LWQ0PPJUT","","<img src=""img/set1/S4.jpg"" width=""540"" height = ""360"" style=""border:16px solid orange"">","null","","","","","","","",""
"null","","html-keyboard-response","247","206995","0.0-176.0","3AAPLD8UCD3N50KYUPZDFVQVC9OTHI","A3LA5P3N3KI8U7","3DFYDSXB2WMWAZWJRSN67LWQ0PPJUT","","","null","","","","","","","",""
"405.59999990463257","","image-keyboard-response","248","207401","0.0-177.0","3AAPLD8UCD3N50KYUPZDFVQVC9OTHI","A3LA5P3N3KI8U7","3DFYDSXB2WMWAZWJRSN67LWQ0PPJUT","","img/set1/S4.jpg","74","4","random","74","true","random,structured_normal,structured_incentive","2,3,1,2","",""
"null","","html-keyboard-response","249","207753","0.0-178.0","3AAPLD8UCD3N50KYUPZDFVQVC9OTHI","A3LA5P3N3KI8U7","3DFYDSXB2WMWAZWJRSN67LWQ0PPJUT","","<img src=""img/set1/S4.jpg"" width=""540"" height = ""360"" style=""border:16px solid orange"">","null","","","","","","","",""
"null","","html-keyboard-response","250","207755","0.0-179.0","3AAPLD8UCD3N50KYUPZDFVQVC9OTHI","A3LA5P3N3KI8U7","3DFYDSXB2WMWAZWJRSN67LWQ0PPJUT","","","null","","","","","","","",""
"1144.7000000476837","","image-keyboard-response","251","208900","0.0-180.0","3AAPLD8UCD3N50KYUPZDFVQVC9OTHI","A3LA5P3N3KI8U7","3DFYDSXB2WMWAZWJRSN67LWQ0PPJUT","","img/set1/S2.jpg","68","2","random","68","true","random,structured_normal,structured_incentive","2,3,1,2","",""
"null","","html-keyboard-response","252","209252","0.0-181.0","3AAPLD8UCD3N50KYUPZDFVQVC9OTHI","A3LA5P3N3KI8U7","3DFYDSXB2WMWAZWJRSN67LWQ0PPJUT","","<img src=""img/set1/S2.jpg"" width=""540"" height = ""360"" style=""border:16px solid orange"">","null","","","","","","","",""
"null","","html-keyboard-response","253","209254","0.0-182.0","3AAPLD8UCD3N50KYUPZDFVQVC9OTHI","A3LA5P3N3KI8U7","3DFYDSXB2WMWAZWJRSN67LWQ0PPJUT","","","null","","","","","","","",""
"382.5","","image-keyboard-response","254","209638","0.0-183.0","3AAPLD8UCD3N50KYUPZDFVQVC9OTHI","A3LA5P3N3KI8U7","3DFYDSXB2WMWAZWJRSN67LWQ0PPJUT","","img/set1/S2.jpg","68","2","random","68","true","random,structured_normal,structured_incentive","2,3,1,2","",""
"null","","html-keyboard-response","255","209989","0.0-184.0","3AAPLD8UCD3N50KYUPZDFVQVC9OTHI","A3LA5P3N3KI8U7","3DFYDSXB2WMWAZWJRSN67LWQ0PPJUT","","<img src=""img/set1/S2.jpg"" width=""540"" height = ""360"" style=""border:16px solid orange"">","null","","","","","","","",""
"null","","html-keyboard-response","256","209992","0.0-185.0","3AAPLD8UCD3N50KYUPZDFVQVC9OTHI","A3LA5P3N3KI8U7","3DFYDSXB2WMWAZWJRSN67LWQ0PPJUT","","","null","","","","","","","",""
"873.9000000953674","","image-keyboard-response","257","210867","0.0-186.0","3AAPLD8UCD3N50KYUPZDFVQVC9OTHI","A3LA5P3N3KI8U7","3DFYDSXB2WMWAZWJRSN67LWQ0PPJUT","","img/set1/S1.jpg","83","1","random","83","true","random,structured_normal,structured_incentive","2,3,1,2","",""
"null","","html-keyboard-response","258","211219","0.0-187.0","3AAPLD8UCD3N50KYUPZDFVQVC9OTHI","A3LA5P3N3KI8U7","3DFYDSXB2WMWAZWJRSN67LWQ0PPJUT","","<img src=""img/set1/S1.jpg"" width=""540"" height = ""360"" style=""border:16px solid orange"">","null","","","","","","","",""
"null","","html-keyboard-response","259","211221","0.0-188.0","3AAPLD8UCD3N50KYUPZDFVQVC9OTHI","A3LA5P3N3KI8U7","3DFYDSXB2WMWAZWJRSN67LWQ0PPJUT","","","null","","","","","","","",""
"449.59999990463257","","image-keyboard-response","260","211672","0.0-189.0","3AAPLD8UCD3N50KYUPZDFVQVC9OTHI","A3LA5P3N3KI8U7","3DFYDSXB2WMWAZWJRSN67LWQ0PPJUT","","img/set1/S2.jpg","68","2","random","68","true","random,structured_normal,structured_incentive","2,3,1,2","",""
"null","","html-keyboard-response","261","212024","0.0-190.0","3AAPLD8UCD3N50KYUPZDFVQVC9OTHI","A3LA5P3N3KI8U7","3DFYDSXB2WMWAZWJRSN67LWQ0PPJUT","","<img src=""img/set1/S2.jpg"" width=""540"" height = ""360"" style=""border:16px solid orange"">","null","","","","","","","",""
"null","","html-keyboard-response","262","212026","0.0-191.0","3AAPLD8UCD3N50KYUPZDFVQVC9OTHI","A3LA5P3N3KI8U7","3DFYDSXB2WMWAZWJRSN67LWQ0PPJUT","","","null","","","","","","","",""
"813.0999999046326","","image-keyboard-response","263","212840","0.0-192.0","3AAPLD8UCD3N50KYUPZDFVQVC9OTHI","A3LA5P3N3KI8U7","3DFYDSXB2WMWAZWJRSN67LWQ0PPJUT","","img/set1/S1.jpg","83","1","random","83","true","random,structured_normal,structured_incentive","2,3,1,2","",""
"null","","html-keyboard-response","264","213191","0.0-193.0","3AAPLD8UCD3N50KYUPZDFVQVC9OTHI","A3LA5P3N3KI8U7","3DFYDSXB2WMWAZWJRSN67LWQ0PPJUT","","<img src=""img/set1/S1.jpg"" width=""540"" height = ""360"" style=""border:16px solid orange"">","null","","","","","","","",""
"null","","html-keyboard-response","265","213194","0.0-194.0","3AAPLD8UCD3N50KYUPZDFVQVC9OTHI","A3LA5P3N3KI8U7","3DFYDSXB2WMWAZWJRSN67LWQ0PPJUT","","","null","","","","","","","",""
"393.89999985694885","","image-keyboard-response","266","213588","0.0-195.0","3AAPLD8UCD3N50KYUPZDFVQVC9OTHI","A3LA5P3N3KI8U7","3DFYDSXB2WMWAZWJRSN67LWQ0PPJUT","","img/set1/S2.jpg","68","2","random","68","true","random,structured_normal,structured_incentive","2,3,1,2","",""
"null","","html-keyboard-response","267","213940","0.0-196.0","3AAPLD8UCD3N50KYUPZDFVQVC9OTHI","A3LA5P3N3KI8U7","3DFYDSXB2WMWAZWJRSN67LWQ0PPJUT","","<img src=""img/set1/S2.jpg"" width=""540"" height = ""360"" style=""border:16px solid orange"">","null","","","","","","","",""
"null","","html-keyboard-response","268","213941","0.0-197.0","3AAPLD8UCD3N50KYUPZDFVQVC9OTHI","A3LA5P3N3KI8U7","3DFYDSXB2WMWAZWJRSN67LWQ0PPJUT","","","null","","","","","","","",""
"2253","","image-keyboard-response","269","216195","0.0-198.0","3AAPLD8UCD3N50KYUPZDFVQVC9OTHI","A3LA5P3N3KI8U7","3DFYDSXB2WMWAZWJRSN67LWQ0PPJUT","","img/set1/S3.jpg","72","3","random","72","true","random,structured_normal,structured_incentive","2,3,1,2","",""
"null","","html-keyboard-response","270","216547","0.0-199.0","3AAPLD8UCD3N50KYUPZDFVQVC9OTHI","A3LA5P3N3KI8U7","3DFYDSXB2WMWAZWJRSN67LWQ0PPJUT","","<img src=""img/set1/S3.jpg"" width=""540"" height = ""360"" style=""border:16px solid orange"">","null","","","","","","","",""
"null","","html-keyboard-response","271","216549","0.0-200.0","3AAPLD8UCD3N50KYUPZDFVQVC9OTHI","A3LA5P3N3KI8U7","3DFYDSXB2WMWAZWJRSN67LWQ0PPJUT","","","null","","","","","","","",""
"1599.7999999523163","","image-keyboard-response","272","218150","0.0-201.0","3AAPLD8UCD3N50KYUPZDFVQVC9OTHI","A3LA5P3N3KI8U7","3DFYDSXB2WMWAZWJRSN67LWQ0PPJUT","","img/set1/S2.jpg","68","2","random","68","true","random,structured_normal,structured_incentive","2,3,1,2","",""
"null","","html-keyboard-response","273","218502","0.0-202.0","3AAPLD8UCD3N50KYUPZDFVQVC9OTHI","A3LA5P3N3KI8U7","3DFYDSXB2WMWAZWJRSN67LWQ0PPJUT","","<img src=""img/set1/S2.jpg"" width=""540"" height = ""360"" style=""border:16px solid orange"">","null","","","","","","","",""
"null","","html-keyboard-response","274","218505","0.0-203.0","3AAPLD8UCD3N50KYUPZDFVQVC9OTHI","A3LA5P3N3KI8U7","3DFYDSXB2WMWAZWJRSN67LWQ0PPJUT","","","null","","","","","","","",""
"1254.3999998569489","","image-keyboard-response","275","219760","0.0-204.0","3AAPLD8UCD3N50KYUPZDFVQVC9OTHI","A3LA5P3N3KI8U7","3DFYDSXB2WMWAZWJRSN67LWQ0PPJUT","","img/set1/S4.jpg","74","4","random","74","true","random,structured_normal,structured_incentive","2,3,1,2","",""
"null","","html-keyboard-response","276","220112","0.0-205.0","3AAPLD8UCD3N50KYUPZDFVQVC9OTHI","A3LA5P3N3KI8U7","3DFYDSXB2WMWAZWJRSN67LWQ0PPJUT","","<img src=""img/set1/S4.jpg"" width=""540"" height = ""360"" style=""border:16px solid orange"">","null","","","","","","","",""
"null","","html-keyboard-response","277","220114","0.0-206.0","3AAPLD8UCD3N50KYUPZDFVQVC9OTHI","A3LA5P3N3KI8U7","3DFYDSXB2WMWAZWJRSN67LWQ0PPJUT","","","null","","","","","","","",""
"877.2999999523163","","image-keyboard-response","278","220992","0.0-207.0","3AAPLD8UCD3N50KYUPZDFVQVC9OTHI","A3LA5P3N3KI8U7","3DFYDSXB2WMWAZWJRSN67LWQ0PPJUT","","img/set1/S2.jpg","68","2","random","68","true","random,structured_normal,structured_incentive","2,3,1,2","",""
"null","","html-keyboard-response","279","221344","0.0-208.0","3AAPLD8UCD3N50KYUPZDFVQVC9OTHI","A3LA5P3N3KI8U7","3DFYDSXB2WMWAZWJRSN67LWQ0PPJUT","","<img src=""img/set1/S2.jpg"" width=""540"" height = ""360"" style=""border:16px solid orange"">","null","","","","","","","",""
"null","","html-keyboard-response","280","221346","0.0-209.0","3AAPLD8UCD3N50KYUPZDFVQVC9OTHI","A3LA5P3N3KI8U7","3DFYDSXB2WMWAZWJRSN67LWQ0PPJUT","","","null","","","","","","","",""
"845.5","","image-keyboard-response","281","222193","0.0-210.0","3AAPLD8UCD3N50KYUPZDFVQVC9OTHI","A3LA5P3N3KI8U7","3DFYDSXB2WMWAZWJRSN67LWQ0PPJUT","","img/set1/S1.jpg","83","1","random","83","true","random,structured_normal,structured_incentive","2,3,1,2","",""
"null","","html-keyboard-response","282","222544","0.0-211.0","3AAPLD8UCD3N50KYUPZDFVQVC9OTHI","A3LA5P3N3KI8U7","3DFYDSXB2WMWAZWJRSN67LWQ0PPJUT","","<img src=""img/set1/S1.jpg"" width=""540"" height = ""360"" style=""border:16px solid orange"">","null","","","","","","","",""
"null","","html-keyboard-response","283","222547","0.0-212.0","3AAPLD8UCD3N50KYUPZDFVQVC9OTHI","A3LA5P3N3KI8U7","3DFYDSXB2WMWAZWJRSN67LWQ0PPJUT","","","null","","","","","","","",""
"462.80000019073486","","image-keyboard-response","284","223010","0.0-213.0","3AAPLD8UCD3N50KYUPZDFVQVC9OTHI","A3LA5P3N3KI8U7","3DFYDSXB2WMWAZWJRSN67LWQ0PPJUT","","img/set1/S1.jpg","83","1","random","83","true","random,structured_normal,structured_incentive","2,3,1,2","",""
"null","","html-keyboard-response","285","223362","0.0-214.0","3AAPLD8UCD3N50KYUPZDFVQVC9OTHI","A3LA5P3N3KI8U7","3DFYDSXB2WMWAZWJRSN67LWQ0PPJUT","","<img src=""img/set1/S1.jpg"" width=""540"" height = ""360"" style=""border:16px solid orange"">","null","","","","","","","",""
"null","","html-keyboard-response","286","223365","0.0-215.0","3AAPLD8UCD3N50KYUPZDFVQVC9OTHI","A3LA5P3N3KI8U7","3DFYDSXB2WMWAZWJRSN67LWQ0PPJUT","","","null","","","","","","","",""
"859","","image-keyboard-response","287","224225","0.0-216.0","3AAPLD8UCD3N50KYUPZDFVQVC9OTHI","A3LA5P3N3KI8U7","3DFYDSXB2WMWAZWJRSN67LWQ0PPJUT","","img/set1/S2.jpg","68","2","random","68","true","random,structured_normal,structured_incentive","2,3,1,2","",""
"null","","html-keyboard-response","288","224577","0.0-217.0","3AAPLD8UCD3N50KYUPZDFVQVC9OTHI","A3LA5P3N3KI8U7","3DFYDSXB2WMWAZWJRSN67LWQ0PPJUT","","<img src=""img/set1/S2.jpg"" width=""540"" height = ""360"" style=""border:16px solid orange"">","null","","","","","","","",""
"null","","html-keyboard-response","289","224580","0.0-218.0","3AAPLD8UCD3N50KYUPZDFVQVC9OTHI","A3LA5P3N3KI8U7","3DFYDSXB2WMWAZWJRSN67LWQ0PPJUT","","","null","","","","","","","",""
"1454.7000000476837","","image-keyboard-response","290","226035","0.0-219.0","3AAPLD8UCD3N50KYUPZDFVQVC9OTHI","A3LA5P3N3KI8U7","3DFYDSXB2WMWAZWJRSN67LWQ0PPJUT","","img/set1/S4.jpg","74","4","random","74","true","random,structured_normal,structured_incentive","2,3,1,2","",""
"null","","html-keyboard-response","291","226387","0.0-220.0","3AAPLD8UCD3N50KYUPZDFVQVC9OTHI","A3LA5P3N3KI8U7","3DFYDSXB2WMWAZWJRSN67LWQ0PPJUT","","<img src=""img/set1/S4.jpg"" width=""540"" height = ""360"" style=""border:16px solid orange"">","null","","","","","","","",""
"null","","html-keyboard-response","292","226389","0.0-221.0","3AAPLD8UCD3N50KYUPZDFVQVC9OTHI","A3LA5P3N3KI8U7","3DFYDSXB2WMWAZWJRSN67LWQ0PPJUT","","","null","","","","","","","",""
"775.5","","image-keyboard-response","293","227166","0.0-222.0","3AAPLD8UCD3N50KYUPZDFVQVC9OTHI","A3LA5P3N3KI8U7","3DFYDSXB2WMWAZWJRSN67LWQ0PPJUT","","img/set1/S1.jpg","83","1","random","83","true","random,structured_normal,structured_incentive","2,3,1,2","",""
"null","","html-keyboard-response","294","227518","0.0-223.0","3AAPLD8UCD3N50KYUPZDFVQVC9OTHI","A3LA5P3N3KI8U7","3DFYDSXB2WMWAZWJRSN67LWQ0PPJUT","","<img src=""img/set1/S1.jpg"" width=""540"" height = ""360"" style=""border:16px solid orange"">","null","","","","","","","",""
"null","","html-keyboard-response","295","227520","0.0-224.0","3AAPLD8UCD3N50KYUPZDFVQVC9OTHI","A3LA5P3N3KI8U7","3DFYDSXB2WMWAZWJRSN67LWQ0PPJUT","","","null","","","","","","","",""
"1114.9000000953674","","image-keyboard-response","296","228636","0.0-225.0","3AAPLD8UCD3N50KYUPZDFVQVC9OTHI","A3LA5P3N3KI8U7","3DFYDSXB2WMWAZWJRSN67LWQ0PPJUT","","img/set1/S2.jpg","68","2","random","68","true","random,structured_normal,structured_incentive","2,3,1,2","",""
"null","","html-keyboard-response","297","228988","0.0-226.0","3AAPLD8UCD3N50KYUPZDFVQVC9OTHI","A3LA5P3N3KI8U7","3DFYDSXB2WMWAZWJRSN67LWQ0PPJUT","","<img src=""img/set1/S2.jpg"" width=""540"" height = ""360"" style=""border:16px solid orange"">","null","","","","","","","",""
"null","","html-keyboard-response","298","228990","0.0-227.0","3AAPLD8UCD3N50KYUPZDFVQVC9OTHI","A3LA5P3N3KI8U7","3DFYDSXB2WMWAZWJRSN67LWQ0PPJUT","","","null","","","","","","","",""
"436.09999990463257","","image-keyboard-response","299","229427","0.0-228.0","3AAPLD8UCD3N50KYUPZDFVQVC9OTHI","A3LA5P3N3KI8U7","3DFYDSXB2WMWAZWJRSN67LWQ0PPJUT","","img/set1/S2.jpg","68","2","random","68","true","random,structured_normal,structured_incentive","2,3,1,2","",""
"null","","html-keyboard-response","300","229779","0.0-229.0","3AAPLD8UCD3N50KYUPZDFVQVC9OTHI","A3LA5P3N3KI8U7","3DFYDSXB2WMWAZWJRSN67LWQ0PPJUT","","<img src=""img/set1/S2.jpg"" width=""540"" height = ""360"" style=""border:16px solid orange"">","null","","","","","","","",""
"null","","html-keyboard-response","301","229781","0.0-230.0","3AAPLD8UCD3N50KYUPZDFVQVC9OTHI","A3LA5P3N3KI8U7","3DFYDSXB2WMWAZWJRSN67LWQ0PPJUT","","","null","","","","","","","",""
"756.5","","image-keyboard-response","302","230539","0.0-231.0","3AAPLD8UCD3N50KYUPZDFVQVC9OTHI","A3LA5P3N3KI8U7","3DFYDSXB2WMWAZWJRSN67LWQ0PPJUT","","img/set1/S4.jpg","74","4","random","74","true","random,structured_normal,structured_incentive","2,3,1,2","",""
"null","","html-keyboard-response","303","230891","0.0-232.0","3AAPLD8UCD3N50KYUPZDFVQVC9OTHI","A3LA5P3N3KI8U7","3DFYDSXB2WMWAZWJRSN67LWQ0PPJUT","","<img src=""img/set1/S4.jpg"" width=""540"" height = ""360"" style=""border:16px solid orange"">","null","","","","","","","",""
"null","","html-keyboard-response","304","230893","0.0-233.0","3AAPLD8UCD3N50KYUPZDFVQVC9OTHI","A3LA5P3N3KI8U7","3DFYDSXB2WMWAZWJRSN67LWQ0PPJUT","","","null","","","","","","","",""
"619.3000001907349","","image-keyboard-response","305","231513","0.0-234.0","3AAPLD8UCD3N50KYUPZDFVQVC9OTHI","A3LA5P3N3KI8U7","3DFYDSXB2WMWAZWJRSN67LWQ0PPJUT","","img/set1/S3.jpg","72","3","random","72","true","random,structured_normal,structured_incentive","2,3,1,2","",""
"null","","html-keyboard-response","306","231864","0.0-235.0","3AAPLD8UCD3N50KYUPZDFVQVC9OTHI","A3LA5P3N3KI8U7","3DFYDSXB2WMWAZWJRSN67LWQ0PPJUT","","<img src=""img/set1/S3.jpg"" width=""540"" height = ""360"" style=""border:16px solid orange"">","null","","","","","","","",""
"null","","html-keyboard-response","307","231866","0.0-236.0","3AAPLD8UCD3N50KYUPZDFVQVC9OTHI","A3LA5P3N3KI8U7","3DFYDSXB2WMWAZWJRSN67LWQ0PPJUT","","","null","","","","","","","",""
"715.4000000953674","","image-keyboard-response","308","232583","0.0-237.0","3AAPLD8UCD3N50KYUPZDFVQVC9OTHI","A3LA5P3N3KI8U7","3DFYDSXB2WMWAZWJRSN67LWQ0PPJUT","","img/set1/S4.jpg","74","4","random","74","true","random,structured_normal,structured_incentive","2,3,1,2","",""
"null","","html-keyboard-response","309","232934","0.0-238.0","3AAPLD8UCD3N50KYUPZDFVQVC9OTHI","A3LA5P3N3KI8U7","3DFYDSXB2WMWAZWJRSN67LWQ0PPJUT","","<img src=""img/set1/S4.jpg"" width=""540"" height = ""360"" style=""border:16px solid orange"">","null","","","","","","","",""
"null","","html-keyboard-response","310","232937","0.0-239.0","3AAPLD8UCD3N50KYUPZDFVQVC9OTHI","A3LA5P3N3KI8U7","3DFYDSXB2WMWAZWJRSN67LWQ0PPJUT","","","null","","","","","","","",""
"357.2000000476837","","image-keyboard-response","311","233294","0.0-240.0","3AAPLD8UCD3N50KYUPZDFVQVC9OTHI","A3LA5P3N3KI8U7","3DFYDSXB2WMWAZWJRSN67LWQ0PPJUT","","img/set1/S3.jpg","72","3","random","72","true","random,structured_normal,structured_incentive","2,3,1,2","",""
"null","","html-keyboard-response","312","233646","0.0-241.0","3AAPLD8UCD3N50KYUPZDFVQVC9OTHI","A3LA5P3N3KI8U7","3DFYDSXB2WMWAZWJRSN67LWQ0PPJUT","","<img src=""img/set1/S3.jpg"" width=""540"" height = ""360"" style=""border:16px solid orange"">","null","","","","","","","",""
"null","","html-keyboard-response","313","233648","0.0-242.0","3AAPLD8UCD3N50KYUPZDFVQVC9OTHI","A3LA5P3N3KI8U7","3DFYDSXB2WMWAZWJRSN67LWQ0PPJUT","","","null","","","","","","","",""
"734.0999999046326","","image-keyboard-response","314","234383","0.0-243.0","3AAPLD8UCD3N50KYUPZDFVQVC9OTHI","A3LA5P3N3KI8U7","3DFYDSXB2WMWAZWJRSN67LWQ0PPJUT","","img/set1/S1.jpg","83","1","random","83","true","random,structured_normal,structured_incentive","2,3,1,2","",""
"null","","html-keyboard-response","315","234735","0.0-244.0","3AAPLD8UCD3N50KYUPZDFVQVC9OTHI","A3LA5P3N3KI8U7","3DFYDSXB2WMWAZWJRSN67LWQ0PPJUT","","<img src=""img/set1/S1.jpg"" width=""540"" height = ""360"" style=""border:16px solid orange"">","null","","","","","","","",""
"null","","html-keyboard-response","316","234738","0.0-245.0","3AAPLD8UCD3N50KYUPZDFVQVC9OTHI","A3LA5P3N3KI8U7","3DFYDSXB2WMWAZWJRSN67LWQ0PPJUT","","","null","","","","","","","",""
"842.0999999046326","","image-keyboard-response","317","235581","0.0-246.0","3AAPLD8UCD3N50KYUPZDFVQVC9OTHI","A3LA5P3N3KI8U7","3DFYDSXB2WMWAZWJRSN67LWQ0PPJUT","","img/set1/S3.jpg","72","3","random","72","true","random,structured_normal,structured_incentive","2,3,1,2","",""
"null","","html-keyboard-response","318","235932","0.0-247.0","3AAPLD8UCD3N50KYUPZDFVQVC9OTHI","A3LA5P3N3KI8U7","3DFYDSXB2WMWAZWJRSN67LWQ0PPJUT","","<img src=""img/set1/S3.jpg"" width=""540"" height = ""360"" style=""border:16px solid orange"">","null","","","","","","","",""
"null","","html-keyboard-response","319","235935","0.0-248.0","3AAPLD8UCD3N50KYUPZDFVQVC9OTHI","A3LA5P3N3KI8U7","3DFYDSXB2WMWAZWJRSN67LWQ0PPJUT","","","null","","","","","","","",""
"652.8000001907349","","image-keyboard-response","320","236589","0.0-249.0","3AAPLD8UCD3N50KYUPZDFVQVC9OTHI","A3LA5P3N3KI8U7","3DFYDSXB2WMWAZWJRSN67LWQ0PPJUT","","img/set1/S4.jpg","74","4","random","74","true","random,structured_normal,structured_incentive","2,3,1,2","",""
"null","","html-keyboard-response","321","236941","0.0-250.0","3AAPLD8UCD3N50KYUPZDFVQVC9OTHI","A3LA5P3N3KI8U7","3DFYDSXB2WMWAZWJRSN67LWQ0PPJUT","","<img src=""img/set1/S4.jpg"" width=""540"" height = ""360"" style=""border:16px solid orange"">","null","","","","","","","",""
"null","","html-keyboard-response","322","236943","0.0-251.0","3AAPLD8UCD3N50KYUPZDFVQVC9OTHI","A3LA5P3N3KI8U7","3DFYDSXB2WMWAZWJRSN67LWQ0PPJUT","","","null","","","","","","","",""
"454.2999999523163","","image-keyboard-response","323","237398","0.0-252.0","3AAPLD8UCD3N50KYUPZDFVQVC9OTHI","A3LA5P3N3KI8U7","3DFYDSXB2WMWAZWJRSN67LWQ0PPJUT","","img/set1/S4.jpg","74","4","random","74","true","random,structured_normal,structured_incentive","2,3,1,2","",""
"null","","html-keyboard-response","324","237750","0.0-253.0","3AAPLD8UCD3N50KYUPZDFVQVC9OTHI","A3LA5P3N3KI8U7","3DFYDSXB2WMWAZWJRSN67LWQ0PPJUT","","<img src=""img/set1/S4.jpg"" width=""540"" height = ""360"" style=""border:16px solid orange"">","null","","","","","","","",""
"null","","html-keyboard-response","325","237752","0.0-254.0","3AAPLD8UCD3N50KYUPZDFVQVC9OTHI","A3LA5P3N3KI8U7","3DFYDSXB2WMWAZWJRSN67LWQ0PPJUT","","","null","","","","","","","",""
"834.3000001907349","","image-keyboard-response","326","238587","0.0-255.0","3AAPLD8UCD3N50KYUPZDFVQVC9OTHI","A3LA5P3N3KI8U7","3DFYDSXB2WMWAZWJRSN67LWQ0PPJUT","","img/set1/S2.jpg","68","2","random","68","true","random,structured_normal,structured_incentive","2,3,1,2","",""
"null","","html-keyboard-response","327","238940","0.0-256.0","3AAPLD8UCD3N50KYUPZDFVQVC9OTHI","A3LA5P3N3KI8U7","3DFYDSXB2WMWAZWJRSN67LWQ0PPJUT","","<img src=""img/set1/S2.jpg"" width=""540"" height = ""360"" style=""border:16px solid orange"">","null","","","","","","","",""
"null","","html-keyboard-response","328","238942","0.0-257.0","3AAPLD8UCD3N50KYUPZDFVQVC9OTHI","A3LA5P3N3KI8U7","3DFYDSXB2WMWAZWJRSN67LWQ0PPJUT","","","null","","","","","","","",""
"650.2000000476837","","image-keyboard-response","329","239593","0.0-258.0","3AAPLD8UCD3N50KYUPZDFVQVC9OTHI","A3LA5P3N3KI8U7","3DFYDSXB2WMWAZWJRSN67LWQ0PPJUT","","img/set1/S4.jpg","74","4","random","74","true","random,structured_normal,structured_incentive","2,3,1,2","",""
"null","","html-keyboard-response","330","239946","0.0-259.0","3AAPLD8UCD3N50KYUPZDFVQVC9OTHI","A3LA5P3N3KI8U7","3DFYDSXB2WMWAZWJRSN67LWQ0PPJUT","","<img src=""img/set1/S4.jpg"" width=""540"" height = ""360"" style=""border:16px solid orange"">","null","","","","","","","",""
"null","","html-keyboard-response","331","239948","0.0-260.0","3AAPLD8UCD3N50KYUPZDFVQVC9OTHI","A3LA5P3N3KI8U7","3DFYDSXB2WMWAZWJRSN67LWQ0PPJUT","","","null","","","","","","","",""
"698.2999999523163","","image-keyboard-response","332","240647","0.0-261.0","3AAPLD8UCD3N50KYUPZDFVQVC9OTHI","A3LA5P3N3KI8U7","3DFYDSXB2WMWAZWJRSN67LWQ0PPJUT","","img/set1/S3.jpg","72","3","random","72","true","random,structured_normal,structured_incentive","2,3,1,2","",""
"null","","html-keyboard-response","333","240999","0.0-262.0","3AAPLD8UCD3N50KYUPZDFVQVC9OTHI","A3LA5P3N3KI8U7","3DFYDSXB2WMWAZWJRSN67LWQ0PPJUT","","<img src=""img/set1/S3.jpg"" width=""540"" height = ""360"" style=""border:16px solid orange"">","null","","","","","","","",""
"null","","html-keyboard-response","334","241001","0.0-263.0","3AAPLD8UCD3N50KYUPZDFVQVC9OTHI","A3LA5P3N3KI8U7","3DFYDSXB2WMWAZWJRSN67LWQ0PPJUT","","","null","","","","","","","",""
"377.5","","image-keyboard-response","335","241379","0.0-264.0","3AAPLD8UCD3N50KYUPZDFVQVC9OTHI","A3LA5P3N3KI8U7","3DFYDSXB2WMWAZWJRSN67LWQ0PPJUT","","img/set1/S3.jpg","72","3","random","72","true","random,structured_normal,structured_incentive","2,3,1,2","",""
"null","","html-keyboard-response","336","241730","0.0-265.0","3AAPLD8UCD3N50KYUPZDFVQVC9OTHI","A3LA5P3N3KI8U7","3DFYDSXB2WMWAZWJRSN67LWQ0PPJUT","","<img src=""img/set1/S3.jpg"" width=""540"" height = ""360"" style=""border:16px solid orange"">","null","","","","","","","",""
"null","","html-keyboard-response","337","241732","0.0-266.0","3AAPLD8UCD3N50KYUPZDFVQVC9OTHI","A3LA5P3N3KI8U7","3DFYDSXB2WMWAZWJRSN67LWQ0PPJUT","","","null","","","","","","","",""
"853.5","","image-keyboard-response","338","242587","0.0-267.0","3AAPLD8UCD3N50KYUPZDFVQVC9OTHI","A3LA5P3N3KI8U7","3DFYDSXB2WMWAZWJRSN67LWQ0PPJUT","","img/set1/S1.jpg","83","1","random","83","true","random,structured_normal,structured_incentive","2,3,1,2","",""
"null","","html-keyboard-response","339","242938","0.0-268.0","3AAPLD8UCD3N50KYUPZDFVQVC9OTHI","A3LA5P3N3KI8U7","3DFYDSXB2WMWAZWJRSN67LWQ0PPJUT","","<img src=""img/set1/S1.jpg"" width=""540"" height = ""360"" style=""border:16px solid orange"">","null","","","","","","","",""
"null","","html-keyboard-response","340","242940","0.0-269.0","3AAPLD8UCD3N50KYUPZDFVQVC9OTHI","A3LA5P3N3KI8U7","3DFYDSXB2WMWAZWJRSN67LWQ0PPJUT","","","null","","","","","","","",""
"413.59999990463257","","image-keyboard-response","341","243354","0.0-270.0","3AAPLD8UCD3N50KYUPZDFVQVC9OTHI","A3LA5P3N3KI8U7","3DFYDSXB2WMWAZWJRSN67LWQ0PPJUT","","img/set1/S1.jpg","83","1","random","83","true","random,structured_normal,structured_incentive","2,3,1,2","",""
"null","","html-keyboard-response","342","243706","0.0-271.0","3AAPLD8UCD3N50KYUPZDFVQVC9OTHI","A3LA5P3N3KI8U7","3DFYDSXB2WMWAZWJRSN67LWQ0PPJUT","","<img src=""img/set1/S1.jpg"" width=""540"" height = ""360"" style=""border:16px solid orange"">","null","","","","","","","",""
"null","","html-keyboard-response","343","243709","0.0-272.0","3AAPLD8UCD3N50KYUPZDFVQVC9OTHI","A3LA5P3N3KI8U7","3DFYDSXB2WMWAZWJRSN67LWQ0PPJUT","","","null","","","","","","","",""
"415.2999999523163","","image-keyboard-response","344","244125","0.0-273.0","3AAPLD8UCD3N50KYUPZDFVQVC9OTHI","A3LA5P3N3KI8U7","3DFYDSXB2WMWAZWJRSN67LWQ0PPJUT","","img/set1/S1.jpg","83","1","random","83","true","random,structured_normal,structured_incentive","2,3,1,2","",""
"null","","html-keyboard-response","345","244477","0.0-274.0","3AAPLD8UCD3N50KYUPZDFVQVC9OTHI","A3LA5P3N3KI8U7","3DFYDSXB2WMWAZWJRSN67LWQ0PPJUT","","<img src=""img/set1/S1.jpg"" width=""540"" height = ""360"" style=""border:16px solid orange"">","null","","","","","","","",""
"null","","html-keyboard-response","346","244479","0.0-275.0","3AAPLD8UCD3N50KYUPZDFVQVC9OTHI","A3LA5P3N3KI8U7","3DFYDSXB2WMWAZWJRSN67LWQ0PPJUT","","","null","","","","","","","",""
"772","","image-keyboard-response","347","245252","0.0-276.0","3AAPLD8UCD3N50KYUPZDFVQVC9OTHI","A3LA5P3N3KI8U7","3DFYDSXB2WMWAZWJRSN67LWQ0PPJUT","","img/set1/S3.jpg","72","3","random","72","true","random,structured_normal,structured_incentive","2,3,1,2","",""
"null","","html-keyboard-response","348","245604","0.0-277.0","3AAPLD8UCD3N50KYUPZDFVQVC9OTHI","A3LA5P3N3KI8U7","3DFYDSXB2WMWAZWJRSN67LWQ0PPJUT","","<img src=""img/set1/S3.jpg"" width=""540"" height = ""360"" style=""border:16px solid orange"">","null","","","","","","","",""
"null","","html-keyboard-response","349","245607","0.0-278.0","3AAPLD8UCD3N50KYUPZDFVQVC9OTHI","A3LA5P3N3KI8U7","3DFYDSXB2WMWAZWJRSN67LWQ0PPJUT","","","null","","","","","","","",""
"656.5","","image-keyboard-response","350","246264","0.0-279.0","3AAPLD8UCD3N50KYUPZDFVQVC9OTHI","A3LA5P3N3KI8U7","3DFYDSXB2WMWAZWJRSN67LWQ0PPJUT","","img/set1/S1.jpg","83","1","random","83","true","random,structured_normal,structured_incentive","2,3,1,2","",""
"null","","html-keyboard-response","351","246616","0.0-280.0","3AAPLD8UCD3N50KYUPZDFVQVC9OTHI","A3LA5P3N3KI8U7","3DFYDSXB2WMWAZWJRSN67LWQ0PPJUT","","<img src=""img/set1/S1.jpg"" width=""540"" height = ""360"" style=""border:16px solid orange"">","null","","","","","","","",""
"null","","html-keyboard-response","352","246619","0.0-281.0","3AAPLD8UCD3N50KYUPZDFVQVC9OTHI","A3LA5P3N3KI8U7","3DFYDSXB2WMWAZWJRSN67LWQ0PPJUT","","","null","","","","","","","",""
"820.7999999523163","","image-keyboard-response","353","247441","0.0-282.0","3AAPLD8UCD3N50KYUPZDFVQVC9OTHI","A3LA5P3N3KI8U7","3DFYDSXB2WMWAZWJRSN67LWQ0PPJUT","","img/set1/S2.jpg","68","2","random","68","true","random,structured_normal,structured_incentive","2,3,1,2","",""
"null","","html-keyboard-response","354","247792","0.0-283.0","3AAPLD8UCD3N50KYUPZDFVQVC9OTHI","A3LA5P3N3KI8U7","3DFYDSXB2WMWAZWJRSN67LWQ0PPJUT","","<img src=""img/set1/S2.jpg"" width=""540"" height = ""360"" style=""border:16px solid orange"">","null","","","","","","","",""
"null","","html-keyboard-response","355","247795","0.0-284.0","3AAPLD8UCD3N50KYUPZDFVQVC9OTHI","A3LA5P3N3KI8U7","3DFYDSXB2WMWAZWJRSN67LWQ0PPJUT","","","null","","","","","","","",""
"474.59999990463257","","image-keyboard-response","356","248270","0.0-285.0","3AAPLD8UCD3N50KYUPZDFVQVC9OTHI","A3LA5P3N3KI8U7","3DFYDSXB2WMWAZWJRSN67LWQ0PPJUT","","img/set1/S2.jpg","68","2","random","68","true","random,structured_normal,structured_incentive","2,3,1,2","",""
"null","","html-keyboard-response","357","248622","0.0-286.0","3AAPLD8UCD3N50KYUPZDFVQVC9OTHI","A3LA5P3N3KI8U7","3DFYDSXB2WMWAZWJRSN67LWQ0PPJUT","","<img src=""img/set1/S2.jpg"" width=""540"" height = ""360"" style=""border:16px solid orange"">","null","","","","","","","",""
"null","","html-keyboard-response","358","248624","0.0-287.0","3AAPLD8UCD3N50KYUPZDFVQVC9OTHI","A3LA5P3N3KI8U7","3DFYDSXB2WMWAZWJRSN67LWQ0PPJUT","","","null","","","","","","","",""
"846.5999999046326","","image-keyboard-response","359","249472","0.0-288.0","3AAPLD8UCD3N50KYUPZDFVQVC9OTHI","A3LA5P3N3KI8U7","3DFYDSXB2WMWAZWJRSN67LWQ0PPJUT","","img/set1/S3.jpg","72","3","random","72","true","random,structured_normal,structured_incentive","2,3,1,2","",""
"null","","html-keyboard-response","360","249823","0.0-289.0","3AAPLD8UCD3N50KYUPZDFVQVC9OTHI","A3LA5P3N3KI8U7","3DFYDSXB2WMWAZWJRSN67LWQ0PPJUT","","<img src=""img/set1/S3.jpg"" width=""540"" height = ""360"" style=""border:16px solid orange"">","null","","","","","","","",""
"null","","html-keyboard-response","361","249825","0.0-290.0","3AAPLD8UCD3N50KYUPZDFVQVC9OTHI","A3LA5P3N3KI8U7","3DFYDSXB2WMWAZWJRSN67LWQ0PPJUT","","","null","","","","","","","",""
"1883.0999999046326","","image-keyboard-response","362","251709","0.0-291.0","3AAPLD8UCD3N50KYUPZDFVQVC9OTHI","A3LA5P3N3KI8U7","3DFYDSXB2WMWAZWJRSN67LWQ0PPJUT","","img/set1/S4.jpg","74","4","random","74","true","random,structured_normal,structured_incentive","2,3,1,2","",""
"null","","html-keyboard-response","363","252060","0.0-292.0","3AAPLD8UCD3N50KYUPZDFVQVC9OTHI","A3LA5P3N3KI8U7","3DFYDSXB2WMWAZWJRSN67LWQ0PPJUT","","<img src=""img/set1/S4.jpg"" width=""540"" height = ""360"" style=""border:16px solid orange"">","null","","","","","","","",""
"null","","html-keyboard-response","364","252062","0.0-293.0","3AAPLD8UCD3N50KYUPZDFVQVC9OTHI","A3LA5P3N3KI8U7","3DFYDSXB2WMWAZWJRSN67LWQ0PPJUT","","","null","","","","","","","",""
"390.10000014305115","","image-keyboard-response","365","252453","0.0-294.0","3AAPLD8UCD3N50KYUPZDFVQVC9OTHI","A3LA5P3N3KI8U7","3DFYDSXB2WMWAZWJRSN67LWQ0PPJUT","","img/set1/S4.jpg","74","4","random","74","true","random,structured_normal,structured_incentive","2,3,1,2","",""
"null","","html-keyboard-response","366","252805","0.0-295.0","3AAPLD8UCD3N50KYUPZDFVQVC9OTHI","A3LA5P3N3KI8U7","3DFYDSXB2WMWAZWJRSN67LWQ0PPJUT","","<img src=""img/set1/S4.jpg"" width=""540"" height = ""360"" style=""border:16px solid orange"">","null","","","","","","","",""
"null","","html-keyboard-response","367","252807","0.0-296.0","3AAPLD8UCD3N50KYUPZDFVQVC9OTHI","A3LA5P3N3KI8U7","3DFYDSXB2WMWAZWJRSN67LWQ0PPJUT","","","null","","","","","","","",""
"371.90000009536743","","image-keyboard-response","368","253180","0.0-297.0","3AAPLD8UCD3N50KYUPZDFVQVC9OTHI","A3LA5P3N3KI8U7","3DFYDSXB2WMWAZWJRSN67LWQ0PPJUT","","img/set1/S4.jpg","74","4","random","74","true","random,structured_normal,structured_incentive","2,3,1,2","",""
"null","","html-keyboard-response","369","253531","0.0-298.0","3AAPLD8UCD3N50KYUPZDFVQVC9OTHI","A3LA5P3N3KI8U7","3DFYDSXB2WMWAZWJRSN67LWQ0PPJUT","","<img src=""img/set1/S4.jpg"" width=""540"" height = ""360"" style=""border:16px solid orange"">","null","","","","","","","",""
"null","","html-keyboard-response","370","253533","0.0-299.0","3AAPLD8UCD3N50KYUPZDFVQVC9OTHI","A3LA5P3N3KI8U7","3DFYDSXB2WMWAZWJRSN67LWQ0PPJUT","","","null","","","","","","","",""
"416.90000009536743","","image-keyboard-response","371","253951","0.0-300.0","3AAPLD8UCD3N50KYUPZDFVQVC9OTHI","A3LA5P3N3KI8U7","3DFYDSXB2WMWAZWJRSN67LWQ0PPJUT","","img/set1/S4.jpg","74","4","random","74","true","random,structured_normal,structured_incentive","2,3,1,2","",""
"null","","html-keyboard-response","372","254302","0.0-301.0","3AAPLD8UCD3N50KYUPZDFVQVC9OTHI","A3LA5P3N3KI8U7","3DFYDSXB2WMWAZWJRSN67LWQ0PPJUT","","<img src=""img/set1/S4.jpg"" width=""540"" height = ""360"" style=""border:16px solid orange"">","null","","","","","","","",""
"null","","html-keyboard-response","373","254305","0.0-302.0","3AAPLD8UCD3N50KYUPZDFVQVC9OTHI","A3LA5P3N3KI8U7","3DFYDSXB2WMWAZWJRSN67LWQ0PPJUT","","","null","","","","","","","",""
"377.10000014305115","","image-keyboard-response","374","254683","0.0-303.0","3AAPLD8UCD3N50KYUPZDFVQVC9OTHI","A3LA5P3N3KI8U7","3DFYDSXB2WMWAZWJRSN67LWQ0PPJUT","","img/set1/S4.jpg","74","4","random","74","true","random,structured_normal,structured_incentive","2,3,1,2","",""
"null","","html-keyboard-response","375","255035","0.0-304.0","3AAPLD8UCD3N50KYUPZDFVQVC9OTHI","A3LA5P3N3KI8U7","3DFYDSXB2WMWAZWJRSN67LWQ0PPJUT","","<img src=""img/set1/S4.jpg"" width=""540"" height = ""360"" style=""border:16px solid orange"">","null","","","","","","","",""
"null","","html-keyboard-response","376","255038","0.0-305.0","3AAPLD8UCD3N50KYUPZDFVQVC9OTHI","A3LA5P3N3KI8U7","3DFYDSXB2WMWAZWJRSN67LWQ0PPJUT","","","null","","","","","","","",""
"372.2000000476837","","image-keyboard-response","377","255411","0.0-306.0","3AAPLD8UCD3N50KYUPZDFVQVC9OTHI","A3LA5P3N3KI8U7","3DFYDSXB2WMWAZWJRSN67LWQ0PPJUT","","img/set1/S4.jpg","74","4","random","74","true","random,structured_normal,structured_incentive","2,3,1,2","",""
"null","","html-keyboard-response","378","255763","0.0-307.0","3AAPLD8UCD3N50KYUPZDFVQVC9OTHI","A3LA5P3N3KI8U7","3DFYDSXB2WMWAZWJRSN67LWQ0PPJUT","","<img src=""img/set1/S4.jpg"" width=""540"" height = ""360"" style=""border:16px solid orange"">","null","","","","","","","",""
"null","","html-keyboard-response","379","255765","0.0-308.0","3AAPLD8UCD3N50KYUPZDFVQVC9OTHI","A3LA5P3N3KI8U7","3DFYDSXB2WMWAZWJRSN67LWQ0PPJUT","","","null","","","","","","","",""
"436","","image-keyboard-response","380","256202","0.0-309.0","3AAPLD8UCD3N50KYUPZDFVQVC9OTHI","A3LA5P3N3KI8U7","3DFYDSXB2WMWAZWJRSN67LWQ0PPJUT","","img/set1/S4.jpg","74","4","random","74","true","random,structured_normal,structured_incentive","2,3,1,2","",""
"null","","html-keyboard-response","381","256553","0.0-310.0","3AAPLD8UCD3N50KYUPZDFVQVC9OTHI","A3LA5P3N3KI8U7","3DFYDSXB2WMWAZWJRSN67LWQ0PPJUT","","<img src=""img/set1/S4.jpg"" width=""540"" height = ""360"" style=""border:16px solid orange"">","null","","","","","","","",""
"null","","html-keyboard-response","382","256556","0.0-311.0","3AAPLD8UCD3N50KYUPZDFVQVC9OTHI","A3LA5P3N3KI8U7","3DFYDSXB2WMWAZWJRSN67LWQ0PPJUT","","","null","","","","","","","",""
"621.6000001430511","","image-keyboard-response","383","257178","0.0-312.0","3AAPLD8UCD3N50KYUPZDFVQVC9OTHI","A3LA5P3N3KI8U7","3DFYDSXB2WMWAZWJRSN67LWQ0PPJUT","","img/set1/S2.jpg","72","2","random","68","false","random,structured_normal,structured_incentive","2,3,1,2","",""
"null","","html-keyboard-response","384","257530","0.0-313.0","3AAPLD8UCD3N50KYUPZDFVQVC9OTHI","A3LA5P3N3KI8U7","3DFYDSXB2WMWAZWJRSN67LWQ0PPJUT","","<img src=""img/set1/S2.jpg"" width=""540"" height = ""360"">","null","","","","","","","",""
"null","","html-keyboard-response","385","257533","0.0-314.0","3AAPLD8UCD3N50KYUPZDFVQVC9OTHI","A3LA5P3N3KI8U7","3DFYDSXB2WMWAZWJRSN67LWQ0PPJUT","","","null","","","","","","","",""
"798.2999999523163","","image-keyboard-response","386","258332","0.0-315.0","3AAPLD8UCD3N50KYUPZDFVQVC9OTHI","A3LA5P3N3KI8U7","3DFYDSXB2WMWAZWJRSN67LWQ0PPJUT","","img/set1/S1.jpg","83","1","random","83","true","random,structured_normal,structured_incentive","2,3,1,2","",""
"null","","html-keyboard-response","387","258683","0.0-316.0","3AAPLD8UCD3N50KYUPZDFVQVC9OTHI","A3LA5P3N3KI8U7","3DFYDSXB2WMWAZWJRSN67LWQ0PPJUT","","<img src=""img/set1/S1.jpg"" width=""540"" height = ""360"" style=""border:16px solid orange"">","null","","","","","","","",""
"null","","html-keyboard-response","388","258686","0.0-317.0","3AAPLD8UCD3N50KYUPZDFVQVC9OTHI","A3LA5P3N3KI8U7","3DFYDSXB2WMWAZWJRSN67LWQ0PPJUT","","","null","","","","","","","",""
"803.4000000953674","","image-keyboard-response","389","259490","0.0-318.0","3AAPLD8UCD3N50KYUPZDFVQVC9OTHI","A3LA5P3N3KI8U7","3DFYDSXB2WMWAZWJRSN67LWQ0PPJUT","","img/set1/S3.jpg","72","3","random","72","true","random,structured_normal,structured_incentive","2,3,1,2","",""
"null","","html-keyboard-response","390","259842","0.0-319.0","3AAPLD8UCD3N50KYUPZDFVQVC9OTHI","A3LA5P3N3KI8U7","3DFYDSXB2WMWAZWJRSN67LWQ0PPJUT","","<img src=""img/set1/S3.jpg"" width=""540"" height = ""360"" style=""border:16px solid orange"">","null","","","","","","","",""
"null","","html-keyboard-response","391","259843","0.0-320.0","3AAPLD8UCD3N50KYUPZDFVQVC9OTHI","A3LA5P3N3KI8U7","3DFYDSXB2WMWAZWJRSN67LWQ0PPJUT","","","null","","","","","","","",""
"648.1000001430511","","image-keyboard-response","392","260492","0.0-321.0","3AAPLD8UCD3N50KYUPZDFVQVC9OTHI","A3LA5P3N3KI8U7","3DFYDSXB2WMWAZWJRSN67LWQ0PPJUT","","img/set1/S1.jpg","83","1","random","83","true","random,structured_normal,structured_incentive","2,3,1,2","",""
"null","","html-keyboard-response","393","260844","0.0-322.0","3AAPLD8UCD3N50KYUPZDFVQVC9OTHI","A3LA5P3N3KI8U7","3DFYDSXB2WMWAZWJRSN67LWQ0PPJUT","","<img src=""img/set1/S1.jpg"" width=""540"" height = ""360"" style=""border:16px solid orange"">","null","","","","","","","",""
"null","","html-keyboard-response","394","260847","0.0-323.0","3AAPLD8UCD3N50KYUPZDFVQVC9OTHI","A3LA5P3N3KI8U7","3DFYDSXB2WMWAZWJRSN67LWQ0PPJUT","","","null","","","","","","","",""
"566.0999999046326","","image-keyboard-response","395","261414","0.0-324.0","3AAPLD8UCD3N50KYUPZDFVQVC9OTHI","A3LA5P3N3KI8U7","3DFYDSXB2WMWAZWJRSN67LWQ0PPJUT","","img/set1/S2.jpg","68","2","random","68","true","random,structured_normal,structured_incentive","2,3,1,2","",""
"null","","html-keyboard-response","396","261765","0.0-325.0","3AAPLD8UCD3N50KYUPZDFVQVC9OTHI","A3LA5P3N3KI8U7","3DFYDSXB2WMWAZWJRSN67LWQ0PPJUT","","<img src=""img/set1/S2.jpg"" width=""540"" height = ""360"" style=""border:16px solid orange"">","null","","","","","","","",""
"null","","html-keyboard-response","397","261768","0.0-326.0","3AAPLD8UCD3N50KYUPZDFVQVC9OTHI","A3LA5P3N3KI8U7","3DFYDSXB2WMWAZWJRSN67LWQ0PPJUT","","","null","","","","","","","",""
"793","","image-keyboard-response","398","262561","0.0-327.0","3AAPLD8UCD3N50KYUPZDFVQVC9OTHI","A3LA5P3N3KI8U7","3DFYDSXB2WMWAZWJRSN67LWQ0PPJUT","","img/set1/S3.jpg","72","3","random","72","true","random,structured_normal,structured_incentive","2,3,1,2","",""
"null","","html-keyboard-response","399","262913","0.0-328.0","3AAPLD8UCD3N50KYUPZDFVQVC9OTHI","A3LA5P3N3KI8U7","3DFYDSXB2WMWAZWJRSN67LWQ0PPJUT","","<img src=""img/set1/S3.jpg"" width=""540"" height = ""360"" style=""border:16px solid orange"">","null","","","","","","","",""
"null","","html-keyboard-response","400","262916","0.0-329.0","3AAPLD8UCD3N50KYUPZDFVQVC9OTHI","A3LA5P3N3KI8U7","3DFYDSXB2WMWAZWJRSN67LWQ0PPJUT","","","null","","","","","","","",""
"644.7999999523163","","image-keyboard-response","401","263562","0.0-330.0","3AAPLD8UCD3N50KYUPZDFVQVC9OTHI","A3LA5P3N3KI8U7","3DFYDSXB2WMWAZWJRSN67LWQ0PPJUT","","img/set1/S2.jpg","68","2","random","68","true","random,structured_normal,structured_incentive","2,3,1,2","",""
"null","","html-keyboard-response","402","263914","0.0-331.0","3AAPLD8UCD3N50KYUPZDFVQVC9OTHI","A3LA5P3N3KI8U7","3DFYDSXB2WMWAZWJRSN67LWQ0PPJUT","","<img src=""img/set1/S2.jpg"" width=""540"" height = ""360"" style=""border:16px solid orange"">","null","","","","","","","",""
"null","","html-keyboard-response","403","263916","0.0-332.0","3AAPLD8UCD3N50KYUPZDFVQVC9OTHI","A3LA5P3N3KI8U7","3DFYDSXB2WMWAZWJRSN67LWQ0PPJUT","","","null","","","","","","","",""
"530.7000000476837","","image-keyboard-response","404","264447","0.0-333.0","3AAPLD8UCD3N50KYUPZDFVQVC9OTHI","A3LA5P3N3KI8U7","3DFYDSXB2WMWAZWJRSN67LWQ0PPJUT","","img/set1/S2.jpg","68","2","random","68","true","random,structured_normal,structured_incentive","2,3,1,2","",""
"null","","html-keyboard-response","405","264799","0.0-334.0","3AAPLD8UCD3N50KYUPZDFVQVC9OTHI","A3LA5P3N3KI8U7","3DFYDSXB2WMWAZWJRSN67LWQ0PPJUT","","<img src=""img/set1/S2.jpg"" width=""540"" height = ""360"" style=""border:16px solid orange"">","null","","","","","","","",""
"null","","html-keyboard-response","406","264801","0.0-335.0","3AAPLD8UCD3N50KYUPZDFVQVC9OTHI","A3LA5P3N3KI8U7","3DFYDSXB2WMWAZWJRSN67LWQ0PPJUT","","","null","","","","","","","",""
"744.5","","image-keyboard-response","407","265547","0.0-336.0","3AAPLD8UCD3N50KYUPZDFVQVC9OTHI","A3LA5P3N3KI8U7","3DFYDSXB2WMWAZWJRSN67LWQ0PPJUT","","img/set1/S1.jpg","83","1","random","83","true","random,structured_normal,structured_incentive","2,3,1,2","",""
"null","","html-keyboard-response","408","265899","0.0-337.0","3AAPLD8UCD3N50KYUPZDFVQVC9OTHI","A3LA5P3N3KI8U7","3DFYDSXB2WMWAZWJRSN67LWQ0PPJUT","","<img src=""img/set1/S1.jpg"" width=""540"" height = ""360"" style=""border:16px solid orange"">","null","","","","","","","",""
"null","","html-keyboard-response","409","265902","0.0-338.0","3AAPLD8UCD3N50KYUPZDFVQVC9OTHI","A3LA5P3N3KI8U7","3DFYDSXB2WMWAZWJRSN67LWQ0PPJUT","","","null","","","","","","","",""
"592.3999998569489","","image-keyboard-response","410","266495","0.0-339.0","3AAPLD8UCD3N50KYUPZDFVQVC9OTHI","A3LA5P3N3KI8U7","3DFYDSXB2WMWAZWJRSN67LWQ0PPJUT","","img/set1/S2.jpg","72","2","random","68","false","random,structured_normal,structured_incentive","2,3,1,2","",""
"null","","html-keyboard-response","411","266847","0.0-340.0","3AAPLD8UCD3N50KYUPZDFVQVC9OTHI","A3LA5P3N3KI8U7","3DFYDSXB2WMWAZWJRSN67LWQ0PPJUT","","<img src=""img/set1/S2.jpg"" width=""540"" height = ""360"">","null","","","","","","","",""
"null","","html-keyboard-response","412","266850","0.0-341.0","3AAPLD8UCD3N50KYUPZDFVQVC9OTHI","A3LA5P3N3KI8U7","3DFYDSXB2WMWAZWJRSN67LWQ0PPJUT","","","null","","","","","","","",""
"56.40000009536743","","image-keyboard-response","413","266907","0.0-342.0","3AAPLD8UCD3N50KYUPZDFVQVC9OTHI","A3LA5P3N3KI8U7","3DFYDSXB2WMWAZWJRSN67LWQ0PPJUT","","img/set1/S4.jpg","68","4","random","74","false","random,structured_normal,structured_incentive","2,3,1,2","",""
"null","","html-keyboard-response","414","267259","0.0-343.0","3AAPLD8UCD3N50KYUPZDFVQVC9OTHI","A3LA5P3N3KI8U7","3DFYDSXB2WMWAZWJRSN67LWQ0PPJUT","","<img src=""img/set1/S4.jpg"" width=""540"" height = ""360"">","null","","","","","","","",""
"null","","html-keyboard-response","415","267261","0.0-344.0","3AAPLD8UCD3N50KYUPZDFVQVC9OTHI","A3LA5P3N3KI8U7","3DFYDSXB2WMWAZWJRSN67LWQ0PPJUT","","","null","","","","","","","",""
"824.5999999046326","","image-keyboard-response","416","268087","0.0-345.0","3AAPLD8UCD3N50KYUPZDFVQVC9OTHI","A3LA5P3N3KI8U7","3DFYDSXB2WMWAZWJRSN67LWQ0PPJUT","","img/set1/S1.jpg","83","1","random","83","true","random,structured_normal,structured_incentive","2,3,1,2","",""
