"rt","url","trial_type","trial_index","time_elapsed","internal_node_id","assignmentID","mturkID","hitID","view_history","stimulus","key_press","state","test_part","correct_response","correct","order_block","order_chunk","bonus","responses"
"39456.5","consent.html","external-html","0","39772","0.0-0.0","3K5TEWLKGWX2ENZ752HDGPFV97JIVG","A3P9TM5PRYBH90","3R5LWXWHR0UE010DORDQUF3E2FPGXE","","","","","","","","","","",""
"96117.90000000596","","instructions","1","135894","0.0-1.0","3K5TEWLKGWX2ENZ752HDGPFV97JIVG","A3P9TM5PRYBH90","3R5LWXWHR0UE010DORDQUF3E2FPGXE","[{""page_index"":0,""viewing_time"":3548.5},{""page_index"":1,""viewing_time"":10481.5},{""page_index"":2,""viewing_time"":9972.40000000596},{""page_index"":3,""viewing_time"":24625.09999999404},{""page_index"":4,""viewing_time"":8240.40000000596},{""page_index"":5,""viewing_time"":14918.59999999404},{""page_index"":6,""viewing_time"":8735.09999999404},{""page_index"":7,""viewing_time"":15594.40000000596}]","","","","","","","","","",""
"1592.7999999970198","","image-keyboard-response","2","137491","0.0-2.0-0.0","3K5TEWLKGWX2ENZ752HDGPFV97JIVG","A3P9TM5PRYBH90","3R5LWXWHR0UE010DORDQUF3E2FPGXE","","img/practice/S1.jpg","68","1","practice","83","false","","","",""
"null","","html-keyboard-response","3","137795","0.0-2.0-1.0","3K5TEWLKGWX2ENZ752HDGPFV97JIVG","A3P9TM5PRYBH90","3R5LWXWHR0UE010DORDQUF3E2FPGXE","","<img src=""img/practice/S1.jpg"" width=""540"" height = ""360"">","null","","","","","","","",""
"null","","html-keyboard-response","4","137804","0.0-2.0-2.0","3K5TEWLKGWX2ENZ752HDGPFV97JIVG","A3P9TM5PRYBH90","3R5LWXWHR0UE010DORDQUF3E2FPGXE","","","null","","","","","","","",""
"1146","","image-keyboard-response","5","138955","0.0-2.0-0.1","3K5TEWLKGWX2ENZ752HDGPFV97JIVG","A3P9TM5PRYBH90","3R5LWXWHR0UE010DORDQUF3E2FPGXE","","img/practice/S3.jpg","74","3","practice","72","false","","","",""
"null","","html-keyboard-response","6","139259","0.0-2.0-1.1","3K5TEWLKGWX2ENZ752HDGPFV97JIVG","A3P9TM5PRYBH90","3R5LWXWHR0UE010DORDQUF3E2FPGXE","","<img src=""img/practice/S3.jpg"" width=""540"" height = ""360"">","null","","","","","","","",""
"null","","html-keyboard-response","7","139264","0.0-2.0-2.1","3K5TEWLKGWX2ENZ752HDGPFV97JIVG","A3P9TM5PRYBH90","3R5LWXWHR0UE010DORDQUF3E2FPGXE","","","null","","","","","","","",""
"null","","image-keyboard-response","8","141769","0.0-2.0-0.2","3K5TEWLKGWX2ENZ752HDGPFV97JIVG","A3P9TM5PRYBH90","3R5LWXWHR0UE010DORDQUF3E2FPGXE","","img/practice/S4.jpg","null","4","practice","74","false","","","",""
"null","","html-keyboard-response","9","142083","0.0-2.0-1.2","3K5TEWLKGWX2ENZ752HDGPFV97JIVG","A3P9TM5PRYBH90","3R5LWXWHR0UE010DORDQUF3E2FPGXE","","<img src=""img/practice/S4.jpg"" width=""540"" height = ""360"">","null","","","","","","","",""
"null","","html-keyboard-response","10","142089","0.0-2.0-2.2","3K5TEWLKGWX2ENZ752HDGPFV97JIVG","A3P9TM5PRYBH90","3R5LWXWHR0UE010DORDQUF3E2FPGXE","","","null","","","","","","","",""
"758.7999999970198","","image-keyboard-response","11","142850","0.0-2.0-0.3","3K5TEWLKGWX2ENZ752HDGPFV97JIVG","A3P9TM5PRYBH90","3R5LWXWHR0UE010DORDQUF3E2FPGXE","","img/practice/S2.jpg","83","2","practice","68","false","","","",""
"null","","html-keyboard-response","12","143153","0.0-2.0-1.3","3K5TEWLKGWX2ENZ752HDGPFV97JIVG","A3P9TM5PRYBH90","3R5LWXWHR0UE010DORDQUF3E2FPGXE","","<img src=""img/practice/S2.jpg"" width=""540"" height = ""360"">","null","","","","","","","",""
"null","","html-keyboard-response","13","143156","0.0-2.0-2.3","3K5TEWLKGWX2ENZ752HDGPFV97JIVG","A3P9TM5PRYBH90","3R5LWXWHR0UE010DORDQUF3E2FPGXE","","","null","","","","","","","",""
"1339.1000000089407","","image-keyboard-response","14","144497","0.0-2.0-0.4","3K5TEWLKGWX2ENZ752HDGPFV97JIVG","A3P9TM5PRYBH90","3R5LWXWHR0UE010DORDQUF3E2FPGXE","","img/practice/S2.jpg","83","2","practice","68","false","","","",""
"null","","html-keyboard-response","15","144800","0.0-2.0-1.4","3K5TEWLKGWX2ENZ752HDGPFV97JIVG","A3P9TM5PRYBH90","3R5LWXWHR0UE010DORDQUF3E2FPGXE","","<img src=""img/practice/S2.jpg"" width=""540"" height = ""360"">","null","","","","","","","",""
"null","","html-keyboard-response","16","144805","0.0-2.0-2.4","3K5TEWLKGWX2ENZ752HDGPFV97JIVG","A3P9TM5PRYBH90","3R5LWXWHR0UE010DORDQUF3E2FPGXE","","","null","","","","","","","",""
"1241.9000000059605","","image-keyboard-response","17","146049","0.0-2.0-0.5","3K5TEWLKGWX2ENZ752HDGPFV97JIVG","A3P9TM5PRYBH90","3R5LWXWHR0UE010DORDQUF3E2FPGXE","","img/practice/S4.jpg","68","4","practice","74","false","","","",""
"null","","html-keyboard-response","18","146354","0.0-2.0-1.5","3K5TEWLKGWX2ENZ752HDGPFV97JIVG","A3P9TM5PRYBH90","3R5LWXWHR0UE010DORDQUF3E2FPGXE","","<img src=""img/practice/S4.jpg"" width=""540"" height = ""360"">","null","","","","","","","",""
"null","","html-keyboard-response","19","146356","0.0-2.0-2.5","3K5TEWLKGWX2ENZ752HDGPFV97JIVG","A3P9TM5PRYBH90","3R5LWXWHR0UE010DORDQUF3E2FPGXE","","","null","","","","","","","",""
"1410.9000000059605","","image-keyboard-response","20","147769","0.0-2.0-0.6","3K5TEWLKGWX2ENZ752HDGPFV97JIVG","A3P9TM5PRYBH90","3R5LWXWHR0UE010DORDQUF3E2FPGXE","","img/practice/S1.jpg","74","1","practice","83","false","","","",""
"null","","html-keyboard-response","21","148074","0.0-2.0-1.6","3K5TEWLKGWX2ENZ752HDGPFV97JIVG","A3P9TM5PRYBH90","3R5LWXWHR0UE010DORDQUF3E2FPGXE","","<img src=""img/practice/S1.jpg"" width=""540"" height = ""360"">","null","","","","","","","",""
"null","","html-keyboard-response","22","148077","0.0-2.0-2.6","3K5TEWLKGWX2ENZ752HDGPFV97JIVG","A3P9TM5PRYBH90","3R5LWXWHR0UE010DORDQUF3E2FPGXE","","","null","","","","","","","",""
"null","","image-keyboard-response","23","150583","0.0-2.0-0.7","3K5TEWLKGWX2ENZ752HDGPFV97JIVG","A3P9TM5PRYBH90","3R5LWXWHR0UE010DORDQUF3E2FPGXE","","img/practice/S3.jpg","null","3","practice","72","false","","","",""
"null","","html-keyboard-response","24","150887","0.0-2.0-1.7","3K5TEWLKGWX2ENZ752HDGPFV97JIVG","A3P9TM5PRYBH90","3R5LWXWHR0UE010DORDQUF3E2FPGXE","","<img src=""img/practice/S3.jpg"" width=""540"" height = ""360"">","null","","","","","","","",""
"null","","html-keyboard-response","25","150895","0.0-2.0-2.7","3K5TEWLKGWX2ENZ752HDGPFV97JIVG","A3P9TM5PRYBH90","3R5LWXWHR0UE010DORDQUF3E2FPGXE","","","null","","","","","","","",""
"728.3000000119209","","image-keyboard-response","26","151627","0.0-2.0-0.8","3K5TEWLKGWX2ENZ752HDGPFV97JIVG","A3P9TM5PRYBH90","3R5LWXWHR0UE010DORDQUF3E2FPGXE","","img/practice/S2.jpg","68","2","practice","68","true","","","",""
"null","","html-keyboard-response","27","151930","0.0-2.0-1.8","3K5TEWLKGWX2ENZ752HDGPFV97JIVG","A3P9TM5PRYBH90","3R5LWXWHR0UE010DORDQUF3E2FPGXE","","<img src=""img/practice/S2.jpg"" width=""540"" height = ""360"" style=""border:16px solid orange"">","null","","","","","","","",""
"null","","html-keyboard-response","28","151932","0.0-2.0-2.8","3K5TEWLKGWX2ENZ752HDGPFV97JIVG","A3P9TM5PRYBH90","3R5LWXWHR0UE010DORDQUF3E2FPGXE","","","null","","","","","","","",""
"1690.0999999940395","","image-keyboard-response","29","153625","0.0-2.0-0.9","3K5TEWLKGWX2ENZ752HDGPFV97JIVG","A3P9TM5PRYBH90","3R5LWXWHR0UE010DORDQUF3E2FPGXE","","img/practice/S1.jpg","74","1","practice","83","false","","","",""
"null","","html-keyboard-response","30","153930","0.0-2.0-1.9","3K5TEWLKGWX2ENZ752HDGPFV97JIVG","A3P9TM5PRYBH90","3R5LWXWHR0UE010DORDQUF3E2FPGXE","","<img src=""img/practice/S1.jpg"" width=""540"" height = ""360"">","null","","","","","","","",""
"null","","html-keyboard-response","31","153938","0.0-2.0-2.9","3K5TEWLKGWX2ENZ752HDGPFV97JIVG","A3P9TM5PRYBH90","3R5LWXWHR0UE010DORDQUF3E2FPGXE","","","null","","","","","","","",""
"1125.7000000029802","","image-keyboard-response","32","155066","0.0-2.0-0.10","3K5TEWLKGWX2ENZ752HDGPFV97JIVG","A3P9TM5PRYBH90","3R5LWXWHR0UE010DORDQUF3E2FPGXE","","img/practice/S4.jpg","83","4","practice","74","false","","","",""
"null","","html-keyboard-response","33","155371","0.0-2.0-1.10","3K5TEWLKGWX2ENZ752HDGPFV97JIVG","A3P9TM5PRYBH90","3R5LWXWHR0UE010DORDQUF3E2FPGXE","","<img src=""img/practice/S4.jpg"" width=""540"" height = ""360"">","null","","","","","","","",""
"null","","html-keyboard-response","34","155374","0.0-2.0-2.10","3K5TEWLKGWX2ENZ752HDGPFV97JIVG","A3P9TM5PRYBH90","3R5LWXWHR0UE010DORDQUF3E2FPGXE","","","null","","","","","","","",""
"1306.5","","image-keyboard-response","35","156683","0.0-2.0-0.11","3K5TEWLKGWX2ENZ752HDGPFV97JIVG","A3P9TM5PRYBH90","3R5LWXWHR0UE010DORDQUF3E2FPGXE","","img/practice/S3.jpg","74","3","practice","72","false","","","",""
"null","","html-keyboard-response","36","156986","0.0-2.0-1.11","3K5TEWLKGWX2ENZ752HDGPFV97JIVG","A3P9TM5PRYBH90","3R5LWXWHR0UE010DORDQUF3E2FPGXE","","<img src=""img/practice/S3.jpg"" width=""540"" height = ""360"">","null","","","","","","","",""
"null","","html-keyboard-response","37","156988","0.0-2.0-2.11","3K5TEWLKGWX2ENZ752HDGPFV97JIVG","A3P9TM5PRYBH90","3R5LWXWHR0UE010DORDQUF3E2FPGXE","","","null","","","","","","","",""
"null","","image-keyboard-response","38","159491","0.0-2.0-0.12","3K5TEWLKGWX2ENZ752HDGPFV97JIVG","A3P9TM5PRYBH90","3R5LWXWHR0UE010DORDQUF3E2FPGXE","","img/practice/S3.jpg","null","3","practice","72","false","","","",""
"null","","html-keyboard-response","39","159794","0.0-2.0-1.12","3K5TEWLKGWX2ENZ752HDGPFV97JIVG","A3P9TM5PRYBH90","3R5LWXWHR0UE010DORDQUF3E2FPGXE","","<img src=""img/practice/S3.jpg"" width=""540"" height = ""360"">","null","","","","","","","",""
"null","","html-keyboard-response","40","159802","0.0-2.0-2.12","3K5TEWLKGWX2ENZ752HDGPFV97JIVG","A3P9TM5PRYBH90","3R5LWXWHR0UE010DORDQUF3E2FPGXE","","","null","","","","","","","",""
"677.9000000059605","","image-keyboard-response","41","160483","0.0-2.0-0.13","3K5TEWLKGWX2ENZ752HDGPFV97JIVG","A3P9TM5PRYBH90","3R5LWXWHR0UE010DORDQUF3E2FPGXE","","img/practice/S2.jpg","68","2","practice","68","true","","","",""
"null","","html-keyboard-response","42","160793","0.0-2.0-1.13","3K5TEWLKGWX2ENZ752HDGPFV97JIVG","A3P9TM5PRYBH90","3R5LWXWHR0UE010DORDQUF3E2FPGXE","","<img src=""img/practice/S2.jpg"" width=""540"" height = ""360"" style=""border:16px solid orange"">","null","","","","","","","",""
"null","","html-keyboard-response","43","160797","0.0-2.0-2.13","3K5TEWLKGWX2ENZ752HDGPFV97JIVG","A3P9TM5PRYBH90","3R5LWXWHR0UE010DORDQUF3E2FPGXE","","","null","","","","","","","",""
"1395.199999988079","","image-keyboard-response","44","162194","0.0-2.0-0.14","3K5TEWLKGWX2ENZ752HDGPFV97JIVG","A3P9TM5PRYBH90","3R5LWXWHR0UE010DORDQUF3E2FPGXE","","img/practice/S4.jpg","74","4","practice","74","true","","","",""
"null","","html-keyboard-response","45","162496","0.0-2.0-1.14","3K5TEWLKGWX2ENZ752HDGPFV97JIVG","A3P9TM5PRYBH90","3R5LWXWHR0UE010DORDQUF3E2FPGXE","","<img src=""img/practice/S4.jpg"" width=""540"" height = ""360"" style=""border:16px solid orange"">","null","","","","","","","",""
"null","","html-keyboard-response","46","162500","0.0-2.0-2.14","3K5TEWLKGWX2ENZ752HDGPFV97JIVG","A3P9TM5PRYBH90","3R5LWXWHR0UE010DORDQUF3E2FPGXE","","","null","","","","","","","",""
"1384.6000000089407","","image-keyboard-response","47","163891","0.0-2.0-0.15","3K5TEWLKGWX2ENZ752HDGPFV97JIVG","A3P9TM5PRYBH90","3R5LWXWHR0UE010DORDQUF3E2FPGXE","","img/practice/S1.jpg","74","1","practice","83","false","","","",""
"null","","html-keyboard-response","48","164194","0.0-2.0-1.15","3K5TEWLKGWX2ENZ752HDGPFV97JIVG","A3P9TM5PRYBH90","3R5LWXWHR0UE010DORDQUF3E2FPGXE","","<img src=""img/practice/S1.jpg"" width=""540"" height = ""360"">","null","","","","","","","",""
"null","","html-keyboard-response","49","164197","0.0-2.0-2.15","3K5TEWLKGWX2ENZ752HDGPFV97JIVG","A3P9TM5PRYBH90","3R5LWXWHR0UE010DORDQUF3E2FPGXE","","","null","","","","","","","",""
"738.2000000029802","","image-keyboard-response","50","164938","0.0-2.0-0.16","3K5TEWLKGWX2ENZ752HDGPFV97JIVG","A3P9TM5PRYBH90","3R5LWXWHR0UE010DORDQUF3E2FPGXE","","img/practice/S2.jpg","68","2","practice","68","true","","","",""
"null","","html-keyboard-response","51","165243","0.0-2.0-1.16","3K5TEWLKGWX2ENZ752HDGPFV97JIVG","A3P9TM5PRYBH90","3R5LWXWHR0UE010DORDQUF3E2FPGXE","","<img src=""img/practice/S2.jpg"" width=""540"" height = ""360"" style=""border:16px solid orange"">","null","","","","","","","",""
"null","","html-keyboard-response","52","165247","0.0-2.0-2.16","3K5TEWLKGWX2ENZ752HDGPFV97JIVG","A3P9TM5PRYBH90","3R5LWXWHR0UE010DORDQUF3E2FPGXE","","","null","","","","","","","",""
"623.8999999910593","","image-keyboard-response","53","165874","0.0-2.0-0.17","3K5TEWLKGWX2ENZ752HDGPFV97JIVG","A3P9TM5PRYBH90","3R5LWXWHR0UE010DORDQUF3E2FPGXE","","img/practice/S4.jpg","74","4","practice","74","true","","","",""
"null","","html-keyboard-response","54","166177","0.0-2.0-1.17","3K5TEWLKGWX2ENZ752HDGPFV97JIVG","A3P9TM5PRYBH90","3R5LWXWHR0UE010DORDQUF3E2FPGXE","","<img src=""img/practice/S4.jpg"" width=""540"" height = ""360"" style=""border:16px solid orange"">","null","","","","","","","",""
"null","","html-keyboard-response","55","166180","0.0-2.0-2.17","3K5TEWLKGWX2ENZ752HDGPFV97JIVG","A3P9TM5PRYBH90","3R5LWXWHR0UE010DORDQUF3E2FPGXE","","","null","","","","","","","",""
"null","","image-keyboard-response","56","168683","0.0-2.0-0.18","3K5TEWLKGWX2ENZ752HDGPFV97JIVG","A3P9TM5PRYBH90","3R5LWXWHR0UE010DORDQUF3E2FPGXE","","img/practice/S3.jpg","null","3","practice","72","false","","","",""
"null","","html-keyboard-response","57","168986","0.0-2.0-1.18","3K5TEWLKGWX2ENZ752HDGPFV97JIVG","A3P9TM5PRYBH90","3R5LWXWHR0UE010DORDQUF3E2FPGXE","","<img src=""img/practice/S3.jpg"" width=""540"" height = ""360"">","null","","","","","","","",""
"null","","html-keyboard-response","58","168992","0.0-2.0-2.18","3K5TEWLKGWX2ENZ752HDGPFV97JIVG","A3P9TM5PRYBH90","3R5LWXWHR0UE010DORDQUF3E2FPGXE","","","null","","","","","","","",""
"1272.9000000059605","","image-keyboard-response","59","170267","0.0-2.0-0.19","3K5TEWLKGWX2ENZ752HDGPFV97JIVG","A3P9TM5PRYBH90","3R5LWXWHR0UE010DORDQUF3E2FPGXE","","img/practice/S1.jpg","83","1","practice","83","true","","","",""
"null","","html-keyboard-response","60","170570","0.0-2.0-1.19","3K5TEWLKGWX2ENZ752HDGPFV97JIVG","A3P9TM5PRYBH90","3R5LWXWHR0UE010DORDQUF3E2FPGXE","","<img src=""img/practice/S1.jpg"" width=""540"" height = ""360"" style=""border:16px solid orange"">","null","","","","","","","",""
"null","","html-keyboard-response","61","170573","0.0-2.0-2.19","3K5TEWLKGWX2ENZ752HDGPFV97JIVG","A3P9TM5PRYBH90","3R5LWXWHR0UE010DORDQUF3E2FPGXE","","","null","","","","","","","",""
"null","","image-keyboard-response","62","173077","0.0-2.0-0.20","3K5TEWLKGWX2ENZ752HDGPFV97JIVG","A3P9TM5PRYBH90","3R5LWXWHR0UE010DORDQUF3E2FPGXE","","img/practice/S3.jpg","null","3","practice","72","false","","","",""
"null","","html-keyboard-response","63","173394","0.0-2.0-1.20","3K5TEWLKGWX2ENZ752HDGPFV97JIVG","A3P9TM5PRYBH90","3R5LWXWHR0UE010DORDQUF3E2FPGXE","","<img src=""img/practice/S3.jpg"" width=""540"" height = ""360"">","null","","","","","","","",""
"null","","html-keyboard-response","64","173406","0.0-2.0-2.20","3K5TEWLKGWX2ENZ752HDGPFV97JIVG","A3P9TM5PRYBH90","3R5LWXWHR0UE010DORDQUF3E2FPGXE","","","null","","","","","","","",""
"1001","","image-keyboard-response","65","174410","0.0-2.0-0.21","3K5TEWLKGWX2ENZ752HDGPFV97JIVG","A3P9TM5PRYBH90","3R5LWXWHR0UE010DORDQUF3E2FPGXE","","img/practice/S4.jpg","74","4","practice","74","true","","","",""
"null","","html-keyboard-response","66","174714","0.0-2.0-1.21","3K5TEWLKGWX2ENZ752HDGPFV97JIVG","A3P9TM5PRYBH90","3R5LWXWHR0UE010DORDQUF3E2FPGXE","","<img src=""img/practice/S4.jpg"" width=""540"" height = ""360"" style=""border:16px solid orange"">","null","","","","","","","",""
"null","","html-keyboard-response","67","174717","0.0-2.0-2.21","3K5TEWLKGWX2ENZ752HDGPFV97JIVG","A3P9TM5PRYBH90","3R5LWXWHR0UE010DORDQUF3E2FPGXE","","","null","","","","","","","",""
"1051","","image-keyboard-response","68","175770","0.0-2.0-0.22","3K5TEWLKGWX2ENZ752HDGPFV97JIVG","A3P9TM5PRYBH90","3R5LWXWHR0UE010DORDQUF3E2FPGXE","","img/practice/S1.jpg","83","1","practice","83","true","","","",""
"null","","html-keyboard-response","69","176075","0.0-2.0-1.22","3K5TEWLKGWX2ENZ752HDGPFV97JIVG","A3P9TM5PRYBH90","3R5LWXWHR0UE010DORDQUF3E2FPGXE","","<img src=""img/practice/S1.jpg"" width=""540"" height = ""360"" style=""border:16px solid orange"">","null","","","","","","","",""
"null","","html-keyboard-response","70","176080","0.0-2.0-2.22","3K5TEWLKGWX2ENZ752HDGPFV97JIVG","A3P9TM5PRYBH90","3R5LWXWHR0UE010DORDQUF3E2FPGXE","","","null","","","","","","","",""
"710.4000000059605","","image-keyboard-response","71","176795","0.0-2.0-0.23","3K5TEWLKGWX2ENZ752HDGPFV97JIVG","A3P9TM5PRYBH90","3R5LWXWHR0UE010DORDQUF3E2FPGXE","","img/practice/S2.jpg","68","2","practice","68","true","","","",""
"null","","html-keyboard-response","72","177099","0.0-2.0-1.23","3K5TEWLKGWX2ENZ752HDGPFV97JIVG","A3P9TM5PRYBH90","3R5LWXWHR0UE010DORDQUF3E2FPGXE","","<img src=""img/practice/S2.jpg"" width=""540"" height = ""360"" style=""border:16px solid orange"">","null","","","","","","","",""
"null","","html-keyboard-response","73","177102","0.0-2.0-2.23","3K5TEWLKGWX2ENZ752HDGPFV97JIVG","A3P9TM5PRYBH90","3R5LWXWHR0UE010DORDQUF3E2FPGXE","","","null","","","","","","","",""
"13142.20000000298","","instructions","74","190246","0.0-3.0","3K5TEWLKGWX2ENZ752HDGPFV97JIVG","A3P9TM5PRYBH90","3R5LWXWHR0UE010DORDQUF3E2FPGXE","[{""page_index"":0,""viewing_time"":13141.09999999404}]","","","","","","","","","",""
"9732","","instructions","75","199980","0.0-4.0","3K5TEWLKGWX2ENZ752HDGPFV97JIVG","A3P9TM5PRYBH90","3R5LWXWHR0UE010DORDQUF3E2FPGXE","[{""page_index"":0,""viewing_time"":9731.29999999702}]","","","","","","","","","",""
"16672.20000000298","","instructions","76","216653","0.0-5.0","3K5TEWLKGWX2ENZ752HDGPFV97JIVG","A3P9TM5PRYBH90","3R5LWXWHR0UE010DORDQUF3E2FPGXE","[{""page_index"":0,""viewing_time"":10446.5},{""page_index"":1,""viewing_time"":6225.29999999702}]","","","","","","","","","",""
"null","","image-keyboard-response","77","219157","0.0-6.0","3K5TEWLKGWX2ENZ752HDGPFV97JIVG","A3P9TM5PRYBH90","3R5LWXWHR0UE010DORDQUF3E2FPGXE","","img/set1/S2.jpg","null","2","structured_incentive","68","false","structured_incentive,structured_normal,random","2,3,1,2","",""
"null","","html-keyboard-response","78","219515","0.0-7.0","3K5TEWLKGWX2ENZ752HDGPFV97JIVG","A3P9TM5PRYBH90","3R5LWXWHR0UE010DORDQUF3E2FPGXE","","<img src=""img/set1/S2.jpg"" width=""540"" height = ""360"">","null","","","","","","","",""
"null","","html-keyboard-response","79","219518","0.0-8.0","3K5TEWLKGWX2ENZ752HDGPFV97JIVG","A3P9TM5PRYBH90","3R5LWXWHR0UE010DORDQUF3E2FPGXE","","","null","","","","","","","",""
"1553.5","","image-keyboard-response","80","221075","0.0-9.0","3K5TEWLKGWX2ENZ752HDGPFV97JIVG","A3P9TM5PRYBH90","3R5LWXWHR0UE010DORDQUF3E2FPGXE","","img/set1/S3.jpg","68","3","structured_incentive","72","false","structured_incentive,structured_normal,random","2,3,1,2","",""
"null","","html-keyboard-response","81","221430","0.0-10.0","3K5TEWLKGWX2ENZ752HDGPFV97JIVG","A3P9TM5PRYBH90","3R5LWXWHR0UE010DORDQUF3E2FPGXE","","<img src=""img/set1/S3.jpg"" width=""540"" height = ""360"">","null","","","","","","","",""
"null","","html-keyboard-response","82","221433","0.0-11.0","3K5TEWLKGWX2ENZ752HDGPFV97JIVG","A3P9TM5PRYBH90","3R5LWXWHR0UE010DORDQUF3E2FPGXE","","","null","","","","","","","",""
"934.6999999880791","","image-keyboard-response","83","222370","0.0-12.0","3K5TEWLKGWX2ENZ752HDGPFV97JIVG","A3P9TM5PRYBH90","3R5LWXWHR0UE010DORDQUF3E2FPGXE","","img/set1/S4.jpg","72","4","structured_incentive","74","false","structured_incentive,structured_normal,random","2,3,1,2","",""
"null","","html-keyboard-response","84","222724","0.0-13.0","3K5TEWLKGWX2ENZ752HDGPFV97JIVG","A3P9TM5PRYBH90","3R5LWXWHR0UE010DORDQUF3E2FPGXE","","<img src=""img/set1/S4.jpg"" width=""540"" height = ""360"">","null","","","","","","","",""
"null","","html-keyboard-response","85","222727","0.0-14.0","3K5TEWLKGWX2ENZ752HDGPFV97JIVG","A3P9TM5PRYBH90","3R5LWXWHR0UE010DORDQUF3E2FPGXE","","","null","","","","","","","",""
"800.4000000059605","","image-keyboard-response","86","223531","0.0-15.0","3K5TEWLKGWX2ENZ752HDGPFV97JIVG","A3P9TM5PRYBH90","3R5LWXWHR0UE010DORDQUF3E2FPGXE","","img/set1/S1.jpg","74","1","structured_incentive","83","false","structured_incentive,structured_normal,random","2,3,1,2","",""
"null","","html-keyboard-response","87","223884","0.0-16.0","3K5TEWLKGWX2ENZ752HDGPFV97JIVG","A3P9TM5PRYBH90","3R5LWXWHR0UE010DORDQUF3E2FPGXE","","<img src=""img/set1/S1.jpg"" width=""540"" height = ""360"">","null","","","","","","","",""
"null","","html-keyboard-response","88","223887","0.0-17.0","3K5TEWLKGWX2ENZ752HDGPFV97JIVG","A3P9TM5PRYBH90","3R5LWXWHR0UE010DORDQUF3E2FPGXE","","","null","","","","","","","",""
"656.5","","image-keyboard-response","89","224546","0.0-18.0","3K5TEWLKGWX2ENZ752HDGPFV97JIVG","A3P9TM5PRYBH90","3R5LWXWHR0UE010DORDQUF3E2FPGXE","","img/set1/S2.jpg","68","2","structured_incentive","68","true","structured_incentive,structured_normal,random","2,3,1,2","",""
"null","","html-keyboard-response","90","224916","0.0-19.0","3K5TEWLKGWX2ENZ752HDGPFV97JIVG","A3P9TM5PRYBH90","3R5LWXWHR0UE010DORDQUF3E2FPGXE","","<img src=""img/set1/S2.jpg"" width=""540"" height = ""360"" style=""border:16px solid orange"">","null","","","","","","","",""
"null","","html-keyboard-response","91","224923","0.0-20.0","3K5TEWLKGWX2ENZ752HDGPFV97JIVG","A3P9TM5PRYBH90","3R5LWXWHR0UE010DORDQUF3E2FPGXE","","","null","","","","","","","",""
"948.3000000119209","","image-keyboard-response","92","225874","0.0-21.0","3K5TEWLKGWX2ENZ752HDGPFV97JIVG","A3P9TM5PRYBH90","3R5LWXWHR0UE010DORDQUF3E2FPGXE","","img/set1/S4.jpg","72","4","structured_incentive","74","false","structured_incentive,structured_normal,random","2,3,1,2","",""
"null","","html-keyboard-response","93","226263","0.0-22.0","3K5TEWLKGWX2ENZ752HDGPFV97JIVG","A3P9TM5PRYBH90","3R5LWXWHR0UE010DORDQUF3E2FPGXE","","<img src=""img/set1/S4.jpg"" width=""540"" height = ""360"">","null","","","","","","","",""
"null","","html-keyboard-response","94","226266","0.0-23.0","3K5TEWLKGWX2ENZ752HDGPFV97JIVG","A3P9TM5PRYBH90","3R5LWXWHR0UE010DORDQUF3E2FPGXE","","","null","","","","","","","",""
"1271","","image-keyboard-response","95","227539","0.0-24.0","3K5TEWLKGWX2ENZ752HDGPFV97JIVG","A3P9TM5PRYBH90","3R5LWXWHR0UE010DORDQUF3E2FPGXE","","img/set1/S3.jpg","83","3","structured_incentive","72","false","structured_incentive,structured_normal,random","2,3,1,2","",""
"null","","html-keyboard-response","96","227892","0.0-25.0","3K5TEWLKGWX2ENZ752HDGPFV97JIVG","A3P9TM5PRYBH90","3R5LWXWHR0UE010DORDQUF3E2FPGXE","","<img src=""img/set1/S3.jpg"" width=""540"" height = ""360"">","null","","","","","","","",""
"null","","html-keyboard-response","97","227898","0.0-26.0","3K5TEWLKGWX2ENZ752HDGPFV97JIVG","A3P9TM5PRYBH90","3R5LWXWHR0UE010DORDQUF3E2FPGXE","","","null","","","","","","","",""
"621.2999999970198","","image-keyboard-response","98","228522","0.0-27.0","3K5TEWLKGWX2ENZ752HDGPFV97JIVG","A3P9TM5PRYBH90","3R5LWXWHR0UE010DORDQUF3E2FPGXE","","img/set1/S2.jpg","68","2","structured_incentive","68","true","structured_incentive,structured_normal,random","2,3,1,2","",""
"null","","html-keyboard-response","99","228887","0.0-28.0","3K5TEWLKGWX2ENZ752HDGPFV97JIVG","A3P9TM5PRYBH90","3R5LWXWHR0UE010DORDQUF3E2FPGXE","","<img src=""img/set1/S2.jpg"" width=""540"" height = ""360"" style=""border:16px solid orange"">","null","","","","","","","",""
"null","","html-keyboard-response","100","228890","0.0-29.0","3K5TEWLKGWX2ENZ752HDGPFV97JIVG","A3P9TM5PRYBH90","3R5LWXWHR0UE010DORDQUF3E2FPGXE","","","null","","","","","","","",""
"942.5","","image-keyboard-response","101","229834","0.0-30.0","3K5TEWLKGWX2ENZ752HDGPFV97JIVG","A3P9TM5PRYBH90","3R5LWXWHR0UE010DORDQUF3E2FPGXE","","img/set1/S3.jpg","74","3","structured_incentive","72","false","structured_incentive,structured_normal,random","2,3,1,2","",""
"null","","html-keyboard-response","102","230188","0.0-31.0","3K5TEWLKGWX2ENZ752HDGPFV97JIVG","A3P9TM5PRYBH90","3R5LWXWHR0UE010DORDQUF3E2FPGXE","","<img src=""img/set1/S3.jpg"" width=""540"" height = ""360"">","null","","","","","","","",""
"null","","html-keyboard-response","103","230191","0.0-32.0","3K5TEWLKGWX2ENZ752HDGPFV97JIVG","A3P9TM5PRYBH90","3R5LWXWHR0UE010DORDQUF3E2FPGXE","","","null","","","","","","","",""
"672.9000000059605","","image-keyboard-response","104","230867","0.0-33.0","3K5TEWLKGWX2ENZ752HDGPFV97JIVG","A3P9TM5PRYBH90","3R5LWXWHR0UE010DORDQUF3E2FPGXE","","img/set1/S2.jpg","68","2","structured_incentive","68","true","structured_incentive,structured_normal,random","2,3,1,2","",""
"null","","html-keyboard-response","105","231223","0.0-34.0","3K5TEWLKGWX2ENZ752HDGPFV97JIVG","A3P9TM5PRYBH90","3R5LWXWHR0UE010DORDQUF3E2FPGXE","","<img src=""img/set1/S2.jpg"" width=""540"" height = ""360"" style=""border:16px solid orange"">","null","","","","","","","",""
"null","","html-keyboard-response","106","231225","0.0-35.0","3K5TEWLKGWX2ENZ752HDGPFV97JIVG","A3P9TM5PRYBH90","3R5LWXWHR0UE010DORDQUF3E2FPGXE","","","null","","","","","","","",""
"957.8999999910593","","image-keyboard-response","107","232185","0.0-36.0","3K5TEWLKGWX2ENZ752HDGPFV97JIVG","A3P9TM5PRYBH90","3R5LWXWHR0UE010DORDQUF3E2FPGXE","","img/set1/S4.jpg","83","4","structured_incentive","74","false","structured_incentive,structured_normal,random","2,3,1,2","",""
"null","","html-keyboard-response","108","232540","0.0-37.0","3K5TEWLKGWX2ENZ752HDGPFV97JIVG","A3P9TM5PRYBH90","3R5LWXWHR0UE010DORDQUF3E2FPGXE","","<img src=""img/set1/S4.jpg"" width=""540"" height = ""360"">","null","","","","","","","",""
"null","","html-keyboard-response","109","232544","0.0-38.0","3K5TEWLKGWX2ENZ752HDGPFV97JIVG","A3P9TM5PRYBH90","3R5LWXWHR0UE010DORDQUF3E2FPGXE","","","null","","","","","","","",""
"800.4000000059605","","image-keyboard-response","110","233346","0.0-39.0","3K5TEWLKGWX2ENZ752HDGPFV97JIVG","A3P9TM5PRYBH90","3R5LWXWHR0UE010DORDQUF3E2FPGXE","","img/set1/S2.jpg","68","2","structured_incentive","68","true","structured_incentive,structured_normal,random","2,3,1,2","",""
"null","","html-keyboard-response","111","233701","0.0-40.0","3K5TEWLKGWX2ENZ752HDGPFV97JIVG","A3P9TM5PRYBH90","3R5LWXWHR0UE010DORDQUF3E2FPGXE","","<img src=""img/set1/S2.jpg"" width=""540"" height = ""360"" style=""border:16px solid orange"">","null","","","","","","","",""
"null","","html-keyboard-response","112","233706","0.0-41.0","3K5TEWLKGWX2ENZ752HDGPFV97JIVG","A3P9TM5PRYBH90","3R5LWXWHR0UE010DORDQUF3E2FPGXE","","","null","","","","","","","",""
"918","","image-keyboard-response","113","234626","0.0-42.0","3K5TEWLKGWX2ENZ752HDGPFV97JIVG","A3P9TM5PRYBH90","3R5LWXWHR0UE010DORDQUF3E2FPGXE","","img/set1/S3.jpg","72","3","structured_incentive","72","true","structured_incentive,structured_normal,random","2,3,1,2","",""
"null","","html-keyboard-response","114","234979","0.0-43.0","3K5TEWLKGWX2ENZ752HDGPFV97JIVG","A3P9TM5PRYBH90","3R5LWXWHR0UE010DORDQUF3E2FPGXE","","<img src=""img/set1/S3.jpg"" width=""540"" height = ""360"" style=""border:16px solid orange"">","null","","","","","","","",""
"null","","html-keyboard-response","115","234982","0.0-44.0","3K5TEWLKGWX2ENZ752HDGPFV97JIVG","A3P9TM5PRYBH90","3R5LWXWHR0UE010DORDQUF3E2FPGXE","","","null","","","","","","","",""
"826","","image-keyboard-response","116","235810","0.0-45.0","3K5TEWLKGWX2ENZ752HDGPFV97JIVG","A3P9TM5PRYBH90","3R5LWXWHR0UE010DORDQUF3E2FPGXE","","img/set1/S2.jpg","68","2","structured_incentive","68","true","structured_incentive,structured_normal,random","2,3,1,2","",""
"null","","html-keyboard-response","117","236164","0.0-46.0","3K5TEWLKGWX2ENZ752HDGPFV97JIVG","A3P9TM5PRYBH90","3R5LWXWHR0UE010DORDQUF3E2FPGXE","","<img src=""img/set1/S2.jpg"" width=""540"" height = ""360"" style=""border:16px solid orange"">","null","","","","","","","",""
"null","","html-keyboard-response","118","236168","0.0-47.0","3K5TEWLKGWX2ENZ752HDGPFV97JIVG","A3P9TM5PRYBH90","3R5LWXWHR0UE010DORDQUF3E2FPGXE","","","null","","","","","","","",""
"462.09999999403954","","image-keyboard-response","119","236634","0.0-48.0","3K5TEWLKGWX2ENZ752HDGPFV97JIVG","A3P9TM5PRYBH90","3R5LWXWHR0UE010DORDQUF3E2FPGXE","","img/set1/S3.jpg","72","3","structured_incentive","72","true","structured_incentive,structured_normal,random","2,3,1,2","",""
"null","","html-keyboard-response","120","236988","0.0-49.0","3K5TEWLKGWX2ENZ752HDGPFV97JIVG","A3P9TM5PRYBH90","3R5LWXWHR0UE010DORDQUF3E2FPGXE","","<img src=""img/set1/S3.jpg"" width=""540"" height = ""360"" style=""border:16px solid orange"">","null","","","","","","","",""
"null","","html-keyboard-response","121","236991","0.0-50.0","3K5TEWLKGWX2ENZ752HDGPFV97JIVG","A3P9TM5PRYBH90","3R5LWXWHR0UE010DORDQUF3E2FPGXE","","","null","","","","","","","",""
"961.2999999970198","","image-keyboard-response","122","237955","0.0-51.0","3K5TEWLKGWX2ENZ752HDGPFV97JIVG","A3P9TM5PRYBH90","3R5LWXWHR0UE010DORDQUF3E2FPGXE","","img/set1/S4.jpg","74","4","structured_incentive","74","true","structured_incentive,structured_normal,random","2,3,1,2","",""
"null","","html-keyboard-response","123","238308","0.0-52.0","3K5TEWLKGWX2ENZ752HDGPFV97JIVG","A3P9TM5PRYBH90","3R5LWXWHR0UE010DORDQUF3E2FPGXE","","<img src=""img/set1/S4.jpg"" width=""540"" height = ""360"" style=""border:16px solid Violet"">","null","","","","","","","",""
"null","","html-keyboard-response","124","238311","0.0-53.0","3K5TEWLKGWX2ENZ752HDGPFV97JIVG","A3P9TM5PRYBH90","3R5LWXWHR0UE010DORDQUF3E2FPGXE","","","null","","","","","","","",""
"921.5999999940395","","image-keyboard-response","125","239235","0.0-54.0","3K5TEWLKGWX2ENZ752HDGPFV97JIVG","A3P9TM5PRYBH90","3R5LWXWHR0UE010DORDQUF3E2FPGXE","","img/set1/S1.jpg","83","1","structured_incentive","83","true","structured_incentive,structured_normal,random","2,3,1,2","",""
"null","","html-keyboard-response","126","239590","0.0-55.0","3K5TEWLKGWX2ENZ752HDGPFV97JIVG","A3P9TM5PRYBH90","3R5LWXWHR0UE010DORDQUF3E2FPGXE","","<img src=""img/set1/S1.jpg"" width=""540"" height = ""360"" style=""border:16px solid orange"">","null","","","","","","","",""
"null","","html-keyboard-response","127","239593","0.0-56.0","3K5TEWLKGWX2ENZ752HDGPFV97JIVG","A3P9TM5PRYBH90","3R5LWXWHR0UE010DORDQUF3E2FPGXE","","","null","","","","","","","",""
"637.4000000059605","","image-keyboard-response","128","240234","0.0-57.0","3K5TEWLKGWX2ENZ752HDGPFV97JIVG","A3P9TM5PRYBH90","3R5LWXWHR0UE010DORDQUF3E2FPGXE","","img/set1/S1.jpg","83","1","structured_incentive","83","true","structured_incentive,structured_normal,random","2,3,1,2","",""
"null","","html-keyboard-response","129","240588","0.0-58.0","3K5TEWLKGWX2ENZ752HDGPFV97JIVG","A3P9TM5PRYBH90","3R5LWXWHR0UE010DORDQUF3E2FPGXE","","<img src=""img/set1/S1.jpg"" width=""540"" height = ""360"" style=""border:16px solid orange"">","null","","","","","","","",""
"null","","html-keyboard-response","130","240590","0.0-59.0","3K5TEWLKGWX2ENZ752HDGPFV97JIVG","A3P9TM5PRYBH90","3R5LWXWHR0UE010DORDQUF3E2FPGXE","","","null","","","","","","","",""
"737.2000000029802","","image-keyboard-response","131","241330","0.0-60.0","3K5TEWLKGWX2ENZ752HDGPFV97JIVG","A3P9TM5PRYBH90","3R5LWXWHR0UE010DORDQUF3E2FPGXE","","img/set1/S2.jpg","68","2","structured_incentive","68","true","structured_incentive,structured_normal,random","2,3,1,2","",""
"null","","html-keyboard-response","132","241684","0.0-61.0","3K5TEWLKGWX2ENZ752HDGPFV97JIVG","A3P9TM5PRYBH90","3R5LWXWHR0UE010DORDQUF3E2FPGXE","","<img src=""img/set1/S2.jpg"" width=""540"" height = ""360"" style=""border:16px solid orange"">","null","","","","","","","",""
"null","","html-keyboard-response","133","241687","0.0-62.0","3K5TEWLKGWX2ENZ752HDGPFV97JIVG","A3P9TM5PRYBH90","3R5LWXWHR0UE010DORDQUF3E2FPGXE","","","null","","","","","","","",""
"480.29999999701977","","image-keyboard-response","134","242169","0.0-63.0","3K5TEWLKGWX2ENZ752HDGPFV97JIVG","A3P9TM5PRYBH90","3R5LWXWHR0UE010DORDQUF3E2FPGXE","","img/set1/S3.jpg","72","3","structured_incentive","72","true","structured_incentive,structured_normal,random","2,3,1,2","",""
"null","","html-keyboard-response","135","242527","0.0-64.0","3K5TEWLKGWX2ENZ752HDGPFV97JIVG","A3P9TM5PRYBH90","3R5LWXWHR0UE010DORDQUF3E2FPGXE","","<img src=""img/set1/S3.jpg"" width=""540"" height = ""360"" style=""border:16px solid orange"">","null","","","","","","","",""
"null","","html-keyboard-response","136","242531","0.0-65.0","3K5TEWLKGWX2ENZ752HDGPFV97JIVG","A3P9TM5PRYBH90","3R5LWXWHR0UE010DORDQUF3E2FPGXE","","","null","","","","","","","",""
"515.5","","image-keyboard-response","137","243049","0.0-66.0","3K5TEWLKGWX2ENZ752HDGPFV97JIVG","A3P9TM5PRYBH90","3R5LWXWHR0UE010DORDQUF3E2FPGXE","","img/set1/S4.jpg","74","4","structured_incentive","74","true","structured_incentive,structured_normal,random","2,3,1,2","",""
"null","","html-keyboard-response","138","243403","0.0-67.0","3K5TEWLKGWX2ENZ752HDGPFV97JIVG","A3P9TM5PRYBH90","3R5LWXWHR0UE010DORDQUF3E2FPGXE","","<img src=""img/set1/S4.jpg"" width=""540"" height = ""360"" style=""border:16px solid Violet"">","null","","","","","","","",""
"null","","html-keyboard-response","139","243411","0.0-68.0","3K5TEWLKGWX2ENZ752HDGPFV97JIVG","A3P9TM5PRYBH90","3R5LWXWHR0UE010DORDQUF3E2FPGXE","","","null","","","","","","","",""
"1395.7999999970198","","image-keyboard-response","140","244810","0.0-69.0","3K5TEWLKGWX2ENZ752HDGPFV97JIVG","A3P9TM5PRYBH90","3R5LWXWHR0UE010DORDQUF3E2FPGXE","","img/set1/S4.jpg","74","4","structured_incentive","74","true","structured_incentive,structured_normal,random","2,3,1,2","",""
"null","","html-keyboard-response","141","245163","0.0-70.0","3K5TEWLKGWX2ENZ752HDGPFV97JIVG","A3P9TM5PRYBH90","3R5LWXWHR0UE010DORDQUF3E2FPGXE","","<img src=""img/set1/S4.jpg"" width=""540"" height = ""360"" style=""border:16px solid Violet"">","null","","","","","","","",""
"null","","html-keyboard-response","142","245165","0.0-71.0","3K5TEWLKGWX2ENZ752HDGPFV97JIVG","A3P9TM5PRYBH90","3R5LWXWHR0UE010DORDQUF3E2FPGXE","","","null","","","","","","","",""
"753.7000000029802","","image-keyboard-response","143","245921","0.0-72.0","3K5TEWLKGWX2ENZ752HDGPFV97JIVG","A3P9TM5PRYBH90","3R5LWXWHR0UE010DORDQUF3E2FPGXE","","img/set1/S2.jpg","68","2","structured_incentive","68","true","structured_incentive,structured_normal,random","2,3,1,2","",""
"null","","html-keyboard-response","144","246275","0.0-73.0","3K5TEWLKGWX2ENZ752HDGPFV97JIVG","A3P9TM5PRYBH90","3R5LWXWHR0UE010DORDQUF3E2FPGXE","","<img src=""img/set1/S2.jpg"" width=""540"" height = ""360"" style=""border:16px solid orange"">","null","","","","","","","",""
"null","","html-keyboard-response","145","246278","0.0-74.0","3K5TEWLKGWX2ENZ752HDGPFV97JIVG","A3P9TM5PRYBH90","3R5LWXWHR0UE010DORDQUF3E2FPGXE","","","null","","","","","","","",""
"521.7000000029802","","image-keyboard-response","146","246802","0.0-75.0","3K5TEWLKGWX2ENZ752HDGPFV97JIVG","A3P9TM5PRYBH90","3R5LWXWHR0UE010DORDQUF3E2FPGXE","","img/set1/S3.jpg","72","3","structured_incentive","72","true","structured_incentive,structured_normal,random","2,3,1,2","",""
"null","","html-keyboard-response","147","247155","0.0-76.0","3K5TEWLKGWX2ENZ752HDGPFV97JIVG","A3P9TM5PRYBH90","3R5LWXWHR0UE010DORDQUF3E2FPGXE","","<img src=""img/set1/S3.jpg"" width=""540"" height = ""360"" style=""border:16px solid orange"">","null","","","","","","","",""
"null","","html-keyboard-response","148","247158","0.0-77.0","3K5TEWLKGWX2ENZ752HDGPFV97JIVG","A3P9TM5PRYBH90","3R5LWXWHR0UE010DORDQUF3E2FPGXE","","","null","","","","","","","",""
"827.2000000029802","","image-keyboard-response","149","247988","0.0-78.0","3K5TEWLKGWX2ENZ752HDGPFV97JIVG","A3P9TM5PRYBH90","3R5LWXWHR0UE010DORDQUF3E2FPGXE","","img/set1/S2.jpg","68","2","structured_incentive","68","true","structured_incentive,structured_normal,random","2,3,1,2","",""
"null","","html-keyboard-response","150","248341","0.0-79.0","3K5TEWLKGWX2ENZ752HDGPFV97JIVG","A3P9TM5PRYBH90","3R5LWXWHR0UE010DORDQUF3E2FPGXE","","<img src=""img/set1/S2.jpg"" width=""540"" height = ""360"" style=""border:16px solid orange"">","null","","","","","","","",""
"null","","html-keyboard-response","151","248344","0.0-80.0","3K5TEWLKGWX2ENZ752HDGPFV97JIVG","A3P9TM5PRYBH90","3R5LWXWHR0UE010DORDQUF3E2FPGXE","","","null","","","","","","","",""
"414.29999999701977","","image-keyboard-response","152","248762","0.0-81.0","3K5TEWLKGWX2ENZ752HDGPFV97JIVG","A3P9TM5PRYBH90","3R5LWXWHR0UE010DORDQUF3E2FPGXE","","img/set1/S3.jpg","72","3","structured_incentive","72","true","structured_incentive,structured_normal,random","2,3,1,2","",""
"null","","html-keyboard-response","153","249124","0.0-82.0","3K5TEWLKGWX2ENZ752HDGPFV97JIVG","A3P9TM5PRYBH90","3R5LWXWHR0UE010DORDQUF3E2FPGXE","","<img src=""img/set1/S3.jpg"" width=""540"" height = ""360"" style=""border:16px solid orange"">","null","","","","","","","",""
"null","","html-keyboard-response","154","249127","0.0-83.0","3K5TEWLKGWX2ENZ752HDGPFV97JIVG","A3P9TM5PRYBH90","3R5LWXWHR0UE010DORDQUF3E2FPGXE","","","null","","","","","","","",""
"753.2000000029802","","image-keyboard-response","155","249882","0.0-84.0","3K5TEWLKGWX2ENZ752HDGPFV97JIVG","A3P9TM5PRYBH90","3R5LWXWHR0UE010DORDQUF3E2FPGXE","","img/set1/S4.jpg","74","4","structured_incentive","74","true","structured_incentive,structured_normal,random","2,3,1,2","",""
"null","","html-keyboard-response","156","250238","0.0-85.0","3K5TEWLKGWX2ENZ752HDGPFV97JIVG","A3P9TM5PRYBH90","3R5LWXWHR0UE010DORDQUF3E2FPGXE","","<img src=""img/set1/S4.jpg"" width=""540"" height = ""360"" style=""border:16px solid Violet"">","null","","","","","","","",""
"null","","html-keyboard-response","157","250241","0.0-86.0","3K5TEWLKGWX2ENZ752HDGPFV97JIVG","A3P9TM5PRYBH90","3R5LWXWHR0UE010DORDQUF3E2FPGXE","","","null","","","","","","","",""
"502.1000000089407","","image-keyboard-response","158","250746","0.0-87.0","3K5TEWLKGWX2ENZ752HDGPFV97JIVG","A3P9TM5PRYBH90","3R5LWXWHR0UE010DORDQUF3E2FPGXE","","img/set1/S2.jpg","68","2","structured_incentive","68","true","structured_incentive,structured_normal,random","2,3,1,2","",""
"null","","html-keyboard-response","159","251101","0.0-88.0","3K5TEWLKGWX2ENZ752HDGPFV97JIVG","A3P9TM5PRYBH90","3R5LWXWHR0UE010DORDQUF3E2FPGXE","","<img src=""img/set1/S2.jpg"" width=""540"" height = ""360"" style=""border:16px solid orange"">","null","","","","","","","",""
"null","","html-keyboard-response","160","251104","0.0-89.0","3K5TEWLKGWX2ENZ752HDGPFV97JIVG","A3P9TM5PRYBH90","3R5LWXWHR0UE010DORDQUF3E2FPGXE","","","null","","","","","","","",""
"407.19999998807907","","image-keyboard-response","161","251514","0.0-90.0","3K5TEWLKGWX2ENZ752HDGPFV97JIVG","A3P9TM5PRYBH90","3R5LWXWHR0UE010DORDQUF3E2FPGXE","","img/set1/S3.jpg","72","3","structured_incentive","72","true","structured_incentive,structured_normal,random","2,3,1,2","",""
"null","","html-keyboard-response","162","251868","0.0-91.0","3K5TEWLKGWX2ENZ752HDGPFV97JIVG","A3P9TM5PRYBH90","3R5LWXWHR0UE010DORDQUF3E2FPGXE","","<img src=""img/set1/S3.jpg"" width=""540"" height = ""360"" style=""border:16px solid orange"">","null","","","","","","","",""
"null","","html-keyboard-response","163","251873","0.0-92.0","3K5TEWLKGWX2ENZ752HDGPFV97JIVG","A3P9TM5PRYBH90","3R5LWXWHR0UE010DORDQUF3E2FPGXE","","","null","","","","","","","",""
"537.7000000029802","","image-keyboard-response","164","252414","0.0-93.0","3K5TEWLKGWX2ENZ752HDGPFV97JIVG","A3P9TM5PRYBH90","3R5LWXWHR0UE010DORDQUF3E2FPGXE","","img/set1/S4.jpg","74","4","structured_incentive","74","true","structured_incentive,structured_normal,random","2,3,1,2","",""
"null","","html-keyboard-response","165","252770","0.0-94.0","3K5TEWLKGWX2ENZ752HDGPFV97JIVG","A3P9TM5PRYBH90","3R5LWXWHR0UE010DORDQUF3E2FPGXE","","<img src=""img/set1/S4.jpg"" width=""540"" height = ""360"" style=""border:16px solid Violet"">","null","","","","","","","",""
"null","","html-keyboard-response","166","252778","0.0-95.0","3K5TEWLKGWX2ENZ752HDGPFV97JIVG","A3P9TM5PRYBH90","3R5LWXWHR0UE010DORDQUF3E2FPGXE","","","null","","","","","","","",""
"632","","image-keyboard-response","167","253412","0.0-96.0","3K5TEWLKGWX2ENZ752HDGPFV97JIVG","A3P9TM5PRYBH90","3R5LWXWHR0UE010DORDQUF3E2FPGXE","","img/set1/S1.jpg","83","1","structured_incentive","83","true","structured_incentive,structured_normal,random","2,3,1,2","",""
"null","","html-keyboard-response","168","253766","0.0-97.0","3K5TEWLKGWX2ENZ752HDGPFV97JIVG","A3P9TM5PRYBH90","3R5LWXWHR0UE010DORDQUF3E2FPGXE","","<img src=""img/set1/S1.jpg"" width=""540"" height = ""360"" style=""border:16px solid orange"">","null","","","","","","","",""
"null","","html-keyboard-response","169","253770","0.0-98.0","3K5TEWLKGWX2ENZ752HDGPFV97JIVG","A3P9TM5PRYBH90","3R5LWXWHR0UE010DORDQUF3E2FPGXE","","","null","","","","","","","",""
"542.6000000089407","","image-keyboard-response","170","254314","0.0-99.0","3K5TEWLKGWX2ENZ752HDGPFV97JIVG","A3P9TM5PRYBH90","3R5LWXWHR0UE010DORDQUF3E2FPGXE","","img/set1/S4.jpg","68","4","structured_incentive","74","false","structured_incentive,structured_normal,random","2,3,1,2","",""
"null","","html-keyboard-response","171","254667","0.0-100.0","3K5TEWLKGWX2ENZ752HDGPFV97JIVG","A3P9TM5PRYBH90","3R5LWXWHR0UE010DORDQUF3E2FPGXE","","<img src=""img/set1/S4.jpg"" width=""540"" height = ""360"">","null","","","","","","","",""
"null","","html-keyboard-response","172","254672","0.0-101.0","3K5TEWLKGWX2ENZ752HDGPFV97JIVG","A3P9TM5PRYBH90","3R5LWXWHR0UE010DORDQUF3E2FPGXE","","","null","","","","","","","",""
"1416.5","","image-keyboard-response","173","256090","0.0-102.0","3K5TEWLKGWX2ENZ752HDGPFV97JIVG","A3P9TM5PRYBH90","3R5LWXWHR0UE010DORDQUF3E2FPGXE","","img/set1/S1.jpg","83","1","structured_incentive","83","true","structured_incentive,structured_normal,random","2,3,1,2","",""
"null","","html-keyboard-response","174","256444","0.0-103.0","3K5TEWLKGWX2ENZ752HDGPFV97JIVG","A3P9TM5PRYBH90","3R5LWXWHR0UE010DORDQUF3E2FPGXE","","<img src=""img/set1/S1.jpg"" width=""540"" height = ""360"" style=""border:16px solid orange"">","null","","","","","","","",""
"null","","html-keyboard-response","175","256447","0.0-104.0","3K5TEWLKGWX2ENZ752HDGPFV97JIVG","A3P9TM5PRYBH90","3R5LWXWHR0UE010DORDQUF3E2FPGXE","","","null","","","","","","","",""
"601.3999999910593","","image-keyboard-response","176","257050","0.0-105.0","3K5TEWLKGWX2ENZ752HDGPFV97JIVG","A3P9TM5PRYBH90","3R5LWXWHR0UE010DORDQUF3E2FPGXE","","img/set1/S4.jpg","74","4","structured_incentive","74","true","structured_incentive,structured_normal,random","2,3,1,2","",""
"null","","html-keyboard-response","177","257405","0.0-106.0","3K5TEWLKGWX2ENZ752HDGPFV97JIVG","A3P9TM5PRYBH90","3R5LWXWHR0UE010DORDQUF3E2FPGXE","","<img src=""img/set1/S4.jpg"" width=""540"" height = ""360"" style=""border:16px solid Violet"">","null","","","","","","","",""
"null","","html-keyboard-response","178","257408","0.0-107.0","3K5TEWLKGWX2ENZ752HDGPFV97JIVG","A3P9TM5PRYBH90","3R5LWXWHR0UE010DORDQUF3E2FPGXE","","","null","","","","","","","",""
"737.1000000089407","","image-keyboard-response","179","258148","0.0-108.0","3K5TEWLKGWX2ENZ752HDGPFV97JIVG","A3P9TM5PRYBH90","3R5LWXWHR0UE010DORDQUF3E2FPGXE","","img/set1/S1.jpg","83","1","structured_incentive","83","true","structured_incentive,structured_normal,random","2,3,1,2","",""
"null","","html-keyboard-response","180","258504","0.0-109.0","3K5TEWLKGWX2ENZ752HDGPFV97JIVG","A3P9TM5PRYBH90","3R5LWXWHR0UE010DORDQUF3E2FPGXE","","<img src=""img/set1/S1.jpg"" width=""540"" height = ""360"" style=""border:16px solid orange"">","null","","","","","","","",""
"null","","html-keyboard-response","181","258506","0.0-110.0","3K5TEWLKGWX2ENZ752HDGPFV97JIVG","A3P9TM5PRYBH90","3R5LWXWHR0UE010DORDQUF3E2FPGXE","","","null","","","","","","","",""
"533.2999999970198","","image-keyboard-response","182","259041","0.0-111.0","3K5TEWLKGWX2ENZ752HDGPFV97JIVG","A3P9TM5PRYBH90","3R5LWXWHR0UE010DORDQUF3E2FPGXE","","img/set1/S4.jpg","74","4","structured_incentive","74","true","structured_incentive,structured_normal,random","2,3,1,2","",""
"null","","html-keyboard-response","183","259395","0.0-112.0","3K5TEWLKGWX2ENZ752HDGPFV97JIVG","A3P9TM5PRYBH90","3R5LWXWHR0UE010DORDQUF3E2FPGXE","","<img src=""img/set1/S4.jpg"" width=""540"" height = ""360"" style=""border:16px solid Violet"">","null","","","","","","","",""
"null","","html-keyboard-response","184","259398","0.0-113.0","3K5TEWLKGWX2ENZ752HDGPFV97JIVG","A3P9TM5PRYBH90","3R5LWXWHR0UE010DORDQUF3E2FPGXE","","","null","","","","","","","",""
"617.4000000059605","","image-keyboard-response","185","260017","0.0-114.0","3K5TEWLKGWX2ENZ752HDGPFV97JIVG","A3P9TM5PRYBH90","3R5LWXWHR0UE010DORDQUF3E2FPGXE","","img/set1/S2.jpg","68","2","structured_incentive","68","true","structured_incentive,structured_normal,random","2,3,1,2","",""
"null","","html-keyboard-response","186","260371","0.0-115.0","3K5TEWLKGWX2ENZ752HDGPFV97JIVG","A3P9TM5PRYBH90","3R5LWXWHR0UE010DORDQUF3E2FPGXE","","<img src=""img/set1/S2.jpg"" width=""540"" height = ""360"" style=""border:16px solid orange"">","null","","","","","","","",""
"null","","html-keyboard-response","187","260374","0.0-116.0","3K5TEWLKGWX2ENZ752HDGPFV97JIVG","A3P9TM5PRYBH90","3R5LWXWHR0UE010DORDQUF3E2FPGXE","","","null","","","","","","","",""
"400.3999999910593","","image-keyboard-response","188","260779","0.0-117.0","3K5TEWLKGWX2ENZ752HDGPFV97JIVG","A3P9TM5PRYBH90","3R5LWXWHR0UE010DORDQUF3E2FPGXE","","img/set1/S3.jpg","72","3","structured_incentive","72","true","structured_incentive,structured_normal,random","2,3,1,2","",""
"null","","html-keyboard-response","189","261133","0.0-118.0","3K5TEWLKGWX2ENZ752HDGPFV97JIVG","A3P9TM5PRYBH90","3R5LWXWHR0UE010DORDQUF3E2FPGXE","","<img src=""img/set1/S3.jpg"" width=""540"" height = ""360"" style=""border:16px solid orange"">","null","","","","","","","",""
"null","","html-keyboard-response","190","261137","0.0-119.0","3K5TEWLKGWX2ENZ752HDGPFV97JIVG","A3P9TM5PRYBH90","3R5LWXWHR0UE010DORDQUF3E2FPGXE","","","null","","","","","","","",""
"552.5","","image-keyboard-response","191","261698","0.0-120.0","3K5TEWLKGWX2ENZ752HDGPFV97JIVG","A3P9TM5PRYBH90","3R5LWXWHR0UE010DORDQUF3E2FPGXE","","img/set1/S1.jpg","83","1","structured_incentive","83","true","structured_incentive,structured_normal,random","2,3,1,2","",""
"null","","html-keyboard-response","192","262052","0.0-121.0","3K5TEWLKGWX2ENZ752HDGPFV97JIVG","A3P9TM5PRYBH90","3R5LWXWHR0UE010DORDQUF3E2FPGXE","","<img src=""img/set1/S1.jpg"" width=""540"" height = ""360"" style=""border:16px solid orange"">","null","","","","","","","",""
"null","","html-keyboard-response","193","262055","0.0-122.0","3K5TEWLKGWX2ENZ752HDGPFV97JIVG","A3P9TM5PRYBH90","3R5LWXWHR0UE010DORDQUF3E2FPGXE","","","null","","","","","","","",""
"640.5","","image-keyboard-response","194","262698","0.0-123.0","3K5TEWLKGWX2ENZ752HDGPFV97JIVG","A3P9TM5PRYBH90","3R5LWXWHR0UE010DORDQUF3E2FPGXE","","img/set1/S2.jpg","68","2","structured_incentive","68","true","structured_incentive,structured_normal,random","2,3,1,2","",""
"null","","html-keyboard-response","195","263053","0.0-124.0","3K5TEWLKGWX2ENZ752HDGPFV97JIVG","A3P9TM5PRYBH90","3R5LWXWHR0UE010DORDQUF3E2FPGXE","","<img src=""img/set1/S2.jpg"" width=""540"" height = ""360"" style=""border:16px solid orange"">","null","","","","","","","",""
"null","","html-keyboard-response","196","263058","0.0-125.0","3K5TEWLKGWX2ENZ752HDGPFV97JIVG","A3P9TM5PRYBH90","3R5LWXWHR0UE010DORDQUF3E2FPGXE","","","null","","","","","","","",""
"700.2000000029802","","image-keyboard-response","197","263762","0.0-126.0","3K5TEWLKGWX2ENZ752HDGPFV97JIVG","A3P9TM5PRYBH90","3R5LWXWHR0UE010DORDQUF3E2FPGXE","","img/set1/S3.jpg","72","3","structured_incentive","72","true","structured_incentive,structured_normal,random","2,3,1,2","",""
"null","","html-keyboard-response","198","264118","0.0-127.0","3K5TEWLKGWX2ENZ752HDGPFV97JIVG","A3P9TM5PRYBH90","3R5LWXWHR0UE010DORDQUF3E2FPGXE","","<img src=""img/set1/S3.jpg"" width=""540"" height = ""360"" style=""border:16px solid orange"">","null","","","","","","","",""
"null","","html-keyboard-response","199","264120","0.0-128.0","3K5TEWLKGWX2ENZ752HDGPFV97JIVG","A3P9TM5PRYBH90","3R5LWXWHR0UE010DORDQUF3E2FPGXE","","","null","","","","","","","",""
"574.6999999880791","","image-keyboard-response","200","264698","0.0-129.0","3K5TEWLKGWX2ENZ752HDGPFV97JIVG","A3P9TM5PRYBH90","3R5LWXWHR0UE010DORDQUF3E2FPGXE","","img/set1/S1.jpg","83","1","structured_incentive","83","true","structured_incentive,structured_normal,random","2,3,1,2","",""
"null","","html-keyboard-response","201","265052","0.0-130.0","3K5TEWLKGWX2ENZ752HDGPFV97JIVG","A3P9TM5PRYBH90","3R5LWXWHR0UE010DORDQUF3E2FPGXE","","<img src=""img/set1/S1.jpg"" width=""540"" height = ""360"" style=""border:16px solid orange"">","null","","","","","","","",""
"null","","html-keyboard-response","202","265059","0.0-131.0","3K5TEWLKGWX2ENZ752HDGPFV97JIVG","A3P9TM5PRYBH90","3R5LWXWHR0UE010DORDQUF3E2FPGXE","","","null","","","","","","","",""
"506.79999999701977","","image-keyboard-response","203","265571","0.0-132.0","3K5TEWLKGWX2ENZ752HDGPFV97JIVG","A3P9TM5PRYBH90","3R5LWXWHR0UE010DORDQUF3E2FPGXE","","img/set1/S4.jpg","74","4","structured_incentive","74","true","structured_incentive,structured_normal,random","2,3,1,2","",""
"null","","html-keyboard-response","204","265928","0.0-133.0","3K5TEWLKGWX2ENZ752HDGPFV97JIVG","A3P9TM5PRYBH90","3R5LWXWHR0UE010DORDQUF3E2FPGXE","","<img src=""img/set1/S4.jpg"" width=""540"" height = ""360"" style=""border:16px solid Violet"">","null","","","","","","","",""
"null","","html-keyboard-response","205","265933","0.0-134.0","3K5TEWLKGWX2ENZ752HDGPFV97JIVG","A3P9TM5PRYBH90","3R5LWXWHR0UE010DORDQUF3E2FPGXE","","","null","","","","","","","",""
"465.29999999701977","","image-keyboard-response","206","266401","0.0-135.0","3K5TEWLKGWX2ENZ752HDGPFV97JIVG","A3P9TM5PRYBH90","3R5LWXWHR0UE010DORDQUF3E2FPGXE","","img/set1/S4.jpg","74","4","structured_incentive","74","true","structured_incentive,structured_normal,random","2,3,1,2","",""
"null","","html-keyboard-response","207","266755","0.0-136.0","3K5TEWLKGWX2ENZ752HDGPFV97JIVG","A3P9TM5PRYBH90","3R5LWXWHR0UE010DORDQUF3E2FPGXE","","<img src=""img/set1/S4.jpg"" width=""540"" height = ""360"" style=""border:16px solid Violet"">","null","","","","","","","",""
"null","","html-keyboard-response","208","266757","0.0-137.0","3K5TEWLKGWX2ENZ752HDGPFV97JIVG","A3P9TM5PRYBH90","3R5LWXWHR0UE010DORDQUF3E2FPGXE","","","null","","","","","","","",""
"545.2000000029802","","image-keyboard-response","209","267306","0.0-138.0","3K5TEWLKGWX2ENZ752HDGPFV97JIVG","A3P9TM5PRYBH90","3R5LWXWHR0UE010DORDQUF3E2FPGXE","","img/set1/S4.jpg","74","4","structured_incentive","74","true","structured_incentive,structured_normal,random","2,3,1,2","",""
"null","","html-keyboard-response","210","267660","0.0-139.0","3K5TEWLKGWX2ENZ752HDGPFV97JIVG","A3P9TM5PRYBH90","3R5LWXWHR0UE010DORDQUF3E2FPGXE","","<img src=""img/set1/S4.jpg"" width=""540"" height = ""360"" style=""border:16px solid Violet"">","null","","","","","","","",""
"null","","html-keyboard-response","211","267663","0.0-140.0","3K5TEWLKGWX2ENZ752HDGPFV97JIVG","A3P9TM5PRYBH90","3R5LWXWHR0UE010DORDQUF3E2FPGXE","","","null","","","","","","","",""
"889.2000000029802","","image-keyboard-response","212","268555","0.0-141.0","3K5TEWLKGWX2ENZ752HDGPFV97JIVG","A3P9TM5PRYBH90","3R5LWXWHR0UE010DORDQUF3E2FPGXE","","img/set1/S1.jpg","83","1","structured_incentive","83","true","structured_incentive,structured_normal,random","2,3,1,2","",""
"null","","html-keyboard-response","213","268910","0.0-142.0","3K5TEWLKGWX2ENZ752HDGPFV97JIVG","A3P9TM5PRYBH90","3R5LWXWHR0UE010DORDQUF3E2FPGXE","","<img src=""img/set1/S1.jpg"" width=""540"" height = ""360"" style=""border:16px solid orange"">","null","","","","","","","",""
"null","","html-keyboard-response","214","268912","0.0-143.0","3K5TEWLKGWX2ENZ752HDGPFV97JIVG","A3P9TM5PRYBH90","3R5LWXWHR0UE010DORDQUF3E2FPGXE","","","null","","","","","","","",""
"613.3999999910593","","image-keyboard-response","215","269530","0.0-144.0","3K5TEWLKGWX2ENZ752HDGPFV97JIVG","A3P9TM5PRYBH90","3R5LWXWHR0UE010DORDQUF3E2FPGXE","","img/set1/S4.jpg","74","4","structured_incentive","74","true","structured_incentive,structured_normal,random","2,3,1,2","",""
"null","","html-keyboard-response","216","269883","0.0-145.0","3K5TEWLKGWX2ENZ752HDGPFV97JIVG","A3P9TM5PRYBH90","3R5LWXWHR0UE010DORDQUF3E2FPGXE","","<img src=""img/set1/S4.jpg"" width=""540"" height = ""360"" style=""border:16px solid Violet"">","null","","","","","","","",""
"null","","html-keyboard-response","217","269886","0.0-146.0","3K5TEWLKGWX2ENZ752HDGPFV97JIVG","A3P9TM5PRYBH90","3R5LWXWHR0UE010DORDQUF3E2FPGXE","","","null","","","","","","","",""
"856.2999999970198","","image-keyboard-response","218","270745","0.0-147.0","3K5TEWLKGWX2ENZ752HDGPFV97JIVG","A3P9TM5PRYBH90","3R5LWXWHR0UE010DORDQUF3E2FPGXE","","img/set1/S1.jpg","83","1","structured_incentive","83","true","structured_incentive,structured_normal,random","2,3,1,2","",""
"null","","html-keyboard-response","219","271098","0.0-148.0","3K5TEWLKGWX2ENZ752HDGPFV97JIVG","A3P9TM5PRYBH90","3R5LWXWHR0UE010DORDQUF3E2FPGXE","","<img src=""img/set1/S1.jpg"" width=""540"" height = ""360"" style=""border:16px solid orange"">","null","","","","","","","",""
"null","","html-keyboard-response","220","271101","0.0-149.0","3K5TEWLKGWX2ENZ752HDGPFV97JIVG","A3P9TM5PRYBH90","3R5LWXWHR0UE010DORDQUF3E2FPGXE","","","null","","","","","","","",""
"657.0999999940395","","image-keyboard-response","221","271761","0.0-150.0","3K5TEWLKGWX2ENZ752HDGPFV97JIVG","A3P9TM5PRYBH90","3R5LWXWHR0UE010DORDQUF3E2FPGXE","","img/set1/S4.jpg","74","4","structured_incentive","74","true","structured_incentive,structured_normal,random","2,3,1,2","",""
"null","","html-keyboard-response","222","272120","0.0-151.0","3K5TEWLKGWX2ENZ752HDGPFV97JIVG","A3P9TM5PRYBH90","3R5LWXWHR0UE010DORDQUF3E2FPGXE","","<img src=""img/set1/S4.jpg"" width=""540"" height = ""360"" style=""border:16px solid Violet"">","null","","","","","","","",""
"null","","html-keyboard-response","223","272124","0.0-152.0","3K5TEWLKGWX2ENZ752HDGPFV97JIVG","A3P9TM5PRYBH90","3R5LWXWHR0UE010DORDQUF3E2FPGXE","","","null","","","","","","","",""
"1116.2000000029802","","image-keyboard-response","224","273242","0.0-153.0","3K5TEWLKGWX2ENZ752HDGPFV97JIVG","A3P9TM5PRYBH90","3R5LWXWHR0UE010DORDQUF3E2FPGXE","","img/set1/S2.jpg","68","2","structured_incentive","68","true","structured_incentive,structured_normal,random","2,3,1,2","",""
"null","","html-keyboard-response","225","273606","0.0-154.0","3K5TEWLKGWX2ENZ752HDGPFV97JIVG","A3P9TM5PRYBH90","3R5LWXWHR0UE010DORDQUF3E2FPGXE","","<img src=""img/set1/S2.jpg"" width=""540"" height = ""360"" style=""border:16px solid orange"">","null","","","","","","","",""
"null","","html-keyboard-response","226","273610","0.0-155.0","3K5TEWLKGWX2ENZ752HDGPFV97JIVG","A3P9TM5PRYBH90","3R5LWXWHR0UE010DORDQUF3E2FPGXE","","","null","","","","","","","",""
"522.3999999910593","","image-keyboard-response","227","274137","0.0-156.0","3K5TEWLKGWX2ENZ752HDGPFV97JIVG","A3P9TM5PRYBH90","3R5LWXWHR0UE010DORDQUF3E2FPGXE","","img/set1/S3.jpg","72","3","structured_incentive","72","true","structured_incentive,structured_normal,random","2,3,1,2","",""
"null","","html-keyboard-response","228","274491","0.0-157.0","3K5TEWLKGWX2ENZ752HDGPFV97JIVG","A3P9TM5PRYBH90","3R5LWXWHR0UE010DORDQUF3E2FPGXE","","<img src=""img/set1/S3.jpg"" width=""540"" height = ""360"" style=""border:16px solid orange"">","null","","","","","","","",""
"null","","html-keyboard-response","229","274493","0.0-158.0","3K5TEWLKGWX2ENZ752HDGPFV97JIVG","A3P9TM5PRYBH90","3R5LWXWHR0UE010DORDQUF3E2FPGXE","","","null","","","","","","","",""
"1473.800000011921","","image-keyboard-response","230","275969","0.0-159.0","3K5TEWLKGWX2ENZ752HDGPFV97JIVG","A3P9TM5PRYBH90","3R5LWXWHR0UE010DORDQUF3E2FPGXE","","img/set1/S2.jpg","68","2","structured_incentive","68","true","structured_incentive,structured_normal,random","2,3,1,2","",""
"null","","html-keyboard-response","231","276323","0.0-160.0","3K5TEWLKGWX2ENZ752HDGPFV97JIVG","A3P9TM5PRYBH90","3R5LWXWHR0UE010DORDQUF3E2FPGXE","","<img src=""img/set1/S2.jpg"" width=""540"" height = ""360"" style=""border:16px solid orange"">","null","","","","","","","",""
"null","","html-keyboard-response","232","276326","0.0-161.0","3K5TEWLKGWX2ENZ752HDGPFV97JIVG","A3P9TM5PRYBH90","3R5LWXWHR0UE010DORDQUF3E2FPGXE","","","null","","","","","","","",""
"671.7000000029802","","image-keyboard-response","233","277002","0.0-162.0","3K5TEWLKGWX2ENZ752HDGPFV97JIVG","A3P9TM5PRYBH90","3R5LWXWHR0UE010DORDQUF3E2FPGXE","","img/set1/S3.jpg","72","3","structured_incentive","72","true","structured_incentive,structured_normal,random","2,3,1,2","",""
"null","","html-keyboard-response","234","277358","0.0-163.0","3K5TEWLKGWX2ENZ752HDGPFV97JIVG","A3P9TM5PRYBH90","3R5LWXWHR0UE010DORDQUF3E2FPGXE","","<img src=""img/set1/S3.jpg"" width=""540"" height = ""360"" style=""border:16px solid orange"">","null","","","","","","","",""
"null","","html-keyboard-response","235","277363","0.0-164.0","3K5TEWLKGWX2ENZ752HDGPFV97JIVG","A3P9TM5PRYBH90","3R5LWXWHR0UE010DORDQUF3E2FPGXE","","","null","","","","","","","",""
"682.5999999940395","","image-keyboard-response","236","278049","0.0-165.0","3K5TEWLKGWX2ENZ752HDGPFV97JIVG","A3P9TM5PRYBH90","3R5LWXWHR0UE010DORDQUF3E2FPGXE","","img/set1/S1.jpg","83","1","structured_incentive","83","true","structured_incentive,structured_normal,random","2,3,1,2","",""
"null","","html-keyboard-response","237","278402","0.0-166.0","3K5TEWLKGWX2ENZ752HDGPFV97JIVG","A3P9TM5PRYBH90","3R5LWXWHR0UE010DORDQUF3E2FPGXE","","<img src=""img/set1/S1.jpg"" width=""540"" height = ""360"" style=""border:16px solid orange"">","null","","","","","","","",""
"null","","html-keyboard-response","238","278404","0.0-167.0","3K5TEWLKGWX2ENZ752HDGPFV97JIVG","A3P9TM5PRYBH90","3R5LWXWHR0UE010DORDQUF3E2FPGXE","","","null","","","","","","","",""
"949","","image-keyboard-response","239","279355","0.0-168.0","3K5TEWLKGWX2ENZ752HDGPFV97JIVG","A3P9TM5PRYBH90","3R5LWXWHR0UE010DORDQUF3E2FPGXE","","img/set1/S3.jpg","72","3","structured_incentive","72","true","structured_incentive,structured_normal,random","2,3,1,2","",""
"null","","html-keyboard-response","240","279708","0.0-169.0","3K5TEWLKGWX2ENZ752HDGPFV97JIVG","A3P9TM5PRYBH90","3R5LWXWHR0UE010DORDQUF3E2FPGXE","","<img src=""img/set1/S3.jpg"" width=""540"" height = ""360"" style=""border:16px solid orange"">","null","","","","","","","",""
"null","","html-keyboard-response","241","279710","0.0-170.0","3K5TEWLKGWX2ENZ752HDGPFV97JIVG","A3P9TM5PRYBH90","3R5LWXWHR0UE010DORDQUF3E2FPGXE","","","null","","","","","","","",""
"513.6000000089407","","image-keyboard-response","242","280226","0.0-171.0","3K5TEWLKGWX2ENZ752HDGPFV97JIVG","A3P9TM5PRYBH90","3R5LWXWHR0UE010DORDQUF3E2FPGXE","","img/set1/S2.jpg","68","2","structured_incentive","68","true","structured_incentive,structured_normal,random","2,3,1,2","",""
"null","","html-keyboard-response","243","280579","0.0-172.0","3K5TEWLKGWX2ENZ752HDGPFV97JIVG","A3P9TM5PRYBH90","3R5LWXWHR0UE010DORDQUF3E2FPGXE","","<img src=""img/set1/S2.jpg"" width=""540"" height = ""360"" style=""border:16px solid orange"">","null","","","","","","","",""
"null","","html-keyboard-response","244","280584","0.0-173.0","3K5TEWLKGWX2ENZ752HDGPFV97JIVG","A3P9TM5PRYBH90","3R5LWXWHR0UE010DORDQUF3E2FPGXE","","","null","","","","","","","",""
"637.6999999880791","","image-keyboard-response","245","281226","0.0-174.0","3K5TEWLKGWX2ENZ752HDGPFV97JIVG","A3P9TM5PRYBH90","3R5LWXWHR0UE010DORDQUF3E2FPGXE","","img/set1/S3.jpg","72","3","structured_incentive","72","true","structured_incentive,structured_normal,random","2,3,1,2","",""
"null","","html-keyboard-response","246","281579","0.0-175.0","3K5TEWLKGWX2ENZ752HDGPFV97JIVG","A3P9TM5PRYBH90","3R5LWXWHR0UE010DORDQUF3E2FPGXE","","<img src=""img/set1/S3.jpg"" width=""540"" height = ""360"" style=""border:16px solid orange"">","null","","","","","","","",""
"null","","html-keyboard-response","247","281582","0.0-176.0","3K5TEWLKGWX2ENZ752HDGPFV97JIVG","A3P9TM5PRYBH90","3R5LWXWHR0UE010DORDQUF3E2FPGXE","","","null","","","","","","","",""
"601.9000000059605","","image-keyboard-response","248","282186","0.0-177.0","3K5TEWLKGWX2ENZ752HDGPFV97JIVG","A3P9TM5PRYBH90","3R5LWXWHR0UE010DORDQUF3E2FPGXE","","img/set1/S1.jpg","83","1","structured_incentive","83","true","structured_incentive,structured_normal,random","2,3,1,2","",""
"null","","html-keyboard-response","249","282539","0.0-178.0","3K5TEWLKGWX2ENZ752HDGPFV97JIVG","A3P9TM5PRYBH90","3R5LWXWHR0UE010DORDQUF3E2FPGXE","","<img src=""img/set1/S1.jpg"" width=""540"" height = ""360"" style=""border:16px solid orange"">","null","","","","","","","",""
"null","","html-keyboard-response","250","282542","0.0-179.0","3K5TEWLKGWX2ENZ752HDGPFV97JIVG","A3P9TM5PRYBH90","3R5LWXWHR0UE010DORDQUF3E2FPGXE","","","null","","","","","","","",""
"721.2999999970198","","image-keyboard-response","251","283266","0.0-180.0","3K5TEWLKGWX2ENZ752HDGPFV97JIVG","A3P9TM5PRYBH90","3R5LWXWHR0UE010DORDQUF3E2FPGXE","","img/set1/S2.jpg","83","2","structured_incentive","68","false","structured_incentive,structured_normal,random","2,3,1,2","",""
"null","","html-keyboard-response","252","283619","0.0-181.0","3K5TEWLKGWX2ENZ752HDGPFV97JIVG","A3P9TM5PRYBH90","3R5LWXWHR0UE010DORDQUF3E2FPGXE","","<img src=""img/set1/S2.jpg"" width=""540"" height = ""360"">","null","","","","","","","",""
"null","","html-keyboard-response","253","283622","0.0-182.0","3K5TEWLKGWX2ENZ752HDGPFV97JIVG","A3P9TM5PRYBH90","3R5LWXWHR0UE010DORDQUF3E2FPGXE","","","null","","","","","","","",""
"211.59999999403954","","image-keyboard-response","254","283836","0.0-183.0","3K5TEWLKGWX2ENZ752HDGPFV97JIVG","A3P9TM5PRYBH90","3R5LWXWHR0UE010DORDQUF3E2FPGXE","","img/set1/S3.jpg","68","3","structured_incentive","72","false","structured_incentive,structured_normal,random","2,3,1,2","",""
"null","","html-keyboard-response","255","284190","0.0-184.0","3K5TEWLKGWX2ENZ752HDGPFV97JIVG","A3P9TM5PRYBH90","3R5LWXWHR0UE010DORDQUF3E2FPGXE","","<img src=""img/set1/S3.jpg"" width=""540"" height = ""360"">","null","","","","","","","",""
"null","","html-keyboard-response","256","284192","0.0-185.0","3K5TEWLKGWX2ENZ752HDGPFV97JIVG","A3P9TM5PRYBH90","3R5LWXWHR0UE010DORDQUF3E2FPGXE","","","null","","","","","","","",""
"439.5","","image-keyboard-response","257","284635","0.0-186.0","3K5TEWLKGWX2ENZ752HDGPFV97JIVG","A3P9TM5PRYBH90","3R5LWXWHR0UE010DORDQUF3E2FPGXE","","img/set1/S1.jpg","72","1","structured_incentive","83","false","structured_incentive,structured_normal,random","2,3,1,2","",""
"null","","html-keyboard-response","258","284988","0.0-187.0","3K5TEWLKGWX2ENZ752HDGPFV97JIVG","A3P9TM5PRYBH90","3R5LWXWHR0UE010DORDQUF3E2FPGXE","","<img src=""img/set1/S1.jpg"" width=""540"" height = ""360"">","null","","","","","","","",""
"null","","html-keyboard-response","259","284991","0.0-188.0","3K5TEWLKGWX2ENZ752HDGPFV97JIVG","A3P9TM5PRYBH90","3R5LWXWHR0UE010DORDQUF3E2FPGXE","","","null","","","","","","","",""
"64.3999999910593","","image-keyboard-response","260","285058","0.0-189.0","3K5TEWLKGWX2ENZ752HDGPFV97JIVG","A3P9TM5PRYBH90","3R5LWXWHR0UE010DORDQUF3E2FPGXE","","img/set1/S2.jpg","83","2","structured_incentive","68","false","structured_incentive,structured_normal,random","2,3,1,2","",""
"null","","html-keyboard-response","261","285412","0.0-190.0","3K5TEWLKGWX2ENZ752HDGPFV97JIVG","A3P9TM5PRYBH90","3R5LWXWHR0UE010DORDQUF3E2FPGXE","","<img src=""img/set1/S2.jpg"" width=""540"" height = ""360"">","null","","","","","","","",""
"null","","html-keyboard-response","262","285415","0.0-191.0","3K5TEWLKGWX2ENZ752HDGPFV97JIVG","A3P9TM5PRYBH90","3R5LWXWHR0UE010DORDQUF3E2FPGXE","","","null","","","","","","","",""
"1320.800000011921","","image-keyboard-response","263","286738","0.0-192.0","3K5TEWLKGWX2ENZ752HDGPFV97JIVG","A3P9TM5PRYBH90","3R5LWXWHR0UE010DORDQUF3E2FPGXE","","img/set1/S3.jpg","72","3","structured_incentive","72","true","structured_incentive,structured_normal,random","2,3,1,2","",""
"null","","html-keyboard-response","264","287092","0.0-193.0","3K5TEWLKGWX2ENZ752HDGPFV97JIVG","A3P9TM5PRYBH90","3R5LWXWHR0UE010DORDQUF3E2FPGXE","","<img src=""img/set1/S3.jpg"" width=""540"" height = ""360"" style=""border:16px solid orange"">","null","","","","","","","",""
"null","","html-keyboard-response","265","287094","0.0-194.0","3K5TEWLKGWX2ENZ752HDGPFV97JIVG","A3P9TM5PRYBH90","3R5LWXWHR0UE010DORDQUF3E2FPGXE","","","null","","","","","","","",""
"648.8000000119209","","image-keyboard-response","266","287746","0.0-195.0","3K5TEWLKGWX2ENZ752HDGPFV97JIVG","A3P9TM5PRYBH90","3R5LWXWHR0UE010DORDQUF3E2FPGXE","","img/set1/S1.jpg","83","1","structured_incentive","83","true","structured_incentive,structured_normal,random","2,3,1,2","",""
"null","","html-keyboard-response","267","288099","0.0-196.0","3K5TEWLKGWX2ENZ752HDGPFV97JIVG","A3P9TM5PRYBH90","3R5LWXWHR0UE010DORDQUF3E2FPGXE","","<img src=""img/set1/S1.jpg"" width=""540"" height = ""360"" style=""border:16px solid orange"">","null","","","","","","","",""
"null","","html-keyboard-response","268","288103","0.0-197.0","3K5TEWLKGWX2ENZ752HDGPFV97JIVG","A3P9TM5PRYBH90","3R5LWXWHR0UE010DORDQUF3E2FPGXE","","","null","","","","","","","",""
"687.7999999970198","","image-keyboard-response","269","288793","0.0-198.0","3K5TEWLKGWX2ENZ752HDGPFV97JIVG","A3P9TM5PRYBH90","3R5LWXWHR0UE010DORDQUF3E2FPGXE","","img/set1/S2.jpg","68","2","structured_incentive","68","true","structured_incentive,structured_normal,random","2,3,1,2","",""
"null","","html-keyboard-response","270","289152","0.0-199.0","3K5TEWLKGWX2ENZ752HDGPFV97JIVG","A3P9TM5PRYBH90","3R5LWXWHR0UE010DORDQUF3E2FPGXE","","<img src=""img/set1/S2.jpg"" width=""540"" height = ""360"" style=""border:16px solid orange"">","null","","","","","","","",""
"null","","html-keyboard-response","271","289160","0.0-200.0","3K5TEWLKGWX2ENZ752HDGPFV97JIVG","A3P9TM5PRYBH90","3R5LWXWHR0UE010DORDQUF3E2FPGXE","","","null","","","","","","","",""
"588.7000000029802","","image-keyboard-response","272","289756","0.0-201.0","3K5TEWLKGWX2ENZ752HDGPFV97JIVG","A3P9TM5PRYBH90","3R5LWXWHR0UE010DORDQUF3E2FPGXE","","img/set1/S3.jpg","72","3","structured_incentive","72","true","structured_incentive,structured_normal,random","2,3,1,2","",""
"null","","html-keyboard-response","273","290132","0.0-202.0","3K5TEWLKGWX2ENZ752HDGPFV97JIVG","A3P9TM5PRYBH90","3R5LWXWHR0UE010DORDQUF3E2FPGXE","","<img src=""img/set1/S3.jpg"" width=""540"" height = ""360"" style=""border:16px solid orange"">","null","","","","","","","",""
"null","","html-keyboard-response","274","290134","0.0-203.0","3K5TEWLKGWX2ENZ752HDGPFV97JIVG","A3P9TM5PRYBH90","3R5LWXWHR0UE010DORDQUF3E2FPGXE","","","null","","","","","","","",""
"460.29999999701977","","image-keyboard-response","275","290597","0.0-204.0","3K5TEWLKGWX2ENZ752HDGPFV97JIVG","A3P9TM5PRYBH90","3R5LWXWHR0UE010DORDQUF3E2FPGXE","","img/set1/S1.jpg","83","1","structured_incentive","83","true","structured_incentive,structured_normal,random","2,3,1,2","",""
"null","","html-keyboard-response","276","290952","0.0-205.0","3K5TEWLKGWX2ENZ752HDGPFV97JIVG","A3P9TM5PRYBH90","3R5LWXWHR0UE010DORDQUF3E2FPGXE","","<img src=""img/set1/S1.jpg"" width=""540"" height = ""360"" style=""border:16px solid orange"">","null","","","","","","","",""
"null","","html-keyboard-response","277","290957","0.0-206.0","3K5TEWLKGWX2ENZ752HDGPFV97JIVG","A3P9TM5PRYBH90","3R5LWXWHR0UE010DORDQUF3E2FPGXE","","","null","","","","","","","",""
"490.30000001192093","","image-keyboard-response","278","291450","0.0-207.0","3K5TEWLKGWX2ENZ752HDGPFV97JIVG","A3P9TM5PRYBH90","3R5LWXWHR0UE010DORDQUF3E2FPGXE","","img/set1/S4.jpg","74","4","structured_incentive","74","true","structured_incentive,structured_normal,random","2,3,1,2","",""
"null","","html-keyboard-response","279","291804","0.0-208.0","3K5TEWLKGWX2ENZ752HDGPFV97JIVG","A3P9TM5PRYBH90","3R5LWXWHR0UE010DORDQUF3E2FPGXE","","<img src=""img/set1/S4.jpg"" width=""540"" height = ""360"" style=""border:16px solid Violet"">","null","","","","","","","",""
"null","","html-keyboard-response","280","291806","0.0-209.0","3K5TEWLKGWX2ENZ752HDGPFV97JIVG","A3P9TM5PRYBH90","3R5LWXWHR0UE010DORDQUF3E2FPGXE","","","null","","","","","","","",""
"834.0999999940395","","image-keyboard-response","281","292643","0.0-210.0","3K5TEWLKGWX2ENZ752HDGPFV97JIVG","A3P9TM5PRYBH90","3R5LWXWHR0UE010DORDQUF3E2FPGXE","","img/set1/S2.jpg","68","2","structured_incentive","68","true","structured_incentive,structured_normal,random","2,3,1,2","",""
"null","","html-keyboard-response","282","292997","0.0-211.0","3K5TEWLKGWX2ENZ752HDGPFV97JIVG","A3P9TM5PRYBH90","3R5LWXWHR0UE010DORDQUF3E2FPGXE","","<img src=""img/set1/S2.jpg"" width=""540"" height = ""360"" style=""border:16px solid orange"">","null","","","","","","","",""
"null","","html-keyboard-response","283","292999","0.0-212.0","3K5TEWLKGWX2ENZ752HDGPFV97JIVG","A3P9TM5PRYBH90","3R5LWXWHR0UE010DORDQUF3E2FPGXE","","","null","","","","","","","",""
"1033","","image-keyboard-response","284","294035","0.0-213.0","3K5TEWLKGWX2ENZ752HDGPFV97JIVG","A3P9TM5PRYBH90","3R5LWXWHR0UE010DORDQUF3E2FPGXE","","img/set1/S3.jpg","72","3","structured_incentive","72","true","structured_incentive,structured_normal,random","2,3,1,2","",""
"null","","html-keyboard-response","285","294390","0.0-214.0","3K5TEWLKGWX2ENZ752HDGPFV97JIVG","A3P9TM5PRYBH90","3R5LWXWHR0UE010DORDQUF3E2FPGXE","","<img src=""img/set1/S3.jpg"" width=""540"" height = ""360"" style=""border:16px solid orange"">","null","","","","","","","",""
"null","","html-keyboard-response","286","294392","0.0-215.0","3K5TEWLKGWX2ENZ752HDGPFV97JIVG","A3P9TM5PRYBH90","3R5LWXWHR0UE010DORDQUF3E2FPGXE","","","null","","","","","","","",""
"1126.1000000089407","","image-keyboard-response","287","295522","0.0-216.0","3K5TEWLKGWX2ENZ752HDGPFV97JIVG","A3P9TM5PRYBH90","3R5LWXWHR0UE010DORDQUF3E2FPGXE","","img/set1/S2.jpg","68","2","structured_incentive","68","true","structured_incentive,structured_normal,random","2,3,1,2","",""
"null","","html-keyboard-response","288","295875","0.0-217.0","3K5TEWLKGWX2ENZ752HDGPFV97JIVG","A3P9TM5PRYBH90","3R5LWXWHR0UE010DORDQUF3E2FPGXE","","<img src=""img/set1/S2.jpg"" width=""540"" height = ""360"" style=""border:16px solid orange"">","null","","","","","","","",""
"null","","html-keyboard-response","289","295880","0.0-218.0","3K5TEWLKGWX2ENZ752HDGPFV97JIVG","A3P9TM5PRYBH90","3R5LWXWHR0UE010DORDQUF3E2FPGXE","","","null","","","","","","","",""
"598","","image-keyboard-response","290","296482","0.0-219.0","3K5TEWLKGWX2ENZ752HDGPFV97JIVG","A3P9TM5PRYBH90","3R5LWXWHR0UE010DORDQUF3E2FPGXE","","img/set1/S4.jpg","74","4","structured_incentive","74","true","structured_incentive,structured_normal,random","2,3,1,2","",""
"null","","html-keyboard-response","291","296835","0.0-220.0","3K5TEWLKGWX2ENZ752HDGPFV97JIVG","A3P9TM5PRYBH90","3R5LWXWHR0UE010DORDQUF3E2FPGXE","","<img src=""img/set1/S4.jpg"" width=""540"" height = ""360"" style=""border:16px solid Violet"">","null","","","","","","","",""
"null","","html-keyboard-response","292","296838","0.0-221.0","3K5TEWLKGWX2ENZ752HDGPFV97JIVG","A3P9TM5PRYBH90","3R5LWXWHR0UE010DORDQUF3E2FPGXE","","","null","","","","","","","",""
"608.8999999910593","","image-keyboard-response","293","297450","0.0-222.0","3K5TEWLKGWX2ENZ752HDGPFV97JIVG","A3P9TM5PRYBH90","3R5LWXWHR0UE010DORDQUF3E2FPGXE","","img/set1/S2.jpg","68","2","structured_incentive","68","true","structured_incentive,structured_normal,random","2,3,1,2","",""
"null","","html-keyboard-response","294","297807","0.0-223.0","3K5TEWLKGWX2ENZ752HDGPFV97JIVG","A3P9TM5PRYBH90","3R5LWXWHR0UE010DORDQUF3E2FPGXE","","<img src=""img/set1/S2.jpg"" width=""540"" height = ""360"" style=""border:16px solid orange"">","null","","","","","","","",""
"null","","html-keyboard-response","295","297811","0.0-224.0","3K5TEWLKGWX2ENZ752HDGPFV97JIVG","A3P9TM5PRYBH90","3R5LWXWHR0UE010DORDQUF3E2FPGXE","","","null","","","","","","","",""
"428.6000000089407","","image-keyboard-response","296","298242","0.0-225.0","3K5TEWLKGWX2ENZ752HDGPFV97JIVG","A3P9TM5PRYBH90","3R5LWXWHR0UE010DORDQUF3E2FPGXE","","img/set1/S3.jpg","72","3","structured_incentive","72","true","structured_incentive,structured_normal,random","2,3,1,2","",""
"null","","html-keyboard-response","297","298596","0.0-226.0","3K5TEWLKGWX2ENZ752HDGPFV97JIVG","A3P9TM5PRYBH90","3R5LWXWHR0UE010DORDQUF3E2FPGXE","","<img src=""img/set1/S3.jpg"" width=""540"" height = ""360"" style=""border:16px solid orange"">","null","","","","","","","",""
"null","","html-keyboard-response","298","298600","0.0-227.0","3K5TEWLKGWX2ENZ752HDGPFV97JIVG","A3P9TM5PRYBH90","3R5LWXWHR0UE010DORDQUF3E2FPGXE","","","null","","","","","","","",""
"518.9000000059605","","image-keyboard-response","299","299122","0.0-228.0","3K5TEWLKGWX2ENZ752HDGPFV97JIVG","A3P9TM5PRYBH90","3R5LWXWHR0UE010DORDQUF3E2FPGXE","","img/set1/S2.jpg","68","2","structured_incentive","68","true","structured_incentive,structured_normal,random","2,3,1,2","",""
"null","","html-keyboard-response","300","299475","0.0-229.0","3K5TEWLKGWX2ENZ752HDGPFV97JIVG","A3P9TM5PRYBH90","3R5LWXWHR0UE010DORDQUF3E2FPGXE","","<img src=""img/set1/S2.jpg"" width=""540"" height = ""360"" style=""border:16px solid orange"">","null","","","","","","","",""
"null","","html-keyboard-response","301","299481","0.0-230.0","3K5TEWLKGWX2ENZ752HDGPFV97JIVG","A3P9TM5PRYBH90","3R5LWXWHR0UE010DORDQUF3E2FPGXE","","","null","","","","","","","",""
"599.0999999940395","","image-keyboard-response","302","300084","0.0-231.0","3K5TEWLKGWX2ENZ752HDGPFV97JIVG","A3P9TM5PRYBH90","3R5LWXWHR0UE010DORDQUF3E2FPGXE","","img/set1/S3.jpg","68","3","structured_incentive","72","false","structured_incentive,structured_normal,random","2,3,1,2","",""
"null","","html-keyboard-response","303","300436","0.0-232.0","3K5TEWLKGWX2ENZ752HDGPFV97JIVG","A3P9TM5PRYBH90","3R5LWXWHR0UE010DORDQUF3E2FPGXE","","<img src=""img/set1/S3.jpg"" width=""540"" height = ""360"">","null","","","","","","","",""
"null","","html-keyboard-response","304","300443","0.0-233.0","3K5TEWLKGWX2ENZ752HDGPFV97JIVG","A3P9TM5PRYBH90","3R5LWXWHR0UE010DORDQUF3E2FPGXE","","","null","","","","","","","",""
"36.29999999701977","","image-keyboard-response","305","300482","0.0-234.0","3K5TEWLKGWX2ENZ752HDGPFV97JIVG","A3P9TM5PRYBH90","3R5LWXWHR0UE010DORDQUF3E2FPGXE","","img/set1/S1.jpg","72","1","structured_incentive","83","false","structured_incentive,structured_normal,random","2,3,1,2","",""
"null","","html-keyboard-response","306","300836","0.0-235.0","3K5TEWLKGWX2ENZ752HDGPFV97JIVG","A3P9TM5PRYBH90","3R5LWXWHR0UE010DORDQUF3E2FPGXE","","<img src=""img/set1/S1.jpg"" width=""540"" height = ""360"">","null","","","","","","","",""
"null","","html-keyboard-response","307","300839","0.0-236.0","3K5TEWLKGWX2ENZ752HDGPFV97JIVG","A3P9TM5PRYBH90","3R5LWXWHR0UE010DORDQUF3E2FPGXE","","","null","","","","","","","",""
"720.4000000059605","","image-keyboard-response","308","301562","0.0-237.0","3K5TEWLKGWX2ENZ752HDGPFV97JIVG","A3P9TM5PRYBH90","3R5LWXWHR0UE010DORDQUF3E2FPGXE","","img/set1/S4.jpg","74","4","structured_incentive","74","true","structured_incentive,structured_normal,random","2,3,1,2","",""
"null","","html-keyboard-response","309","301917","0.0-238.0","3K5TEWLKGWX2ENZ752HDGPFV97JIVG","A3P9TM5PRYBH90","3R5LWXWHR0UE010DORDQUF3E2FPGXE","","<img src=""img/set1/S4.jpg"" width=""540"" height = ""360"" style=""border:16px solid Violet"">","null","","","","","","","",""
"null","","html-keyboard-response","310","301920","0.0-239.0","3K5TEWLKGWX2ENZ752HDGPFV97JIVG","A3P9TM5PRYBH90","3R5LWXWHR0UE010DORDQUF3E2FPGXE","","","null","","","","","","","",""
"655.7999999970198","","image-keyboard-response","311","302579","0.0-240.0","3K5TEWLKGWX2ENZ752HDGPFV97JIVG","A3P9TM5PRYBH90","3R5LWXWHR0UE010DORDQUF3E2FPGXE","","img/set1/S1.jpg","83","1","structured_incentive","83","true","structured_incentive,structured_normal,random","2,3,1,2","",""
"null","","html-keyboard-response","312","302932","0.0-241.0","3K5TEWLKGWX2ENZ752HDGPFV97JIVG","A3P9TM5PRYBH90","3R5LWXWHR0UE010DORDQUF3E2FPGXE","","<img src=""img/set1/S1.jpg"" width=""540"" height = ""360"" style=""border:16px solid orange"">","null","","","","","","","",""
"null","","html-keyboard-response","313","302936","0.0-242.0","3K5TEWLKGWX2ENZ752HDGPFV97JIVG","A3P9TM5PRYBH90","3R5LWXWHR0UE010DORDQUF3E2FPGXE","","","null","","","","","","","",""
"816.2999999970198","","image-keyboard-response","314","303754","0.0-243.0","3K5TEWLKGWX2ENZ752HDGPFV97JIVG","A3P9TM5PRYBH90","3R5LWXWHR0UE010DORDQUF3E2FPGXE","","img/set1/S4.jpg","74","4","structured_incentive","74","true","structured_incentive,structured_normal,random","2,3,1,2","",""
"null","","html-keyboard-response","315","304109","0.0-244.0","3K5TEWLKGWX2ENZ752HDGPFV97JIVG","A3P9TM5PRYBH90","3R5LWXWHR0UE010DORDQUF3E2FPGXE","","<img src=""img/set1/S4.jpg"" width=""540"" height = ""360"" style=""border:16px solid Violet"">","null","","","","","","","",""
"null","","html-keyboard-response","316","304112","0.0-245.0","3K5TEWLKGWX2ENZ752HDGPFV97JIVG","A3P9TM5PRYBH90","3R5LWXWHR0UE010DORDQUF3E2FPGXE","","","null","","","","","","","",""
"727","","image-keyboard-response","317","304842","0.0-246.0","3K5TEWLKGWX2ENZ752HDGPFV97JIVG","A3P9TM5PRYBH90","3R5LWXWHR0UE010DORDQUF3E2FPGXE","","img/set1/S1.jpg","83","1","structured_incentive","83","true","structured_incentive,structured_normal,random","2,3,1,2","",""
"null","","html-keyboard-response","318","305197","0.0-247.0","3K5TEWLKGWX2ENZ752HDGPFV97JIVG","A3P9TM5PRYBH90","3R5LWXWHR0UE010DORDQUF3E2FPGXE","","<img src=""img/set1/S1.jpg"" width=""540"" height = ""360"" style=""border:16px solid orange"">","null","","","","","","","",""
"null","","html-keyboard-response","319","305202","0.0-248.0","3K5TEWLKGWX2ENZ752HDGPFV97JIVG","A3P9TM5PRYBH90","3R5LWXWHR0UE010DORDQUF3E2FPGXE","","","null","","","","","","","",""
"669.0999999940395","","image-keyboard-response","320","305874","0.0-249.0","3K5TEWLKGWX2ENZ752HDGPFV97JIVG","A3P9TM5PRYBH90","3R5LWXWHR0UE010DORDQUF3E2FPGXE","","img/set1/S4.jpg","74","4","structured_incentive","74","true","structured_incentive,structured_normal,random","2,3,1,2","",""
"null","","html-keyboard-response","321","306229","0.0-250.0","3K5TEWLKGWX2ENZ752HDGPFV97JIVG","A3P9TM5PRYBH90","3R5LWXWHR0UE010DORDQUF3E2FPGXE","","<img src=""img/set1/S4.jpg"" width=""540"" height = ""360"" style=""border:16px solid Violet"">","null","","","","","","","",""
"null","","html-keyboard-response","322","306231","0.0-251.0","3K5TEWLKGWX2ENZ752HDGPFV97JIVG","A3P9TM5PRYBH90","3R5LWXWHR0UE010DORDQUF3E2FPGXE","","","null","","","","","","","",""
"744.2999999970198","","image-keyboard-response","323","306978","0.0-252.0","3K5TEWLKGWX2ENZ752HDGPFV97JIVG","A3P9TM5PRYBH90","3R5LWXWHR0UE010DORDQUF3E2FPGXE","","img/set1/S1.jpg","83","1","structured_incentive","83","true","structured_incentive,structured_normal,random","2,3,1,2","",""
"null","","html-keyboard-response","324","307334","0.0-253.0","3K5TEWLKGWX2ENZ752HDGPFV97JIVG","A3P9TM5PRYBH90","3R5LWXWHR0UE010DORDQUF3E2FPGXE","","<img src=""img/set1/S1.jpg"" width=""540"" height = ""360"" style=""border:16px solid orange"">","null","","","","","","","",""
"null","","html-keyboard-response","325","307337","0.0-254.0","3K5TEWLKGWX2ENZ752HDGPFV97JIVG","A3P9TM5PRYBH90","3R5LWXWHR0UE010DORDQUF3E2FPGXE","","","null","","","","","","","",""
"567","","image-keyboard-response","326","307906","0.0-255.0","3K5TEWLKGWX2ENZ752HDGPFV97JIVG","A3P9TM5PRYBH90","3R5LWXWHR0UE010DORDQUF3E2FPGXE","","img/set1/S3.jpg","68","3","structured_incentive","72","false","structured_incentive,structured_normal,random","2,3,1,2","",""
"null","","html-keyboard-response","327","308260","0.0-256.0","3K5TEWLKGWX2ENZ752HDGPFV97JIVG","A3P9TM5PRYBH90","3R5LWXWHR0UE010DORDQUF3E2FPGXE","","<img src=""img/set1/S3.jpg"" width=""540"" height = ""360"">","null","","","","","","","",""
"null","","html-keyboard-response","328","308262","0.0-257.0","3K5TEWLKGWX2ENZ752HDGPFV97JIVG","A3P9TM5PRYBH90","3R5LWXWHR0UE010DORDQUF3E2FPGXE","","","null","","","","","","","",""
"743.7999999970198","","image-keyboard-response","329","309010","0.0-258.0","3K5TEWLKGWX2ENZ752HDGPFV97JIVG","A3P9TM5PRYBH90","3R5LWXWHR0UE010DORDQUF3E2FPGXE","","img/set1/S4.jpg","74","4","structured_incentive","74","true","structured_incentive,structured_normal,random","2,3,1,2","",""
"null","","html-keyboard-response","330","309365","0.0-259.0","3K5TEWLKGWX2ENZ752HDGPFV97JIVG","A3P9TM5PRYBH90","3R5LWXWHR0UE010DORDQUF3E2FPGXE","","<img src=""img/set1/S4.jpg"" width=""540"" height = ""360"" style=""border:16px solid Violet"">","null","","","","","","","",""
"null","","html-keyboard-response","331","309367","0.0-260.0","3K5TEWLKGWX2ENZ752HDGPFV97JIVG","A3P9TM5PRYBH90","3R5LWXWHR0UE010DORDQUF3E2FPGXE","","","null","","","","","","","",""
"859.0999999940395","","image-keyboard-response","332","310229","0.0-261.0","3K5TEWLKGWX2ENZ752HDGPFV97JIVG","A3P9TM5PRYBH90","3R5LWXWHR0UE010DORDQUF3E2FPGXE","","img/set1/S3.jpg","72","3","structured_incentive","72","true","structured_incentive,structured_normal,random","2,3,1,2","",""
"null","","html-keyboard-response","333","310583","0.0-262.0","3K5TEWLKGWX2ENZ752HDGPFV97JIVG","A3P9TM5PRYBH90","3R5LWXWHR0UE010DORDQUF3E2FPGXE","","<img src=""img/set1/S3.jpg"" width=""540"" height = ""360"" style=""border:16px solid orange"">","null","","","","","","","",""
"null","","html-keyboard-response","334","310587","0.0-263.0","3K5TEWLKGWX2ENZ752HDGPFV97JIVG","A3P9TM5PRYBH90","3R5LWXWHR0UE010DORDQUF3E2FPGXE","","","null","","","","","","","",""
"709.2000000029802","","image-keyboard-response","335","311299","0.0-264.0","3K5TEWLKGWX2ENZ752HDGPFV97JIVG","A3P9TM5PRYBH90","3R5LWXWHR0UE010DORDQUF3E2FPGXE","","img/set1/S1.jpg","83","1","structured_incentive","83","true","structured_incentive,structured_normal,random","2,3,1,2","",""
"null","","html-keyboard-response","336","311653","0.0-265.0","3K5TEWLKGWX2ENZ752HDGPFV97JIVG","A3P9TM5PRYBH90","3R5LWXWHR0UE010DORDQUF3E2FPGXE","","<img src=""img/set1/S1.jpg"" width=""540"" height = ""360"" style=""border:16px solid orange"">","null","","","","","","","",""
"null","","html-keyboard-response","337","311656","0.0-266.0","3K5TEWLKGWX2ENZ752HDGPFV97JIVG","A3P9TM5PRYBH90","3R5LWXWHR0UE010DORDQUF3E2FPGXE","","","null","","","","","","","",""
"742.7000000029802","","image-keyboard-response","338","312403","0.0-267.0","3K5TEWLKGWX2ENZ752HDGPFV97JIVG","A3P9TM5PRYBH90","3R5LWXWHR0UE010DORDQUF3E2FPGXE","","img/set1/S2.jpg","68","2","structured_incentive","68","true","structured_incentive,structured_normal,random","2,3,1,2","",""
"null","","html-keyboard-response","339","312756","0.0-268.0","3K5TEWLKGWX2ENZ752HDGPFV97JIVG","A3P9TM5PRYBH90","3R5LWXWHR0UE010DORDQUF3E2FPGXE","","<img src=""img/set1/S2.jpg"" width=""540"" height = ""360"" style=""border:16px solid orange"">","null","","","","","","","",""
"null","","html-keyboard-response","340","312759","0.0-269.0","3K5TEWLKGWX2ENZ752HDGPFV97JIVG","A3P9TM5PRYBH90","3R5LWXWHR0UE010DORDQUF3E2FPGXE","","","null","","","","","","","",""
"678.7000000029802","","image-keyboard-response","341","313442","0.0-270.0","3K5TEWLKGWX2ENZ752HDGPFV97JIVG","A3P9TM5PRYBH90","3R5LWXWHR0UE010DORDQUF3E2FPGXE","","img/set1/S4.jpg","74","4","structured_incentive","74","true","structured_incentive,structured_normal,random","2,3,1,2","",""
"null","","html-keyboard-response","342","313796","0.0-271.0","3K5TEWLKGWX2ENZ752HDGPFV97JIVG","A3P9TM5PRYBH90","3R5LWXWHR0UE010DORDQUF3E2FPGXE","","<img src=""img/set1/S4.jpg"" width=""540"" height = ""360"" style=""border:16px solid Violet"">","null","","","","","","","",""
"null","","html-keyboard-response","343","313799","0.0-272.0","3K5TEWLKGWX2ENZ752HDGPFV97JIVG","A3P9TM5PRYBH90","3R5LWXWHR0UE010DORDQUF3E2FPGXE","","","null","","","","","","","",""
"872.2999999970198","","image-keyboard-response","344","314674","0.0-273.0","3K5TEWLKGWX2ENZ752HDGPFV97JIVG","A3P9TM5PRYBH90","3R5LWXWHR0UE010DORDQUF3E2FPGXE","","img/set1/S4.jpg","74","4","structured_incentive","74","true","structured_incentive,structured_normal,random","2,3,1,2","",""
"null","","html-keyboard-response","345","315028","0.0-274.0","3K5TEWLKGWX2ENZ752HDGPFV97JIVG","A3P9TM5PRYBH90","3R5LWXWHR0UE010DORDQUF3E2FPGXE","","<img src=""img/set1/S4.jpg"" width=""540"" height = ""360"" style=""border:16px solid Violet"">","null","","","","","","","",""
"null","","html-keyboard-response","346","315033","0.0-275.0","3K5TEWLKGWX2ENZ752HDGPFV97JIVG","A3P9TM5PRYBH90","3R5LWXWHR0UE010DORDQUF3E2FPGXE","","","null","","","","","","","",""
"597.9000000059605","","image-keyboard-response","347","315634","0.0-276.0","3K5TEWLKGWX2ENZ752HDGPFV97JIVG","A3P9TM5PRYBH90","3R5LWXWHR0UE010DORDQUF3E2FPGXE","","img/set1/S2.jpg","68","2","structured_incentive","68","true","structured_incentive,structured_normal,random","2,3,1,2","",""
"null","","html-keyboard-response","348","315987","0.0-277.0","3K5TEWLKGWX2ENZ752HDGPFV97JIVG","A3P9TM5PRYBH90","3R5LWXWHR0UE010DORDQUF3E2FPGXE","","<img src=""img/set1/S2.jpg"" width=""540"" height = ""360"" style=""border:16px solid orange"">","null","","","","","","","",""
"null","","html-keyboard-response","349","315989","0.0-278.0","3K5TEWLKGWX2ENZ752HDGPFV97JIVG","A3P9TM5PRYBH90","3R5LWXWHR0UE010DORDQUF3E2FPGXE","","","null","","","","","","","",""
"514","","image-keyboard-response","350","316506","0.0-279.0","3K5TEWLKGWX2ENZ752HDGPFV97JIVG","A3P9TM5PRYBH90","3R5LWXWHR0UE010DORDQUF3E2FPGXE","","img/set1/S3.jpg","72","3","structured_incentive","72","true","structured_incentive,structured_normal,random","2,3,1,2","",""
"null","","html-keyboard-response","351","316859","0.0-280.0","3K5TEWLKGWX2ENZ752HDGPFV97JIVG","A3P9TM5PRYBH90","3R5LWXWHR0UE010DORDQUF3E2FPGXE","","<img src=""img/set1/S3.jpg"" width=""540"" height = ""360"" style=""border:16px solid orange"">","null","","","","","","","",""
"null","","html-keyboard-response","352","316863","0.0-281.0","3K5TEWLKGWX2ENZ752HDGPFV97JIVG","A3P9TM5PRYBH90","3R5LWXWHR0UE010DORDQUF3E2FPGXE","","","null","","","","","","","",""
"616","","image-keyboard-response","353","317483","0.0-282.0","3K5TEWLKGWX2ENZ752HDGPFV97JIVG","A3P9TM5PRYBH90","3R5LWXWHR0UE010DORDQUF3E2FPGXE","","img/set1/S1.jpg","83","1","structured_incentive","83","true","structured_incentive,structured_normal,random","2,3,1,2","",""
"null","","html-keyboard-response","354","317836","0.0-283.0","3K5TEWLKGWX2ENZ752HDGPFV97JIVG","A3P9TM5PRYBH90","3R5LWXWHR0UE010DORDQUF3E2FPGXE","","<img src=""img/set1/S1.jpg"" width=""540"" height = ""360"" style=""border:16px solid orange"">","null","","","","","","","",""
"null","","html-keyboard-response","355","317839","0.0-284.0","3K5TEWLKGWX2ENZ752HDGPFV97JIVG","A3P9TM5PRYBH90","3R5LWXWHR0UE010DORDQUF3E2FPGXE","","","null","","","","","","","",""
"890.7999999970198","","image-keyboard-response","356","318734","0.0-285.0","3K5TEWLKGWX2ENZ752HDGPFV97JIVG","A3P9TM5PRYBH90","3R5LWXWHR0UE010DORDQUF3E2FPGXE","","img/set1/S2.jpg","68","2","structured_incentive","68","true","structured_incentive,structured_normal,random","2,3,1,2","",""
"null","","html-keyboard-response","357","319092","0.0-286.0","3K5TEWLKGWX2ENZ752HDGPFV97JIVG","A3P9TM5PRYBH90","3R5LWXWHR0UE010DORDQUF3E2FPGXE","","<img src=""img/set1/S2.jpg"" width=""540"" height = ""360"" style=""border:16px solid orange"">","null","","","","","","","",""
"null","","html-keyboard-response","358","319099","0.0-287.0","3K5TEWLKGWX2ENZ752HDGPFV97JIVG","A3P9TM5PRYBH90","3R5LWXWHR0UE010DORDQUF3E2FPGXE","","","null","","","","","","","",""
"419.40000000596046","","image-keyboard-response","359","319520","0.0-288.0","3K5TEWLKGWX2ENZ752HDGPFV97JIVG","A3P9TM5PRYBH90","3R5LWXWHR0UE010DORDQUF3E2FPGXE","","img/set1/S3.jpg","72","3","structured_incentive","72","true","structured_incentive,structured_normal,random","2,3,1,2","",""
"null","","html-keyboard-response","360","319874","0.0-289.0","3K5TEWLKGWX2ENZ752HDGPFV97JIVG","A3P9TM5PRYBH90","3R5LWXWHR0UE010DORDQUF3E2FPGXE","","<img src=""img/set1/S3.jpg"" width=""540"" height = ""360"" style=""border:16px solid orange"">","null","","","","","","","",""
"null","","html-keyboard-response","361","319877","0.0-290.0","3K5TEWLKGWX2ENZ752HDGPFV97JIVG","A3P9TM5PRYBH90","3R5LWXWHR0UE010DORDQUF3E2FPGXE","","","null","","","","","","","",""
"691.7999999970198","","image-keyboard-response","362","320571","0.0-291.0","3K5TEWLKGWX2ENZ752HDGPFV97JIVG","A3P9TM5PRYBH90","3R5LWXWHR0UE010DORDQUF3E2FPGXE","","img/set1/S1.jpg","83","1","structured_incentive","83","true","structured_incentive,structured_normal,random","2,3,1,2","",""
"null","","html-keyboard-response","363","320925","0.0-292.0","3K5TEWLKGWX2ENZ752HDGPFV97JIVG","A3P9TM5PRYBH90","3R5LWXWHR0UE010DORDQUF3E2FPGXE","","<img src=""img/set1/S1.jpg"" width=""540"" height = ""360"" style=""border:16px solid orange"">","null","","","","","","","",""
"null","","html-keyboard-response","364","320928","0.0-293.0","3K5TEWLKGWX2ENZ752HDGPFV97JIVG","A3P9TM5PRYBH90","3R5LWXWHR0UE010DORDQUF3E2FPGXE","","","null","","","","","","","",""
"448.29999999701977","","image-keyboard-response","365","321378","0.0-294.0","3K5TEWLKGWX2ENZ752HDGPFV97JIVG","A3P9TM5PRYBH90","3R5LWXWHR0UE010DORDQUF3E2FPGXE","","img/set1/S2.jpg","68","2","structured_incentive","68","true","structured_incentive,structured_normal,random","2,3,1,2","",""
"null","","html-keyboard-response","366","321731","0.0-295.0","3K5TEWLKGWX2ENZ752HDGPFV97JIVG","A3P9TM5PRYBH90","3R5LWXWHR0UE010DORDQUF3E2FPGXE","","<img src=""img/set1/S2.jpg"" width=""540"" height = ""360"" style=""border:16px solid orange"">","null","","","","","","","",""
"null","","html-keyboard-response","367","321735","0.0-296.0","3K5TEWLKGWX2ENZ752HDGPFV97JIVG","A3P9TM5PRYBH90","3R5LWXWHR0UE010DORDQUF3E2FPGXE","","","null","","","","","","","",""
"471.20000000298023","","image-keyboard-response","368","322210","0.0-297.0","3K5TEWLKGWX2ENZ752HDGPFV97JIVG","A3P9TM5PRYBH90","3R5LWXWHR0UE010DORDQUF3E2FPGXE","","img/set1/S3.jpg","72","3","structured_incentive","72","true","structured_incentive,structured_normal,random","2,3,1,2","",""
"null","","html-keyboard-response","369","322563","0.0-298.0","3K5TEWLKGWX2ENZ752HDGPFV97JIVG","A3P9TM5PRYBH90","3R5LWXWHR0UE010DORDQUF3E2FPGXE","","<img src=""img/set1/S3.jpg"" width=""540"" height = ""360"" style=""border:16px solid orange"">","null","","","","","","","",""
"null","","html-keyboard-response","370","322566","0.0-299.0","3K5TEWLKGWX2ENZ752HDGPFV97JIVG","A3P9TM5PRYBH90","3R5LWXWHR0UE010DORDQUF3E2FPGXE","","","null","","","","","","","",""
"745.7000000029802","","image-keyboard-response","371","323314","0.0-300.0","3K5TEWLKGWX2ENZ752HDGPFV97JIVG","A3P9TM5PRYBH90","3R5LWXWHR0UE010DORDQUF3E2FPGXE","","img/set1/S1.jpg","83","1","structured_incentive","83","true","structured_incentive,structured_normal,random","2,3,1,2","",""
"null","","html-keyboard-response","372","323673","0.0-301.0","3K5TEWLKGWX2ENZ752HDGPFV97JIVG","A3P9TM5PRYBH90","3R5LWXWHR0UE010DORDQUF3E2FPGXE","","<img src=""img/set1/S1.jpg"" width=""540"" height = ""360"" style=""border:16px solid orange"">","null","","","","","","","",""
"null","","html-keyboard-response","373","323675","0.0-302.0","3K5TEWLKGWX2ENZ752HDGPFV97JIVG","A3P9TM5PRYBH90","3R5LWXWHR0UE010DORDQUF3E2FPGXE","","","null","","","","","","","",""
"1132.2000000029802","","image-keyboard-response","374","324810","0.0-303.0","3K5TEWLKGWX2ENZ752HDGPFV97JIVG","A3P9TM5PRYBH90","3R5LWXWHR0UE010DORDQUF3E2FPGXE","","img/set1/S4.jpg","74","4","structured_incentive","74","true","structured_incentive,structured_normal,random","2,3,1,2","",""
"null","","html-keyboard-response","375","325164","0.0-304.0","3K5TEWLKGWX2ENZ752HDGPFV97JIVG","A3P9TM5PRYBH90","3R5LWXWHR0UE010DORDQUF3E2FPGXE","","<img src=""img/set1/S4.jpg"" width=""540"" height = ""360"" style=""border:16px solid Violet"">","null","","","","","","","",""
"null","","html-keyboard-response","376","325168","0.0-305.0","3K5TEWLKGWX2ENZ752HDGPFV97JIVG","A3P9TM5PRYBH90","3R5LWXWHR0UE010DORDQUF3E2FPGXE","","","null","","","","","","","",""
"647.7999999970198","","image-keyboard-response","377","325818","0.0-306.0","3K5TEWLKGWX2ENZ752HDGPFV97JIVG","A3P9TM5PRYBH90","3R5LWXWHR0UE010DORDQUF3E2FPGXE","","img/set1/S1.jpg","83","1","structured_incentive","83","true","structured_incentive,structured_normal,random","2,3,1,2","",""
"null","","html-keyboard-response","378","326171","0.0-307.0","3K5TEWLKGWX2ENZ752HDGPFV97JIVG","A3P9TM5PRYBH90","3R5LWXWHR0UE010DORDQUF3E2FPGXE","","<img src=""img/set1/S1.jpg"" width=""540"" height = ""360"" style=""border:16px solid orange"">","null","","","","","","","",""
"null","","html-keyboard-response","379","326174","0.0-308.0","3K5TEWLKGWX2ENZ752HDGPFV97JIVG","A3P9TM5PRYBH90","3R5LWXWHR0UE010DORDQUF3E2FPGXE","","","null","","","","","","","",""
"569.7000000029802","","image-keyboard-response","380","326747","0.0-309.0","3K5TEWLKGWX2ENZ752HDGPFV97JIVG","A3P9TM5PRYBH90","3R5LWXWHR0UE010DORDQUF3E2FPGXE","","img/set1/S2.jpg","68","2","structured_incentive","68","true","structured_incentive,structured_normal,random","2,3,1,2","",""
"null","","html-keyboard-response","381","327103","0.0-310.0","3K5TEWLKGWX2ENZ752HDGPFV97JIVG","A3P9TM5PRYBH90","3R5LWXWHR0UE010DORDQUF3E2FPGXE","","<img src=""img/set1/S2.jpg"" width=""540"" height = ""360"" style=""border:16px solid orange"">","null","","","","","","","",""
"null","","html-keyboard-response","382","327106","0.0-311.0","3K5TEWLKGWX2ENZ752HDGPFV97JIVG","A3P9TM5PRYBH90","3R5LWXWHR0UE010DORDQUF3E2FPGXE","","","null","","","","","","","",""
"700","","image-keyboard-response","383","327810","0.0-312.0","3K5TEWLKGWX2ENZ752HDGPFV97JIVG","A3P9TM5PRYBH90","3R5LWXWHR0UE010DORDQUF3E2FPGXE","","img/set1/S4.jpg","74","4","structured_incentive","74","true","structured_incentive,structured_normal,random","2,3,1,2","",""
"null","","html-keyboard-response","384","328164","0.0-313.0","3K5TEWLKGWX2ENZ752HDGPFV97JIVG","A3P9TM5PRYBH90","3R5LWXWHR0UE010DORDQUF3E2FPGXE","","<img src=""img/set1/S4.jpg"" width=""540"" height = ""360"" style=""border:16px solid Violet"">","null","","","","","","","",""
"null","","html-keyboard-response","385","328167","0.0-314.0","3K5TEWLKGWX2ENZ752HDGPFV97JIVG","A3P9TM5PRYBH90","3R5LWXWHR0UE010DORDQUF3E2FPGXE","","","null","","","","","","","",""
"673.4000000059605","","image-keyboard-response","386","328843","0.0-315.0","3K5TEWLKGWX2ENZ752HDGPFV97JIVG","A3P9TM5PRYBH90","3R5LWXWHR0UE010DORDQUF3E2FPGXE","","img/set1/S3.jpg","72","3","structured_incentive","72","true","structured_incentive,structured_normal,random","2,3,1,2","",""
"null","","html-keyboard-response","387","329204","0.0-316.0","3K5TEWLKGWX2ENZ752HDGPFV97JIVG","A3P9TM5PRYBH90","3R5LWXWHR0UE010DORDQUF3E2FPGXE","","<img src=""img/set1/S3.jpg"" width=""540"" height = ""360"" style=""border:16px solid orange"">","null","","","","","","","",""
"null","","html-keyboard-response","388","329207","0.0-317.0","3K5TEWLKGWX2ENZ752HDGPFV97JIVG","A3P9TM5PRYBH90","3R5LWXWHR0UE010DORDQUF3E2FPGXE","","","null","","","","","","","",""
"936.2000000029802","","image-keyboard-response","389","330147","0.0-318.0","3K5TEWLKGWX2ENZ752HDGPFV97JIVG","A3P9TM5PRYBH90","3R5LWXWHR0UE010DORDQUF3E2FPGXE","","img/set1/S1.jpg","83","1","structured_incentive","83","true","structured_incentive,structured_normal,random","2,3,1,2","",""
"null","","html-keyboard-response","390","330501","0.0-319.0","3K5TEWLKGWX2ENZ752HDGPFV97JIVG","A3P9TM5PRYBH90","3R5LWXWHR0UE010DORDQUF3E2FPGXE","","<img src=""img/set1/S1.jpg"" width=""540"" height = ""360"" style=""border:16px solid orange"">","null","","","","","","","",""
"null","","html-keyboard-response","391","330503","0.0-320.0","3K5TEWLKGWX2ENZ752HDGPFV97JIVG","A3P9TM5PRYBH90","3R5LWXWHR0UE010DORDQUF3E2FPGXE","","","null","","","","","","","",""
"579.5","","image-keyboard-response","392","331085","0.0-321.0","3K5TEWLKGWX2ENZ752HDGPFV97JIVG","A3P9TM5PRYBH90","3R5LWXWHR0UE010DORDQUF3E2FPGXE","","img/set1/S1.jpg","83","1","structured_incentive","83","true","structured_incentive,structured_normal,random","2,3,1,2","",""
"null","","html-keyboard-response","393","331439","0.0-322.0","3K5TEWLKGWX2ENZ752HDGPFV97JIVG","A3P9TM5PRYBH90","3R5LWXWHR0UE010DORDQUF3E2FPGXE","","<img src=""img/set1/S1.jpg"" width=""540"" height = ""360"" style=""border:16px solid orange"">","null","","","","","","","",""
"null","","html-keyboard-response","394","331442","0.0-323.0","3K5TEWLKGWX2ENZ752HDGPFV97JIVG","A3P9TM5PRYBH90","3R5LWXWHR0UE010DORDQUF3E2FPGXE","","","null","","","","","","","",""
"453","","image-keyboard-response","395","331898","0.0-324.0","3K5TEWLKGWX2ENZ752HDGPFV97JIVG","A3P9TM5PRYBH90","3R5LWXWHR0UE010DORDQUF3E2FPGXE","","img/set1/S1.jpg","83","1","structured_incentive","83","true","structured_incentive,structured_normal,random","2,3,1,2","",""
"null","","html-keyboard-response","396","332256","0.0-325.0","3K5TEWLKGWX2ENZ752HDGPFV97JIVG","A3P9TM5PRYBH90","3R5LWXWHR0UE010DORDQUF3E2FPGXE","","<img src=""img/set1/S1.jpg"" width=""540"" height = ""360"" style=""border:16px solid orange"">","null","","","","","","","",""
"null","","html-keyboard-response","397","332258","0.0-326.0","3K5TEWLKGWX2ENZ752HDGPFV97JIVG","A3P9TM5PRYBH90","3R5LWXWHR0UE010DORDQUF3E2FPGXE","","","null","","","","","","","",""
"677.1000000089407","","image-keyboard-response","398","332938","0.0-327.0","3K5TEWLKGWX2ENZ752HDGPFV97JIVG","A3P9TM5PRYBH90","3R5LWXWHR0UE010DORDQUF3E2FPGXE","","img/set1/S2.jpg","68","2","structured_incentive","68","true","structured_incentive,structured_normal,random","2,3,1,2","",""
"null","","html-keyboard-response","399","333293","0.0-328.0","3K5TEWLKGWX2ENZ752HDGPFV97JIVG","A3P9TM5PRYBH90","3R5LWXWHR0UE010DORDQUF3E2FPGXE","","<img src=""img/set1/S2.jpg"" width=""540"" height = ""360"" style=""border:16px solid orange"">","null","","","","","","","",""
"null","","html-keyboard-response","400","333296","0.0-329.0","3K5TEWLKGWX2ENZ752HDGPFV97JIVG","A3P9TM5PRYBH90","3R5LWXWHR0UE010DORDQUF3E2FPGXE","","","null","","","","","","","",""
"646.4000000059605","","image-keyboard-response","401","333946","0.0-330.0","3K5TEWLKGWX2ENZ752HDGPFV97JIVG","A3P9TM5PRYBH90","3R5LWXWHR0UE010DORDQUF3E2FPGXE","","img/set1/S3.jpg","72","3","structured_incentive","72","true","structured_incentive,structured_normal,random","2,3,1,2","",""
"null","","html-keyboard-response","402","334301","0.0-331.0","3K5TEWLKGWX2ENZ752HDGPFV97JIVG","A3P9TM5PRYBH90","3R5LWXWHR0UE010DORDQUF3E2FPGXE","","<img src=""img/set1/S3.jpg"" width=""540"" height = ""360"" style=""border:16px solid orange"">","null","","","","","","","",""
"null","","html-keyboard-response","403","334303","0.0-332.0","3K5TEWLKGWX2ENZ752HDGPFV97JIVG","A3P9TM5PRYBH90","3R5LWXWHR0UE010DORDQUF3E2FPGXE","","","null","","","","","","","",""
"640.5","","image-keyboard-response","404","334946","0.0-333.0","3K5TEWLKGWX2ENZ752HDGPFV97JIVG","A3P9TM5PRYBH90","3R5LWXWHR0UE010DORDQUF3E2FPGXE","","img/set1/S2.jpg","68","2","structured_incentive","68","true","structured_incentive,structured_normal,random","2,3,1,2","",""
"null","","html-keyboard-response","405","335300","0.0-334.0","3K5TEWLKGWX2ENZ752HDGPFV97JIVG","A3P9TM5PRYBH90","3R5LWXWHR0UE010DORDQUF3E2FPGXE","","<img src=""img/set1/S2.jpg"" width=""540"" height = ""360"" style=""border:16px solid orange"">","null","","","","","","","",""
"null","","html-keyboard-response","406","335304","0.0-335.0","3K5TEWLKGWX2ENZ752HDGPFV97JIVG","A3P9TM5PRYBH90","3R5LWXWHR0UE010DORDQUF3E2FPGXE","","","null","","","","","","","",""
"465.1000000089407","","image-keyboard-response","407","335771","0.0-336.0","3K5TEWLKGWX2ENZ752HDGPFV97JIVG","A3P9TM5PRYBH90","3R5LWXWHR0UE010DORDQUF3E2FPGXE","","img/set1/S3.jpg","72","3","structured_incentive","72","true","structured_incentive,structured_normal,random","2,3,1,2","",""
