"rt","url","trial_type","trial_index","time_elapsed","internal_node_id","assignmentID","mturkID","hitID","view_history","stimulus","key_press","state","test_part","correct_response","correct","order_block","order_chunk","bonus","responses"
"16166.399999976158","consent.html","external-html","0","16220","0.0-0.0","3NG53N1RLW5WKXQYA4WNX8WZKNE8PE","A3PLWSCPFLCEGI","3R5LWXWHR0UE010DORDQUF3E2FPGXE","","","","","","","","","","",""
"86444.60000002384","","instructions","1","102669","0.0-1.0","3NG53N1RLW5WKXQYA4WNX8WZKNE8PE","A3PLWSCPFLCEGI","3R5LWXWHR0UE010DORDQUF3E2FPGXE","[{""page_index"":0,""viewing_time"":4035.900000035763},{""page_index"":1,""viewing_time"":5351.699999988079},{""page_index"":2,""viewing_time"":8688.399999976158},{""page_index"":3,""viewing_time"":37423.80000001192},{""page_index"":4,""viewing_time"":5391.800000011921},{""page_index"":5,""viewing_time"":13096},{""page_index"":6,""viewing_time"":3152.300000011921},{""page_index"":7,""viewing_time"":9304}]","","","","","","","","","",""
"1855.3999999761581","","image-keyboard-response","2","104526","0.0-2.0-0.0","3NG53N1RLW5WKXQYA4WNX8WZKNE8PE","A3PLWSCPFLCEGI","3R5LWXWHR0UE010DORDQUF3E2FPGXE","","img/practice/S4.jpg","83","4","practice","74","false","","","",""
"null","","html-keyboard-response","3","104831","0.0-2.0-1.0","3NG53N1RLW5WKXQYA4WNX8WZKNE8PE","A3PLWSCPFLCEGI","3R5LWXWHR0UE010DORDQUF3E2FPGXE","","<img src=""img/practice/S4.jpg"" width=""540"" height = ""360"">","null","","","","","","","",""
"null","","html-keyboard-response","4","104834","0.0-2.0-2.0","3NG53N1RLW5WKXQYA4WNX8WZKNE8PE","A3PLWSCPFLCEGI","3R5LWXWHR0UE010DORDQUF3E2FPGXE","","","null","","","","","","","",""
"1377.3999999761581","","image-keyboard-response","5","106213","0.0-2.0-0.1","3NG53N1RLW5WKXQYA4WNX8WZKNE8PE","A3PLWSCPFLCEGI","3R5LWXWHR0UE010DORDQUF3E2FPGXE","","img/practice/S3.jpg","68","3","practice","72","false","","","",""
"null","","html-keyboard-response","6","106518","0.0-2.0-1.1","3NG53N1RLW5WKXQYA4WNX8WZKNE8PE","A3PLWSCPFLCEGI","3R5LWXWHR0UE010DORDQUF3E2FPGXE","","<img src=""img/practice/S3.jpg"" width=""540"" height = ""360"">","null","","","","","","","",""
"null","","html-keyboard-response","7","106520","0.0-2.0-2.1","3NG53N1RLW5WKXQYA4WNX8WZKNE8PE","A3PLWSCPFLCEGI","3R5LWXWHR0UE010DORDQUF3E2FPGXE","","","null","","","","","","","",""
"861.5999999642372","","image-keyboard-response","8","107383","0.0-2.0-0.2","3NG53N1RLW5WKXQYA4WNX8WZKNE8PE","A3PLWSCPFLCEGI","3R5LWXWHR0UE010DORDQUF3E2FPGXE","","img/practice/S1.jpg","72","1","practice","83","false","","","",""
"null","","html-keyboard-response","9","107687","0.0-2.0-1.2","3NG53N1RLW5WKXQYA4WNX8WZKNE8PE","A3PLWSCPFLCEGI","3R5LWXWHR0UE010DORDQUF3E2FPGXE","","<img src=""img/practice/S1.jpg"" width=""540"" height = ""360"">","null","","","","","","","",""
"null","","html-keyboard-response","10","107689","0.0-2.0-2.2","3NG53N1RLW5WKXQYA4WNX8WZKNE8PE","A3PLWSCPFLCEGI","3R5LWXWHR0UE010DORDQUF3E2FPGXE","","","null","","","","","","","",""
"603.8000000119209","","image-keyboard-response","11","108294","0.0-2.0-0.3","3NG53N1RLW5WKXQYA4WNX8WZKNE8PE","A3PLWSCPFLCEGI","3R5LWXWHR0UE010DORDQUF3E2FPGXE","","img/practice/S2.jpg","74","2","practice","68","false","","","",""
"null","","html-keyboard-response","12","108598","0.0-2.0-1.3","3NG53N1RLW5WKXQYA4WNX8WZKNE8PE","A3PLWSCPFLCEGI","3R5LWXWHR0UE010DORDQUF3E2FPGXE","","<img src=""img/practice/S2.jpg"" width=""540"" height = ""360"">","null","","","","","","","",""
"null","","html-keyboard-response","13","108600","0.0-2.0-2.3","3NG53N1RLW5WKXQYA4WNX8WZKNE8PE","A3PLWSCPFLCEGI","3R5LWXWHR0UE010DORDQUF3E2FPGXE","","","null","","","","","","","",""
"1481.5","","image-keyboard-response","14","110083","0.0-2.0-0.4","3NG53N1RLW5WKXQYA4WNX8WZKNE8PE","A3PLWSCPFLCEGI","3R5LWXWHR0UE010DORDQUF3E2FPGXE","","img/practice/S2.jpg","72","2","practice","68","false","","","",""
"null","","html-keyboard-response","15","110387","0.0-2.0-1.4","3NG53N1RLW5WKXQYA4WNX8WZKNE8PE","A3PLWSCPFLCEGI","3R5LWXWHR0UE010DORDQUF3E2FPGXE","","<img src=""img/practice/S2.jpg"" width=""540"" height = ""360"">","null","","","","","","","",""
"null","","html-keyboard-response","16","110389","0.0-2.0-2.4","3NG53N1RLW5WKXQYA4WNX8WZKNE8PE","A3PLWSCPFLCEGI","3R5LWXWHR0UE010DORDQUF3E2FPGXE","","","null","","","","","","","",""
"581.1000000238419","","image-keyboard-response","17","110972","0.0-2.0-0.5","3NG53N1RLW5WKXQYA4WNX8WZKNE8PE","A3PLWSCPFLCEGI","3R5LWXWHR0UE010DORDQUF3E2FPGXE","","img/practice/S3.jpg","74","3","practice","72","false","","","",""
"null","","html-keyboard-response","18","111277","0.0-2.0-1.5","3NG53N1RLW5WKXQYA4WNX8WZKNE8PE","A3PLWSCPFLCEGI","3R5LWXWHR0UE010DORDQUF3E2FPGXE","","<img src=""img/practice/S3.jpg"" width=""540"" height = ""360"">","null","","","","","","","",""
"null","","html-keyboard-response","19","111279","0.0-2.0-2.5","3NG53N1RLW5WKXQYA4WNX8WZKNE8PE","A3PLWSCPFLCEGI","3R5LWXWHR0UE010DORDQUF3E2FPGXE","","","null","","","","","","","",""
"276.89999997615814","","image-keyboard-response","20","111557","0.0-2.0-0.6","3NG53N1RLW5WKXQYA4WNX8WZKNE8PE","A3PLWSCPFLCEGI","3R5LWXWHR0UE010DORDQUF3E2FPGXE","","img/practice/S1.jpg","83","1","practice","83","true","","","",""
"null","","html-keyboard-response","21","111862","0.0-2.0-1.6","3NG53N1RLW5WKXQYA4WNX8WZKNE8PE","A3PLWSCPFLCEGI","3R5LWXWHR0UE010DORDQUF3E2FPGXE","","<img src=""img/practice/S1.jpg"" width=""540"" height = ""360"" style=""border:16px solid orange"">","null","","","","","","","",""
"null","","html-keyboard-response","22","111864","0.0-2.0-2.6","3NG53N1RLW5WKXQYA4WNX8WZKNE8PE","A3PLWSCPFLCEGI","3R5LWXWHR0UE010DORDQUF3E2FPGXE","","","null","","","","","","","",""
"63.69999998807907","","image-keyboard-response","23","111929","0.0-2.0-0.7","3NG53N1RLW5WKXQYA4WNX8WZKNE8PE","A3PLWSCPFLCEGI","3R5LWXWHR0UE010DORDQUF3E2FPGXE","","img/practice/S4.jpg","68","4","practice","74","false","","","",""
"null","","html-keyboard-response","24","112231","0.0-2.0-1.7","3NG53N1RLW5WKXQYA4WNX8WZKNE8PE","A3PLWSCPFLCEGI","3R5LWXWHR0UE010DORDQUF3E2FPGXE","","<img src=""img/practice/S4.jpg"" width=""540"" height = ""360"">","null","","","","","","","",""
"null","","html-keyboard-response","25","112233","0.0-2.0-2.7","3NG53N1RLW5WKXQYA4WNX8WZKNE8PE","A3PLWSCPFLCEGI","3R5LWXWHR0UE010DORDQUF3E2FPGXE","","","null","","","","","","","",""
"233.39999997615814","","image-keyboard-response","26","112468","0.0-2.0-0.8","3NG53N1RLW5WKXQYA4WNX8WZKNE8PE","A3PLWSCPFLCEGI","3R5LWXWHR0UE010DORDQUF3E2FPGXE","","img/practice/S1.jpg","72","1","practice","83","false","","","",""
"null","","html-keyboard-response","27","112771","0.0-2.0-1.8","3NG53N1RLW5WKXQYA4WNX8WZKNE8PE","A3PLWSCPFLCEGI","3R5LWXWHR0UE010DORDQUF3E2FPGXE","","<img src=""img/practice/S1.jpg"" width=""540"" height = ""360"">","null","","","","","","","",""
"null","","html-keyboard-response","28","112773","0.0-2.0-2.8","3NG53N1RLW5WKXQYA4WNX8WZKNE8PE","A3PLWSCPFLCEGI","3R5LWXWHR0UE010DORDQUF3E2FPGXE","","","null","","","","","","","",""
"9.899999976158142","","image-keyboard-response","29","112784","0.0-2.0-0.9","3NG53N1RLW5WKXQYA4WNX8WZKNE8PE","A3PLWSCPFLCEGI","3R5LWXWHR0UE010DORDQUF3E2FPGXE","","img/practice/S4.jpg","74","4","practice","74","true","","","",""
"null","","html-keyboard-response","30","113086","0.0-2.0-1.9","3NG53N1RLW5WKXQYA4WNX8WZKNE8PE","A3PLWSCPFLCEGI","3R5LWXWHR0UE010DORDQUF3E2FPGXE","","<img src=""img/practice/S4.jpg"" width=""540"" height = ""360"" style=""border:16px solid orange"">","null","","","","","","","",""
"null","","html-keyboard-response","31","113088","0.0-2.0-2.9","3NG53N1RLW5WKXQYA4WNX8WZKNE8PE","A3PLWSCPFLCEGI","3R5LWXWHR0UE010DORDQUF3E2FPGXE","","","null","","","","","","","",""
"53.30000001192093","","image-keyboard-response","32","113143","0.0-2.0-0.10","3NG53N1RLW5WKXQYA4WNX8WZKNE8PE","A3PLWSCPFLCEGI","3R5LWXWHR0UE010DORDQUF3E2FPGXE","","img/practice/S2.jpg","83","2","practice","68","false","","","",""
"null","","html-keyboard-response","33","113447","0.0-2.0-1.10","3NG53N1RLW5WKXQYA4WNX8WZKNE8PE","A3PLWSCPFLCEGI","3R5LWXWHR0UE010DORDQUF3E2FPGXE","","<img src=""img/practice/S2.jpg"" width=""540"" height = ""360"">","null","","","","","","","",""
"null","","html-keyboard-response","34","113450","0.0-2.0-2.10","3NG53N1RLW5WKXQYA4WNX8WZKNE8PE","A3PLWSCPFLCEGI","3R5LWXWHR0UE010DORDQUF3E2FPGXE","","","null","","","","","","","",""
"10","","image-keyboard-response","35","113461","0.0-2.0-0.11","3NG53N1RLW5WKXQYA4WNX8WZKNE8PE","A3PLWSCPFLCEGI","3R5LWXWHR0UE010DORDQUF3E2FPGXE","","img/practice/S3.jpg","72","3","practice","72","true","","","",""
"null","","html-keyboard-response","36","113765","0.0-2.0-1.11","3NG53N1RLW5WKXQYA4WNX8WZKNE8PE","A3PLWSCPFLCEGI","3R5LWXWHR0UE010DORDQUF3E2FPGXE","","<img src=""img/practice/S3.jpg"" width=""540"" height = ""360"" style=""border:16px solid orange"">","null","","","","","","","",""
"null","","html-keyboard-response","37","113767","0.0-2.0-2.11","3NG53N1RLW5WKXQYA4WNX8WZKNE8PE","A3PLWSCPFLCEGI","3R5LWXWHR0UE010DORDQUF3E2FPGXE","","","null","","","","","","","",""
"15.800000011920929","","image-keyboard-response","38","113784","0.0-2.0-0.12","3NG53N1RLW5WKXQYA4WNX8WZKNE8PE","A3PLWSCPFLCEGI","3R5LWXWHR0UE010DORDQUF3E2FPGXE","","img/practice/S1.jpg","68","1","practice","83","false","","","",""
"null","","html-keyboard-response","39","114088","0.0-2.0-1.12","3NG53N1RLW5WKXQYA4WNX8WZKNE8PE","A3PLWSCPFLCEGI","3R5LWXWHR0UE010DORDQUF3E2FPGXE","","<img src=""img/practice/S1.jpg"" width=""540"" height = ""360"">","null","","","","","","","",""
"null","","html-keyboard-response","40","114090","0.0-2.0-2.12","3NG53N1RLW5WKXQYA4WNX8WZKNE8PE","A3PLWSCPFLCEGI","3R5LWXWHR0UE010DORDQUF3E2FPGXE","","","null","","","","","","","",""
"221.89999997615814","","image-keyboard-response","41","114313","0.0-2.0-0.13","3NG53N1RLW5WKXQYA4WNX8WZKNE8PE","A3PLWSCPFLCEGI","3R5LWXWHR0UE010DORDQUF3E2FPGXE","","img/practice/S4.jpg","83","4","practice","74","false","","","",""
"null","","html-keyboard-response","42","114615","0.0-2.0-1.13","3NG53N1RLW5WKXQYA4WNX8WZKNE8PE","A3PLWSCPFLCEGI","3R5LWXWHR0UE010DORDQUF3E2FPGXE","","<img src=""img/practice/S4.jpg"" width=""540"" height = ""360"">","null","","","","","","","",""
"null","","html-keyboard-response","43","114617","0.0-2.0-2.13","3NG53N1RLW5WKXQYA4WNX8WZKNE8PE","A3PLWSCPFLCEGI","3R5LWXWHR0UE010DORDQUF3E2FPGXE","","","null","","","","","","","",""
"268.69999998807907","","image-keyboard-response","44","114887","0.0-2.0-0.14","3NG53N1RLW5WKXQYA4WNX8WZKNE8PE","A3PLWSCPFLCEGI","3R5LWXWHR0UE010DORDQUF3E2FPGXE","","img/practice/S2.jpg","68","2","practice","68","true","","","",""
"null","","html-keyboard-response","45","115190","0.0-2.0-1.14","3NG53N1RLW5WKXQYA4WNX8WZKNE8PE","A3PLWSCPFLCEGI","3R5LWXWHR0UE010DORDQUF3E2FPGXE","","<img src=""img/practice/S2.jpg"" width=""540"" height = ""360"" style=""border:16px solid orange"">","null","","","","","","","",""
"null","","html-keyboard-response","46","115193","0.0-2.0-2.14","3NG53N1RLW5WKXQYA4WNX8WZKNE8PE","A3PLWSCPFLCEGI","3R5LWXWHR0UE010DORDQUF3E2FPGXE","","","null","","","","","","","",""
"401.0999999642372","","image-keyboard-response","47","115595","0.0-2.0-0.15","3NG53N1RLW5WKXQYA4WNX8WZKNE8PE","A3PLWSCPFLCEGI","3R5LWXWHR0UE010DORDQUF3E2FPGXE","","img/practice/S3.jpg","83","3","practice","72","false","","","",""
"null","","html-keyboard-response","48","115901","0.0-2.0-1.15","3NG53N1RLW5WKXQYA4WNX8WZKNE8PE","A3PLWSCPFLCEGI","3R5LWXWHR0UE010DORDQUF3E2FPGXE","","<img src=""img/practice/S3.jpg"" width=""540"" height = ""360"">","null","","","","","","","",""
"null","","html-keyboard-response","49","115903","0.0-2.0-2.15","3NG53N1RLW5WKXQYA4WNX8WZKNE8PE","A3PLWSCPFLCEGI","3R5LWXWHR0UE010DORDQUF3E2FPGXE","","","null","","","","","","","",""
"84.59999996423721","","image-keyboard-response","50","115989","0.0-2.0-0.16","3NG53N1RLW5WKXQYA4WNX8WZKNE8PE","A3PLWSCPFLCEGI","3R5LWXWHR0UE010DORDQUF3E2FPGXE","","img/practice/S1.jpg","72","1","practice","83","false","","","",""
"null","","html-keyboard-response","51","116294","0.0-2.0-1.16","3NG53N1RLW5WKXQYA4WNX8WZKNE8PE","A3PLWSCPFLCEGI","3R5LWXWHR0UE010DORDQUF3E2FPGXE","","<img src=""img/practice/S1.jpg"" width=""540"" height = ""360"">","null","","","","","","","",""
"null","","html-keyboard-response","52","116296","0.0-2.0-2.16","3NG53N1RLW5WKXQYA4WNX8WZKNE8PE","A3PLWSCPFLCEGI","3R5LWXWHR0UE010DORDQUF3E2FPGXE","","","null","","","","","","","",""
"299.39999997615814","","image-keyboard-response","53","116597","0.0-2.0-0.17","3NG53N1RLW5WKXQYA4WNX8WZKNE8PE","A3PLWSCPFLCEGI","3R5LWXWHR0UE010DORDQUF3E2FPGXE","","img/practice/S2.jpg","68","2","practice","68","true","","","",""
"null","","html-keyboard-response","54","116901","0.0-2.0-1.17","3NG53N1RLW5WKXQYA4WNX8WZKNE8PE","A3PLWSCPFLCEGI","3R5LWXWHR0UE010DORDQUF3E2FPGXE","","<img src=""img/practice/S2.jpg"" width=""540"" height = ""360"" style=""border:16px solid orange"">","null","","","","","","","",""
"null","","html-keyboard-response","55","116902","0.0-2.0-2.17","3NG53N1RLW5WKXQYA4WNX8WZKNE8PE","A3PLWSCPFLCEGI","3R5LWXWHR0UE010DORDQUF3E2FPGXE","","","null","","","","","","","",""
"536.6999999880791","","image-keyboard-response","56","117440","0.0-2.0-0.18","3NG53N1RLW5WKXQYA4WNX8WZKNE8PE","A3PLWSCPFLCEGI","3R5LWXWHR0UE010DORDQUF3E2FPGXE","","img/practice/S3.jpg","74","3","practice","72","false","","","",""
"null","","html-keyboard-response","57","117747","0.0-2.0-1.18","3NG53N1RLW5WKXQYA4WNX8WZKNE8PE","A3PLWSCPFLCEGI","3R5LWXWHR0UE010DORDQUF3E2FPGXE","","<img src=""img/practice/S3.jpg"" width=""540"" height = ""360"">","null","","","","","","","",""
"null","","html-keyboard-response","58","117748","0.0-2.0-2.18","3NG53N1RLW5WKXQYA4WNX8WZKNE8PE","A3PLWSCPFLCEGI","3R5LWXWHR0UE010DORDQUF3E2FPGXE","","","null","","","","","","","",""
"343.10000002384186","","image-keyboard-response","59","118093","0.0-2.0-0.19","3NG53N1RLW5WKXQYA4WNX8WZKNE8PE","A3PLWSCPFLCEGI","3R5LWXWHR0UE010DORDQUF3E2FPGXE","","img/practice/S4.jpg","83","4","practice","74","false","","","",""
"null","","html-keyboard-response","60","118397","0.0-2.0-1.19","3NG53N1RLW5WKXQYA4WNX8WZKNE8PE","A3PLWSCPFLCEGI","3R5LWXWHR0UE010DORDQUF3E2FPGXE","","<img src=""img/practice/S4.jpg"" width=""540"" height = ""360"">","null","","","","","","","",""
"null","","html-keyboard-response","61","118399","0.0-2.0-2.19","3NG53N1RLW5WKXQYA4WNX8WZKNE8PE","A3PLWSCPFLCEGI","3R5LWXWHR0UE010DORDQUF3E2FPGXE","","","null","","","","","","","",""
"300.5","","image-keyboard-response","62","118700","0.0-2.0-0.20","3NG53N1RLW5WKXQYA4WNX8WZKNE8PE","A3PLWSCPFLCEGI","3R5LWXWHR0UE010DORDQUF3E2FPGXE","","img/practice/S3.jpg","72","3","practice","72","true","","","",""
"null","","html-keyboard-response","63","119003","0.0-2.0-1.20","3NG53N1RLW5WKXQYA4WNX8WZKNE8PE","A3PLWSCPFLCEGI","3R5LWXWHR0UE010DORDQUF3E2FPGXE","","<img src=""img/practice/S3.jpg"" width=""540"" height = ""360"" style=""border:16px solid orange"">","null","","","","","","","",""
"null","","html-keyboard-response","64","119005","0.0-2.0-2.20","3NG53N1RLW5WKXQYA4WNX8WZKNE8PE","A3PLWSCPFLCEGI","3R5LWXWHR0UE010DORDQUF3E2FPGXE","","","null","","","","","","","",""
"312.69999998807907","","image-keyboard-response","65","119319","0.0-2.0-0.21","3NG53N1RLW5WKXQYA4WNX8WZKNE8PE","A3PLWSCPFLCEGI","3R5LWXWHR0UE010DORDQUF3E2FPGXE","","img/practice/S2.jpg","74","2","practice","68","false","","","",""
"null","","html-keyboard-response","66","119625","0.0-2.0-1.21","3NG53N1RLW5WKXQYA4WNX8WZKNE8PE","A3PLWSCPFLCEGI","3R5LWXWHR0UE010DORDQUF3E2FPGXE","","<img src=""img/practice/S2.jpg"" width=""540"" height = ""360"">","null","","","","","","","",""
"null","","html-keyboard-response","67","119627","0.0-2.0-2.21","3NG53N1RLW5WKXQYA4WNX8WZKNE8PE","A3PLWSCPFLCEGI","3R5LWXWHR0UE010DORDQUF3E2FPGXE","","","null","","","","","","","",""
"16.80000001192093","","image-keyboard-response","68","119645","0.0-2.0-0.22","3NG53N1RLW5WKXQYA4WNX8WZKNE8PE","A3PLWSCPFLCEGI","3R5LWXWHR0UE010DORDQUF3E2FPGXE","","img/practice/S4.jpg","83","4","practice","74","false","","","",""
"null","","html-keyboard-response","69","119951","0.0-2.0-1.22","3NG53N1RLW5WKXQYA4WNX8WZKNE8PE","A3PLWSCPFLCEGI","3R5LWXWHR0UE010DORDQUF3E2FPGXE","","<img src=""img/practice/S4.jpg"" width=""540"" height = ""360"">","null","","","","","","","",""
"null","","html-keyboard-response","70","119954","0.0-2.0-2.22","3NG53N1RLW5WKXQYA4WNX8WZKNE8PE","A3PLWSCPFLCEGI","3R5LWXWHR0UE010DORDQUF3E2FPGXE","","","null","","","","","","","",""
"6","","image-keyboard-response","71","119961","0.0-2.0-0.23","3NG53N1RLW5WKXQYA4WNX8WZKNE8PE","A3PLWSCPFLCEGI","3R5LWXWHR0UE010DORDQUF3E2FPGXE","","img/practice/S1.jpg","72","1","practice","83","false","","","",""
"null","","html-keyboard-response","72","120268","0.0-2.0-1.23","3NG53N1RLW5WKXQYA4WNX8WZKNE8PE","A3PLWSCPFLCEGI","3R5LWXWHR0UE010DORDQUF3E2FPGXE","","<img src=""img/practice/S1.jpg"" width=""540"" height = ""360"">","null","","","","","","","",""
"null","","html-keyboard-response","73","120269","0.0-2.0-2.23","3NG53N1RLW5WKXQYA4WNX8WZKNE8PE","A3PLWSCPFLCEGI","3R5LWXWHR0UE010DORDQUF3E2FPGXE","","","null","","","","","","","",""
"3126.699999988079","","instructions","74","123397","0.0-3.0","3NG53N1RLW5WKXQYA4WNX8WZKNE8PE","A3PLWSCPFLCEGI","3R5LWXWHR0UE010DORDQUF3E2FPGXE","[{""page_index"":0,""viewing_time"":3126.199999988079}]","","","","","","","","","",""
"12463.599999964237","","instructions","75","135861","0.0-4.0","3NG53N1RLW5WKXQYA4WNX8WZKNE8PE","A3PLWSCPFLCEGI","3R5LWXWHR0UE010DORDQUF3E2FPGXE","[{""page_index"":0,""viewing_time"":12463.099999964237}]","","","","","","","","","",""
"15879.699999988079","","instructions","76","151742","0.0-5.0","3NG53N1RLW5WKXQYA4WNX8WZKNE8PE","A3PLWSCPFLCEGI","3R5LWXWHR0UE010DORDQUF3E2FPGXE","[{""page_index"":0,""viewing_time"":8295.199999988079},{""page_index"":1,""viewing_time"":7584}]","","","","","","","","","",""
"1630","","image-keyboard-response","77","153373","0.0-6.0","3NG53N1RLW5WKXQYA4WNX8WZKNE8PE","A3PLWSCPFLCEGI","3R5LWXWHR0UE010DORDQUF3E2FPGXE","","img/set1/S1.jpg","74","1","structured_incentive","83","false","structured_incentive,random,structured_normal","2,3,1,2","",""
"null","","html-keyboard-response","78","153729","0.0-7.0","3NG53N1RLW5WKXQYA4WNX8WZKNE8PE","A3PLWSCPFLCEGI","3R5LWXWHR0UE010DORDQUF3E2FPGXE","","<img src=""img/set1/S1.jpg"" width=""540"" height = ""360"">","null","","","","","","","",""
"null","","html-keyboard-response","79","153731","0.0-8.0","3NG53N1RLW5WKXQYA4WNX8WZKNE8PE","A3PLWSCPFLCEGI","3R5LWXWHR0UE010DORDQUF3E2FPGXE","","","null","","","","","","","",""
"null","","image-keyboard-response","80","156238","0.0-9.0","3NG53N1RLW5WKXQYA4WNX8WZKNE8PE","A3PLWSCPFLCEGI","3R5LWXWHR0UE010DORDQUF3E2FPGXE","","img/set1/S1.jpg","null","1","structured_incentive","83","false","structured_incentive,random,structured_normal","2,3,1,2","",""
"null","","html-keyboard-response","81","156595","0.0-10.0","3NG53N1RLW5WKXQYA4WNX8WZKNE8PE","A3PLWSCPFLCEGI","3R5LWXWHR0UE010DORDQUF3E2FPGXE","","<img src=""img/set1/S1.jpg"" width=""540"" height = ""360"">","null","","","","","","","",""
"null","","html-keyboard-response","82","156601","0.0-11.0","3NG53N1RLW5WKXQYA4WNX8WZKNE8PE","A3PLWSCPFLCEGI","3R5LWXWHR0UE010DORDQUF3E2FPGXE","","","null","","","","","","","",""
"1091.300000011921","","image-keyboard-response","83","157693","0.0-12.0","3NG53N1RLW5WKXQYA4WNX8WZKNE8PE","A3PLWSCPFLCEGI","3R5LWXWHR0UE010DORDQUF3E2FPGXE","","img/set1/S4.jpg","68","4","structured_incentive","74","false","structured_incentive,random,structured_normal","2,3,1,2","",""
"null","","html-keyboard-response","84","158051","0.0-13.0","3NG53N1RLW5WKXQYA4WNX8WZKNE8PE","A3PLWSCPFLCEGI","3R5LWXWHR0UE010DORDQUF3E2FPGXE","","<img src=""img/set1/S4.jpg"" width=""540"" height = ""360"">","null","","","","","","","",""
"null","","html-keyboard-response","85","158053","0.0-14.0","3NG53N1RLW5WKXQYA4WNX8WZKNE8PE","A3PLWSCPFLCEGI","3R5LWXWHR0UE010DORDQUF3E2FPGXE","","","null","","","","","","","",""
"796.8000000119209","","image-keyboard-response","86","158852","0.0-15.0","3NG53N1RLW5WKXQYA4WNX8WZKNE8PE","A3PLWSCPFLCEGI","3R5LWXWHR0UE010DORDQUF3E2FPGXE","","img/set1/S1.jpg","72","1","structured_incentive","83","false","structured_incentive,random,structured_normal","2,3,1,2","",""
"null","","html-keyboard-response","87","159205","0.0-16.0","3NG53N1RLW5WKXQYA4WNX8WZKNE8PE","A3PLWSCPFLCEGI","3R5LWXWHR0UE010DORDQUF3E2FPGXE","","<img src=""img/set1/S1.jpg"" width=""540"" height = ""360"">","null","","","","","","","",""
"null","","html-keyboard-response","88","159207","0.0-17.0","3NG53N1RLW5WKXQYA4WNX8WZKNE8PE","A3PLWSCPFLCEGI","3R5LWXWHR0UE010DORDQUF3E2FPGXE","","","null","","","","","","","",""
"419.2999999523163","","image-keyboard-response","89","159628","0.0-18.0","3NG53N1RLW5WKXQYA4WNX8WZKNE8PE","A3PLWSCPFLCEGI","3R5LWXWHR0UE010DORDQUF3E2FPGXE","","img/set1/S1.jpg","74","1","structured_incentive","83","false","structured_incentive,random,structured_normal","2,3,1,2","",""
"null","","html-keyboard-response","90","159984","0.0-19.0","3NG53N1RLW5WKXQYA4WNX8WZKNE8PE","A3PLWSCPFLCEGI","3R5LWXWHR0UE010DORDQUF3E2FPGXE","","<img src=""img/set1/S1.jpg"" width=""540"" height = ""360"">","null","","","","","","","",""
"null","","html-keyboard-response","91","159987","0.0-20.0","3NG53N1RLW5WKXQYA4WNX8WZKNE8PE","A3PLWSCPFLCEGI","3R5LWXWHR0UE010DORDQUF3E2FPGXE","","","null","","","","","","","",""
"832.1999999880791","","image-keyboard-response","92","160821","0.0-21.0","3NG53N1RLW5WKXQYA4WNX8WZKNE8PE","A3PLWSCPFLCEGI","3R5LWXWHR0UE010DORDQUF3E2FPGXE","","img/set1/S2.jpg","83","2","structured_incentive","68","false","structured_incentive,random,structured_normal","2,3,1,2","",""
"null","","html-keyboard-response","93","161172","0.0-22.0","3NG53N1RLW5WKXQYA4WNX8WZKNE8PE","A3PLWSCPFLCEGI","3R5LWXWHR0UE010DORDQUF3E2FPGXE","","<img src=""img/set1/S2.jpg"" width=""540"" height = ""360"">","null","","","","","","","",""
"null","","html-keyboard-response","94","161175","0.0-23.0","3NG53N1RLW5WKXQYA4WNX8WZKNE8PE","A3PLWSCPFLCEGI","3R5LWXWHR0UE010DORDQUF3E2FPGXE","","","null","","","","","","","",""
"825.3999999761581","","image-keyboard-response","95","162001","0.0-24.0","3NG53N1RLW5WKXQYA4WNX8WZKNE8PE","A3PLWSCPFLCEGI","3R5LWXWHR0UE010DORDQUF3E2FPGXE","","img/set1/S4.jpg","68","4","structured_incentive","74","false","structured_incentive,random,structured_normal","2,3,1,2","",""
"null","","html-keyboard-response","96","162358","0.0-25.0","3NG53N1RLW5WKXQYA4WNX8WZKNE8PE","A3PLWSCPFLCEGI","3R5LWXWHR0UE010DORDQUF3E2FPGXE","","<img src=""img/set1/S4.jpg"" width=""540"" height = ""360"">","null","","","","","","","",""
"null","","html-keyboard-response","97","162360","0.0-26.0","3NG53N1RLW5WKXQYA4WNX8WZKNE8PE","A3PLWSCPFLCEGI","3R5LWXWHR0UE010DORDQUF3E2FPGXE","","","null","","","","","","","",""
"1216.0999999642372","","image-keyboard-response","98","163577","0.0-27.0","3NG53N1RLW5WKXQYA4WNX8WZKNE8PE","A3PLWSCPFLCEGI","3R5LWXWHR0UE010DORDQUF3E2FPGXE","","img/set1/S3.jpg","68","3","structured_incentive","72","false","structured_incentive,random,structured_normal","2,3,1,2","",""
"null","","html-keyboard-response","99","163934","0.0-28.0","3NG53N1RLW5WKXQYA4WNX8WZKNE8PE","A3PLWSCPFLCEGI","3R5LWXWHR0UE010DORDQUF3E2FPGXE","","<img src=""img/set1/S3.jpg"" width=""540"" height = ""360"">","null","","","","","","","",""
"null","","html-keyboard-response","100","163935","0.0-29.0","3NG53N1RLW5WKXQYA4WNX8WZKNE8PE","A3PLWSCPFLCEGI","3R5LWXWHR0UE010DORDQUF3E2FPGXE","","","null","","","","","","","",""
"2497.400000035763","","image-keyboard-response","101","166434","0.0-30.0","3NG53N1RLW5WKXQYA4WNX8WZKNE8PE","A3PLWSCPFLCEGI","3R5LWXWHR0UE010DORDQUF3E2FPGXE","","img/set1/S1.jpg","68","1","structured_incentive","83","false","structured_incentive,random,structured_normal","2,3,1,2","",""
"null","","html-keyboard-response","102","166789","0.0-31.0","3NG53N1RLW5WKXQYA4WNX8WZKNE8PE","A3PLWSCPFLCEGI","3R5LWXWHR0UE010DORDQUF3E2FPGXE","","<img src=""img/set1/S1.jpg"" width=""540"" height = ""360"">","null","","","","","","","",""
"null","","html-keyboard-response","103","166791","0.0-32.0","3NG53N1RLW5WKXQYA4WNX8WZKNE8PE","A3PLWSCPFLCEGI","3R5LWXWHR0UE010DORDQUF3E2FPGXE","","","null","","","","","","","",""
"1532.1000000238419","","image-keyboard-response","104","168324","0.0-33.0","3NG53N1RLW5WKXQYA4WNX8WZKNE8PE","A3PLWSCPFLCEGI","3R5LWXWHR0UE010DORDQUF3E2FPGXE","","img/set1/S4.jpg","83","4","structured_incentive","74","false","structured_incentive,random,structured_normal","2,3,1,2","",""
"null","","html-keyboard-response","105","168679","0.0-34.0","3NG53N1RLW5WKXQYA4WNX8WZKNE8PE","A3PLWSCPFLCEGI","3R5LWXWHR0UE010DORDQUF3E2FPGXE","","<img src=""img/set1/S4.jpg"" width=""540"" height = ""360"">","null","","","","","","","",""
"null","","html-keyboard-response","106","168681","0.0-35.0","3NG53N1RLW5WKXQYA4WNX8WZKNE8PE","A3PLWSCPFLCEGI","3R5LWXWHR0UE010DORDQUF3E2FPGXE","","","null","","","","","","","",""
"1160.2000000476837","","image-keyboard-response","107","169843","0.0-36.0","3NG53N1RLW5WKXQYA4WNX8WZKNE8PE","A3PLWSCPFLCEGI","3R5LWXWHR0UE010DORDQUF3E2FPGXE","","img/set1/S4.jpg","74","4","structured_incentive","74","true","structured_incentive,random,structured_normal","2,3,1,2","",""
"null","","html-keyboard-response","108","170197","0.0-37.0","3NG53N1RLW5WKXQYA4WNX8WZKNE8PE","A3PLWSCPFLCEGI","3R5LWXWHR0UE010DORDQUF3E2FPGXE","","<img src=""img/set1/S4.jpg"" width=""540"" height = ""360"" style=""border:16px solid Violet"">","null","","","","","","","",""
"null","","html-keyboard-response","109","170199","0.0-38.0","3NG53N1RLW5WKXQYA4WNX8WZKNE8PE","A3PLWSCPFLCEGI","3R5LWXWHR0UE010DORDQUF3E2FPGXE","","","null","","","","","","","",""
"1397.300000011921","","image-keyboard-response","110","171598","0.0-39.0","3NG53N1RLW5WKXQYA4WNX8WZKNE8PE","A3PLWSCPFLCEGI","3R5LWXWHR0UE010DORDQUF3E2FPGXE","","img/set1/S2.jpg","72","2","structured_incentive","68","false","structured_incentive,random,structured_normal","2,3,1,2","",""
"null","","html-keyboard-response","111","171951","0.0-40.0","3NG53N1RLW5WKXQYA4WNX8WZKNE8PE","A3PLWSCPFLCEGI","3R5LWXWHR0UE010DORDQUF3E2FPGXE","","<img src=""img/set1/S2.jpg"" width=""540"" height = ""360"">","null","","","","","","","",""
"null","","html-keyboard-response","112","171953","0.0-41.0","3NG53N1RLW5WKXQYA4WNX8WZKNE8PE","A3PLWSCPFLCEGI","3R5LWXWHR0UE010DORDQUF3E2FPGXE","","","null","","","","","","","",""
"656","","image-keyboard-response","113","172610","0.0-42.0","3NG53N1RLW5WKXQYA4WNX8WZKNE8PE","A3PLWSCPFLCEGI","3R5LWXWHR0UE010DORDQUF3E2FPGXE","","img/set1/S3.jpg","68","3","structured_incentive","72","false","structured_incentive,random,structured_normal","2,3,1,2","",""
"null","","html-keyboard-response","114","172962","0.0-43.0","3NG53N1RLW5WKXQYA4WNX8WZKNE8PE","A3PLWSCPFLCEGI","3R5LWXWHR0UE010DORDQUF3E2FPGXE","","<img src=""img/set1/S3.jpg"" width=""540"" height = ""360"">","null","","","","","","","",""
"null","","html-keyboard-response","115","172964","0.0-44.0","3NG53N1RLW5WKXQYA4WNX8WZKNE8PE","A3PLWSCPFLCEGI","3R5LWXWHR0UE010DORDQUF3E2FPGXE","","","null","","","","","","","",""
"1006.3999999761581","","image-keyboard-response","116","173972","0.0-45.0","3NG53N1RLW5WKXQYA4WNX8WZKNE8PE","A3PLWSCPFLCEGI","3R5LWXWHR0UE010DORDQUF3E2FPGXE","","img/set1/S4.jpg","74","4","structured_incentive","74","true","structured_incentive,random,structured_normal","2,3,1,2","",""
"null","","html-keyboard-response","117","174327","0.0-46.0","3NG53N1RLW5WKXQYA4WNX8WZKNE8PE","A3PLWSCPFLCEGI","3R5LWXWHR0UE010DORDQUF3E2FPGXE","","<img src=""img/set1/S4.jpg"" width=""540"" height = ""360"" style=""border:16px solid Violet"">","null","","","","","","","",""
"null","","html-keyboard-response","118","174328","0.0-47.0","3NG53N1RLW5WKXQYA4WNX8WZKNE8PE","A3PLWSCPFLCEGI","3R5LWXWHR0UE010DORDQUF3E2FPGXE","","","null","","","","","","","",""
"1497.800000011921","","image-keyboard-response","119","175828","0.0-48.0","3NG53N1RLW5WKXQYA4WNX8WZKNE8PE","A3PLWSCPFLCEGI","3R5LWXWHR0UE010DORDQUF3E2FPGXE","","img/set1/S1.jpg","72","1","structured_incentive","83","false","structured_incentive,random,structured_normal","2,3,1,2","",""
"null","","html-keyboard-response","120","176184","0.0-49.0","3NG53N1RLW5WKXQYA4WNX8WZKNE8PE","A3PLWSCPFLCEGI","3R5LWXWHR0UE010DORDQUF3E2FPGXE","","<img src=""img/set1/S1.jpg"" width=""540"" height = ""360"">","null","","","","","","","",""
"null","","html-keyboard-response","121","176186","0.0-50.0","3NG53N1RLW5WKXQYA4WNX8WZKNE8PE","A3PLWSCPFLCEGI","3R5LWXWHR0UE010DORDQUF3E2FPGXE","","","null","","","","","","","",""
"889.5999999642372","","image-keyboard-response","122","177077","0.0-51.0","3NG53N1RLW5WKXQYA4WNX8WZKNE8PE","A3PLWSCPFLCEGI","3R5LWXWHR0UE010DORDQUF3E2FPGXE","","img/set1/S1.jpg","74","1","structured_incentive","83","false","structured_incentive,random,structured_normal","2,3,1,2","",""
"null","","html-keyboard-response","123","177429","0.0-52.0","3NG53N1RLW5WKXQYA4WNX8WZKNE8PE","A3PLWSCPFLCEGI","3R5LWXWHR0UE010DORDQUF3E2FPGXE","","<img src=""img/set1/S1.jpg"" width=""540"" height = ""360"">","null","","","","","","","",""
"null","","html-keyboard-response","124","177431","0.0-53.0","3NG53N1RLW5WKXQYA4WNX8WZKNE8PE","A3PLWSCPFLCEGI","3R5LWXWHR0UE010DORDQUF3E2FPGXE","","","null","","","","","","","",""
"600.8000000119209","","image-keyboard-response","125","178033","0.0-54.0","3NG53N1RLW5WKXQYA4WNX8WZKNE8PE","A3PLWSCPFLCEGI","3R5LWXWHR0UE010DORDQUF3E2FPGXE","","img/set1/S1.jpg","83","1","structured_incentive","83","true","structured_incentive,random,structured_normal","2,3,1,2","",""
"null","","html-keyboard-response","126","178388","0.0-55.0","3NG53N1RLW5WKXQYA4WNX8WZKNE8PE","A3PLWSCPFLCEGI","3R5LWXWHR0UE010DORDQUF3E2FPGXE","","<img src=""img/set1/S1.jpg"" width=""540"" height = ""360"" style=""border:16px solid orange"">","null","","","","","","","",""
"null","","html-keyboard-response","127","178390","0.0-56.0","3NG53N1RLW5WKXQYA4WNX8WZKNE8PE","A3PLWSCPFLCEGI","3R5LWXWHR0UE010DORDQUF3E2FPGXE","","","null","","","","","","","",""
"1891.199999988079","","image-keyboard-response","128","180283","0.0-57.0","3NG53N1RLW5WKXQYA4WNX8WZKNE8PE","A3PLWSCPFLCEGI","3R5LWXWHR0UE010DORDQUF3E2FPGXE","","img/set1/S2.jpg","68","2","structured_incentive","68","true","structured_incentive,random,structured_normal","2,3,1,2","",""
"null","","html-keyboard-response","129","180637","0.0-58.0","3NG53N1RLW5WKXQYA4WNX8WZKNE8PE","A3PLWSCPFLCEGI","3R5LWXWHR0UE010DORDQUF3E2FPGXE","","<img src=""img/set1/S2.jpg"" width=""540"" height = ""360"" style=""border:16px solid orange"">","null","","","","","","","",""
"null","","html-keyboard-response","130","180639","0.0-59.0","3NG53N1RLW5WKXQYA4WNX8WZKNE8PE","A3PLWSCPFLCEGI","3R5LWXWHR0UE010DORDQUF3E2FPGXE","","","null","","","","","","","",""
"2005.5","","image-keyboard-response","131","182645","0.0-60.0","3NG53N1RLW5WKXQYA4WNX8WZKNE8PE","A3PLWSCPFLCEGI","3R5LWXWHR0UE010DORDQUF3E2FPGXE","","img/set1/S3.jpg","74","3","structured_incentive","72","false","structured_incentive,random,structured_normal","2,3,1,2","",""
"null","","html-keyboard-response","132","182997","0.0-61.0","3NG53N1RLW5WKXQYA4WNX8WZKNE8PE","A3PLWSCPFLCEGI","3R5LWXWHR0UE010DORDQUF3E2FPGXE","","<img src=""img/set1/S3.jpg"" width=""540"" height = ""360"">","null","","","","","","","",""
"null","","html-keyboard-response","133","182999","0.0-62.0","3NG53N1RLW5WKXQYA4WNX8WZKNE8PE","A3PLWSCPFLCEGI","3R5LWXWHR0UE010DORDQUF3E2FPGXE","","","null","","","","","","","",""
"1951.800000011921","","image-keyboard-response","134","184952","0.0-63.0","3NG53N1RLW5WKXQYA4WNX8WZKNE8PE","A3PLWSCPFLCEGI","3R5LWXWHR0UE010DORDQUF3E2FPGXE","","img/set1/S1.jpg","68","1","structured_incentive","83","false","structured_incentive,random,structured_normal","2,3,1,2","",""
"null","","html-keyboard-response","135","185309","0.0-64.0","3NG53N1RLW5WKXQYA4WNX8WZKNE8PE","A3PLWSCPFLCEGI","3R5LWXWHR0UE010DORDQUF3E2FPGXE","","<img src=""img/set1/S1.jpg"" width=""540"" height = ""360"">","null","","","","","","","",""
"null","","html-keyboard-response","136","185311","0.0-65.0","3NG53N1RLW5WKXQYA4WNX8WZKNE8PE","A3PLWSCPFLCEGI","3R5LWXWHR0UE010DORDQUF3E2FPGXE","","","null","","","","","","","",""
"1192","","image-keyboard-response","137","186504","0.0-66.0","3NG53N1RLW5WKXQYA4WNX8WZKNE8PE","A3PLWSCPFLCEGI","3R5LWXWHR0UE010DORDQUF3E2FPGXE","","img/set1/S2.jpg","83","2","structured_incentive","68","false","structured_incentive,random,structured_normal","2,3,1,2","",""
"null","","html-keyboard-response","138","186859","0.0-67.0","3NG53N1RLW5WKXQYA4WNX8WZKNE8PE","A3PLWSCPFLCEGI","3R5LWXWHR0UE010DORDQUF3E2FPGXE","","<img src=""img/set1/S2.jpg"" width=""540"" height = ""360"">","null","","","","","","","",""
"null","","html-keyboard-response","139","186861","0.0-68.0","3NG53N1RLW5WKXQYA4WNX8WZKNE8PE","A3PLWSCPFLCEGI","3R5LWXWHR0UE010DORDQUF3E2FPGXE","","","null","","","","","","","",""
"890.7999999523163","","image-keyboard-response","140","187753","0.0-69.0","3NG53N1RLW5WKXQYA4WNX8WZKNE8PE","A3PLWSCPFLCEGI","3R5LWXWHR0UE010DORDQUF3E2FPGXE","","img/set1/S3.jpg","72","3","structured_incentive","72","true","structured_incentive,random,structured_normal","2,3,1,2","",""
"null","","html-keyboard-response","141","188107","0.0-70.0","3NG53N1RLW5WKXQYA4WNX8WZKNE8PE","A3PLWSCPFLCEGI","3R5LWXWHR0UE010DORDQUF3E2FPGXE","","<img src=""img/set1/S3.jpg"" width=""540"" height = ""360"" style=""border:16px solid orange"">","null","","","","","","","",""
"null","","html-keyboard-response","142","188109","0.0-71.0","3NG53N1RLW5WKXQYA4WNX8WZKNE8PE","A3PLWSCPFLCEGI","3R5LWXWHR0UE010DORDQUF3E2FPGXE","","","null","","","","","","","",""
"1431.3999999761581","","image-keyboard-response","143","189542","0.0-72.0","3NG53N1RLW5WKXQYA4WNX8WZKNE8PE","A3PLWSCPFLCEGI","3R5LWXWHR0UE010DORDQUF3E2FPGXE","","img/set1/S2.jpg","68","2","structured_incentive","68","true","structured_incentive,random,structured_normal","2,3,1,2","",""
"null","","html-keyboard-response","144","189894","0.0-73.0","3NG53N1RLW5WKXQYA4WNX8WZKNE8PE","A3PLWSCPFLCEGI","3R5LWXWHR0UE010DORDQUF3E2FPGXE","","<img src=""img/set1/S2.jpg"" width=""540"" height = ""360"" style=""border:16px solid orange"">","null","","","","","","","",""
"null","","html-keyboard-response","145","189896","0.0-74.0","3NG53N1RLW5WKXQYA4WNX8WZKNE8PE","A3PLWSCPFLCEGI","3R5LWXWHR0UE010DORDQUF3E2FPGXE","","","null","","","","","","","",""
"1039.5999999642372","","image-keyboard-response","146","190936","0.0-75.0","3NG53N1RLW5WKXQYA4WNX8WZKNE8PE","A3PLWSCPFLCEGI","3R5LWXWHR0UE010DORDQUF3E2FPGXE","","img/set1/S3.jpg","72","3","structured_incentive","72","true","structured_incentive,random,structured_normal","2,3,1,2","",""
"null","","html-keyboard-response","147","191293","0.0-76.0","3NG53N1RLW5WKXQYA4WNX8WZKNE8PE","A3PLWSCPFLCEGI","3R5LWXWHR0UE010DORDQUF3E2FPGXE","","<img src=""img/set1/S3.jpg"" width=""540"" height = ""360"" style=""border:16px solid orange"">","null","","","","","","","",""
"null","","html-keyboard-response","148","191295","0.0-77.0","3NG53N1RLW5WKXQYA4WNX8WZKNE8PE","A3PLWSCPFLCEGI","3R5LWXWHR0UE010DORDQUF3E2FPGXE","","","null","","","","","","","",""
"663.5","","image-keyboard-response","149","191960","0.0-78.0","3NG53N1RLW5WKXQYA4WNX8WZKNE8PE","A3PLWSCPFLCEGI","3R5LWXWHR0UE010DORDQUF3E2FPGXE","","img/set1/S4.jpg","74","4","structured_incentive","74","true","structured_incentive,random,structured_normal","2,3,1,2","",""
"null","","html-keyboard-response","150","192315","0.0-79.0","3NG53N1RLW5WKXQYA4WNX8WZKNE8PE","A3PLWSCPFLCEGI","3R5LWXWHR0UE010DORDQUF3E2FPGXE","","<img src=""img/set1/S4.jpg"" width=""540"" height = ""360"" style=""border:16px solid Violet"">","null","","","","","","","",""
"null","","html-keyboard-response","151","192317","0.0-80.0","3NG53N1RLW5WKXQYA4WNX8WZKNE8PE","A3PLWSCPFLCEGI","3R5LWXWHR0UE010DORDQUF3E2FPGXE","","","null","","","","","","","",""
"947.3999999761581","","image-keyboard-response","152","193265","0.0-81.0","3NG53N1RLW5WKXQYA4WNX8WZKNE8PE","A3PLWSCPFLCEGI","3R5LWXWHR0UE010DORDQUF3E2FPGXE","","img/set1/S1.jpg","83","1","structured_incentive","83","true","structured_incentive,random,structured_normal","2,3,1,2","",""
"null","","html-keyboard-response","153","193619","0.0-82.0","3NG53N1RLW5WKXQYA4WNX8WZKNE8PE","A3PLWSCPFLCEGI","3R5LWXWHR0UE010DORDQUF3E2FPGXE","","<img src=""img/set1/S1.jpg"" width=""540"" height = ""360"" style=""border:16px solid orange"">","null","","","","","","","",""
"null","","html-keyboard-response","154","193621","0.0-83.0","3NG53N1RLW5WKXQYA4WNX8WZKNE8PE","A3PLWSCPFLCEGI","3R5LWXWHR0UE010DORDQUF3E2FPGXE","","","null","","","","","","","",""
"1645.5","","image-keyboard-response","155","195268","0.0-84.0","3NG53N1RLW5WKXQYA4WNX8WZKNE8PE","A3PLWSCPFLCEGI","3R5LWXWHR0UE010DORDQUF3E2FPGXE","","img/set1/S2.jpg","68","2","structured_incentive","68","true","structured_incentive,random,structured_normal","2,3,1,2","",""
"null","","html-keyboard-response","156","195620","0.0-85.0","3NG53N1RLW5WKXQYA4WNX8WZKNE8PE","A3PLWSCPFLCEGI","3R5LWXWHR0UE010DORDQUF3E2FPGXE","","<img src=""img/set1/S2.jpg"" width=""540"" height = ""360"" style=""border:16px solid orange"">","null","","","","","","","",""
"null","","html-keyboard-response","157","195622","0.0-86.0","3NG53N1RLW5WKXQYA4WNX8WZKNE8PE","A3PLWSCPFLCEGI","3R5LWXWHR0UE010DORDQUF3E2FPGXE","","","null","","","","","","","",""
"859.1999999880791","","image-keyboard-response","158","196483","0.0-87.0","3NG53N1RLW5WKXQYA4WNX8WZKNE8PE","A3PLWSCPFLCEGI","3R5LWXWHR0UE010DORDQUF3E2FPGXE","","img/set1/S3.jpg","72","3","structured_incentive","72","true","structured_incentive,random,structured_normal","2,3,1,2","",""
"null","","html-keyboard-response","159","196838","0.0-88.0","3NG53N1RLW5WKXQYA4WNX8WZKNE8PE","A3PLWSCPFLCEGI","3R5LWXWHR0UE010DORDQUF3E2FPGXE","","<img src=""img/set1/S3.jpg"" width=""540"" height = ""360"" style=""border:16px solid orange"">","null","","","","","","","",""
"null","","html-keyboard-response","160","196840","0.0-89.0","3NG53N1RLW5WKXQYA4WNX8WZKNE8PE","A3PLWSCPFLCEGI","3R5LWXWHR0UE010DORDQUF3E2FPGXE","","","null","","","","","","","",""
"563.6999999880791","","image-keyboard-response","161","197405","0.0-90.0","3NG53N1RLW5WKXQYA4WNX8WZKNE8PE","A3PLWSCPFLCEGI","3R5LWXWHR0UE010DORDQUF3E2FPGXE","","img/set1/S4.jpg","74","4","structured_incentive","74","true","structured_incentive,random,structured_normal","2,3,1,2","",""
"null","","html-keyboard-response","162","197759","0.0-91.0","3NG53N1RLW5WKXQYA4WNX8WZKNE8PE","A3PLWSCPFLCEGI","3R5LWXWHR0UE010DORDQUF3E2FPGXE","","<img src=""img/set1/S4.jpg"" width=""540"" height = ""360"" style=""border:16px solid Violet"">","null","","","","","","","",""
"null","","html-keyboard-response","163","197761","0.0-92.0","3NG53N1RLW5WKXQYA4WNX8WZKNE8PE","A3PLWSCPFLCEGI","3R5LWXWHR0UE010DORDQUF3E2FPGXE","","","null","","","","","","","",""
"600","","image-keyboard-response","164","198362","0.0-93.0","3NG53N1RLW5WKXQYA4WNX8WZKNE8PE","A3PLWSCPFLCEGI","3R5LWXWHR0UE010DORDQUF3E2FPGXE","","img/set1/S4.jpg","74","4","structured_incentive","74","true","structured_incentive,random,structured_normal","2,3,1,2","",""
"null","","html-keyboard-response","165","198715","0.0-94.0","3NG53N1RLW5WKXQYA4WNX8WZKNE8PE","A3PLWSCPFLCEGI","3R5LWXWHR0UE010DORDQUF3E2FPGXE","","<img src=""img/set1/S4.jpg"" width=""540"" height = ""360"" style=""border:16px solid Violet"">","null","","","","","","","",""
"null","","html-keyboard-response","166","198717","0.0-95.0","3NG53N1RLW5WKXQYA4WNX8WZKNE8PE","A3PLWSCPFLCEGI","3R5LWXWHR0UE010DORDQUF3E2FPGXE","","","null","","","","","","","",""
"1196.1000000238419","","image-keyboard-response","167","199914","0.0-96.0","3NG53N1RLW5WKXQYA4WNX8WZKNE8PE","A3PLWSCPFLCEGI","3R5LWXWHR0UE010DORDQUF3E2FPGXE","","img/set1/S2.jpg","68","2","structured_incentive","68","true","structured_incentive,random,structured_normal","2,3,1,2","",""
"null","","html-keyboard-response","168","200270","0.0-97.0","3NG53N1RLW5WKXQYA4WNX8WZKNE8PE","A3PLWSCPFLCEGI","3R5LWXWHR0UE010DORDQUF3E2FPGXE","","<img src=""img/set1/S2.jpg"" width=""540"" height = ""360"" style=""border:16px solid orange"">","null","","","","","","","",""
"null","","html-keyboard-response","169","200272","0.0-98.0","3NG53N1RLW5WKXQYA4WNX8WZKNE8PE","A3PLWSCPFLCEGI","3R5LWXWHR0UE010DORDQUF3E2FPGXE","","","null","","","","","","","",""
"957.5","","image-keyboard-response","170","201230","0.0-99.0","3NG53N1RLW5WKXQYA4WNX8WZKNE8PE","A3PLWSCPFLCEGI","3R5LWXWHR0UE010DORDQUF3E2FPGXE","","img/set1/S3.jpg","72","3","structured_incentive","72","true","structured_incentive,random,structured_normal","2,3,1,2","",""
"null","","html-keyboard-response","171","201583","0.0-100.0","3NG53N1RLW5WKXQYA4WNX8WZKNE8PE","A3PLWSCPFLCEGI","3R5LWXWHR0UE010DORDQUF3E2FPGXE","","<img src=""img/set1/S3.jpg"" width=""540"" height = ""360"" style=""border:16px solid orange"">","null","","","","","","","",""
"null","","html-keyboard-response","172","201585","0.0-101.0","3NG53N1RLW5WKXQYA4WNX8WZKNE8PE","A3PLWSCPFLCEGI","3R5LWXWHR0UE010DORDQUF3E2FPGXE","","","null","","","","","","","",""
"1421.6000000238419","","image-keyboard-response","173","203007","0.0-102.0","3NG53N1RLW5WKXQYA4WNX8WZKNE8PE","A3PLWSCPFLCEGI","3R5LWXWHR0UE010DORDQUF3E2FPGXE","","img/set1/S2.jpg","68","2","structured_incentive","68","true","structured_incentive,random,structured_normal","2,3,1,2","",""
"null","","html-keyboard-response","174","203360","0.0-103.0","3NG53N1RLW5WKXQYA4WNX8WZKNE8PE","A3PLWSCPFLCEGI","3R5LWXWHR0UE010DORDQUF3E2FPGXE","","<img src=""img/set1/S2.jpg"" width=""540"" height = ""360"" style=""border:16px solid orange"">","null","","","","","","","",""
"null","","html-keyboard-response","175","203362","0.0-104.0","3NG53N1RLW5WKXQYA4WNX8WZKNE8PE","A3PLWSCPFLCEGI","3R5LWXWHR0UE010DORDQUF3E2FPGXE","","","null","","","","","","","",""
"1084","","image-keyboard-response","176","204448","0.0-105.0","3NG53N1RLW5WKXQYA4WNX8WZKNE8PE","A3PLWSCPFLCEGI","3R5LWXWHR0UE010DORDQUF3E2FPGXE","","img/set1/S3.jpg","72","3","structured_incentive","72","true","structured_incentive,random,structured_normal","2,3,1,2","",""
"null","","html-keyboard-response","177","204800","0.0-106.0","3NG53N1RLW5WKXQYA4WNX8WZKNE8PE","A3PLWSCPFLCEGI","3R5LWXWHR0UE010DORDQUF3E2FPGXE","","<img src=""img/set1/S3.jpg"" width=""540"" height = ""360"" style=""border:16px solid orange"">","null","","","","","","","",""
"null","","html-keyboard-response","178","204802","0.0-107.0","3NG53N1RLW5WKXQYA4WNX8WZKNE8PE","A3PLWSCPFLCEGI","3R5LWXWHR0UE010DORDQUF3E2FPGXE","","","null","","","","","","","",""
"803.4000000357628","","image-keyboard-response","179","205607","0.0-108.0","3NG53N1RLW5WKXQYA4WNX8WZKNE8PE","A3PLWSCPFLCEGI","3R5LWXWHR0UE010DORDQUF3E2FPGXE","","img/set1/S4.jpg","74","4","structured_incentive","74","true","structured_incentive,random,structured_normal","2,3,1,2","",""
"null","","html-keyboard-response","180","205963","0.0-109.0","3NG53N1RLW5WKXQYA4WNX8WZKNE8PE","A3PLWSCPFLCEGI","3R5LWXWHR0UE010DORDQUF3E2FPGXE","","<img src=""img/set1/S4.jpg"" width=""540"" height = ""360"" style=""border:16px solid Violet"">","null","","","","","","","",""
"null","","html-keyboard-response","181","205965","0.0-110.0","3NG53N1RLW5WKXQYA4WNX8WZKNE8PE","A3PLWSCPFLCEGI","3R5LWXWHR0UE010DORDQUF3E2FPGXE","","","null","","","","","","","",""
"663.6000000238419","","image-keyboard-response","182","206630","0.0-111.0","3NG53N1RLW5WKXQYA4WNX8WZKNE8PE","A3PLWSCPFLCEGI","3R5LWXWHR0UE010DORDQUF3E2FPGXE","","img/set1/S1.jpg","83","1","structured_incentive","83","true","structured_incentive,random,structured_normal","2,3,1,2","",""
"null","","html-keyboard-response","183","206987","0.0-112.0","3NG53N1RLW5WKXQYA4WNX8WZKNE8PE","A3PLWSCPFLCEGI","3R5LWXWHR0UE010DORDQUF3E2FPGXE","","<img src=""img/set1/S1.jpg"" width=""540"" height = ""360"" style=""border:16px solid orange"">","null","","","","","","","",""
"null","","html-keyboard-response","184","206989","0.0-113.0","3NG53N1RLW5WKXQYA4WNX8WZKNE8PE","A3PLWSCPFLCEGI","3R5LWXWHR0UE010DORDQUF3E2FPGXE","","","null","","","","","","","",""
"843.8000000119209","","image-keyboard-response","185","207834","0.0-114.0","3NG53N1RLW5WKXQYA4WNX8WZKNE8PE","A3PLWSCPFLCEGI","3R5LWXWHR0UE010DORDQUF3E2FPGXE","","img/set1/S4.jpg","74","4","structured_incentive","74","true","structured_incentive,random,structured_normal","2,3,1,2","",""
"null","","html-keyboard-response","186","208190","0.0-115.0","3NG53N1RLW5WKXQYA4WNX8WZKNE8PE","A3PLWSCPFLCEGI","3R5LWXWHR0UE010DORDQUF3E2FPGXE","","<img src=""img/set1/S4.jpg"" width=""540"" height = ""360"" style=""border:16px solid Violet"">","null","","","","","","","",""
"null","","html-keyboard-response","187","208192","0.0-116.0","3NG53N1RLW5WKXQYA4WNX8WZKNE8PE","A3PLWSCPFLCEGI","3R5LWXWHR0UE010DORDQUF3E2FPGXE","","","null","","","","","","","",""
"1170.8999999761581","","image-keyboard-response","188","209365","0.0-117.0","3NG53N1RLW5WKXQYA4WNX8WZKNE8PE","A3PLWSCPFLCEGI","3R5LWXWHR0UE010DORDQUF3E2FPGXE","","img/set1/S1.jpg","83","1","structured_incentive","83","true","structured_incentive,random,structured_normal","2,3,1,2","",""
"null","","html-keyboard-response","189","209719","0.0-118.0","3NG53N1RLW5WKXQYA4WNX8WZKNE8PE","A3PLWSCPFLCEGI","3R5LWXWHR0UE010DORDQUF3E2FPGXE","","<img src=""img/set1/S1.jpg"" width=""540"" height = ""360"" style=""border:16px solid orange"">","null","","","","","","","",""
"null","","html-keyboard-response","190","209721","0.0-119.0","3NG53N1RLW5WKXQYA4WNX8WZKNE8PE","A3PLWSCPFLCEGI","3R5LWXWHR0UE010DORDQUF3E2FPGXE","","","null","","","","","","","",""
"1475.1000000238419","","image-keyboard-response","191","211198","0.0-120.0","3NG53N1RLW5WKXQYA4WNX8WZKNE8PE","A3PLWSCPFLCEGI","3R5LWXWHR0UE010DORDQUF3E2FPGXE","","img/set1/S2.jpg","68","2","structured_incentive","68","true","structured_incentive,random,structured_normal","2,3,1,2","",""
"null","","html-keyboard-response","192","211550","0.0-121.0","3NG53N1RLW5WKXQYA4WNX8WZKNE8PE","A3PLWSCPFLCEGI","3R5LWXWHR0UE010DORDQUF3E2FPGXE","","<img src=""img/set1/S2.jpg"" width=""540"" height = ""360"" style=""border:16px solid orange"">","null","","","","","","","",""
"null","","html-keyboard-response","193","211553","0.0-122.0","3NG53N1RLW5WKXQYA4WNX8WZKNE8PE","A3PLWSCPFLCEGI","3R5LWXWHR0UE010DORDQUF3E2FPGXE","","","null","","","","","","","",""
"780.0999999642372","","image-keyboard-response","194","212334","0.0-123.0","3NG53N1RLW5WKXQYA4WNX8WZKNE8PE","A3PLWSCPFLCEGI","3R5LWXWHR0UE010DORDQUF3E2FPGXE","","img/set1/S3.jpg","72","3","structured_incentive","72","true","structured_incentive,random,structured_normal","2,3,1,2","",""
"null","","html-keyboard-response","195","212690","0.0-124.0","3NG53N1RLW5WKXQYA4WNX8WZKNE8PE","A3PLWSCPFLCEGI","3R5LWXWHR0UE010DORDQUF3E2FPGXE","","<img src=""img/set1/S3.jpg"" width=""540"" height = ""360"" style=""border:16px solid orange"">","null","","","","","","","",""
"null","","html-keyboard-response","196","212691","0.0-125.0","3NG53N1RLW5WKXQYA4WNX8WZKNE8PE","A3PLWSCPFLCEGI","3R5LWXWHR0UE010DORDQUF3E2FPGXE","","","null","","","","","","","",""
"1047.9000000357628","","image-keyboard-response","197","213741","0.0-126.0","3NG53N1RLW5WKXQYA4WNX8WZKNE8PE","A3PLWSCPFLCEGI","3R5LWXWHR0UE010DORDQUF3E2FPGXE","","img/set1/S2.jpg","68","2","structured_incentive","68","true","structured_incentive,random,structured_normal","2,3,1,2","",""
"null","","html-keyboard-response","198","214093","0.0-127.0","3NG53N1RLW5WKXQYA4WNX8WZKNE8PE","A3PLWSCPFLCEGI","3R5LWXWHR0UE010DORDQUF3E2FPGXE","","<img src=""img/set1/S2.jpg"" width=""540"" height = ""360"" style=""border:16px solid orange"">","null","","","","","","","",""
"null","","html-keyboard-response","199","214095","0.0-128.0","3NG53N1RLW5WKXQYA4WNX8WZKNE8PE","A3PLWSCPFLCEGI","3R5LWXWHR0UE010DORDQUF3E2FPGXE","","","null","","","","","","","",""
"768.8000000119209","","image-keyboard-response","200","214865","0.0-129.0","3NG53N1RLW5WKXQYA4WNX8WZKNE8PE","A3PLWSCPFLCEGI","3R5LWXWHR0UE010DORDQUF3E2FPGXE","","img/set1/S3.jpg","72","3","structured_incentive","72","true","structured_incentive,random,structured_normal","2,3,1,2","",""
"null","","html-keyboard-response","201","215221","0.0-130.0","3NG53N1RLW5WKXQYA4WNX8WZKNE8PE","A3PLWSCPFLCEGI","3R5LWXWHR0UE010DORDQUF3E2FPGXE","","<img src=""img/set1/S3.jpg"" width=""540"" height = ""360"" style=""border:16px solid orange"">","null","","","","","","","",""
"null","","html-keyboard-response","202","215223","0.0-131.0","3NG53N1RLW5WKXQYA4WNX8WZKNE8PE","A3PLWSCPFLCEGI","3R5LWXWHR0UE010DORDQUF3E2FPGXE","","","null","","","","","","","",""
"506.5","","image-keyboard-response","203","215731","0.0-132.0","3NG53N1RLW5WKXQYA4WNX8WZKNE8PE","A3PLWSCPFLCEGI","3R5LWXWHR0UE010DORDQUF3E2FPGXE","","img/set1/S4.jpg","74","4","structured_incentive","74","true","structured_incentive,random,structured_normal","2,3,1,2","",""
"null","","html-keyboard-response","204","216088","0.0-133.0","3NG53N1RLW5WKXQYA4WNX8WZKNE8PE","A3PLWSCPFLCEGI","3R5LWXWHR0UE010DORDQUF3E2FPGXE","","<img src=""img/set1/S4.jpg"" width=""540"" height = ""360"" style=""border:16px solid Violet"">","null","","","","","","","",""
"null","","html-keyboard-response","205","216090","0.0-134.0","3NG53N1RLW5WKXQYA4WNX8WZKNE8PE","A3PLWSCPFLCEGI","3R5LWXWHR0UE010DORDQUF3E2FPGXE","","","null","","","","","","","",""
"731.5","","image-keyboard-response","206","216823","0.0-135.0","3NG53N1RLW5WKXQYA4WNX8WZKNE8PE","A3PLWSCPFLCEGI","3R5LWXWHR0UE010DORDQUF3E2FPGXE","","img/set1/S2.jpg","83","2","structured_incentive","68","false","structured_incentive,random,structured_normal","2,3,1,2","",""
"null","","html-keyboard-response","207","217179","0.0-136.0","3NG53N1RLW5WKXQYA4WNX8WZKNE8PE","A3PLWSCPFLCEGI","3R5LWXWHR0UE010DORDQUF3E2FPGXE","","<img src=""img/set1/S2.jpg"" width=""540"" height = ""360"">","null","","","","","","","",""
"null","","html-keyboard-response","208","217181","0.0-137.0","3NG53N1RLW5WKXQYA4WNX8WZKNE8PE","A3PLWSCPFLCEGI","3R5LWXWHR0UE010DORDQUF3E2FPGXE","","","null","","","","","","","",""
"945.3000000119209","","image-keyboard-response","209","218128","0.0-138.0","3NG53N1RLW5WKXQYA4WNX8WZKNE8PE","A3PLWSCPFLCEGI","3R5LWXWHR0UE010DORDQUF3E2FPGXE","","img/set1/S3.jpg","72","3","structured_incentive","72","true","structured_incentive,random,structured_normal","2,3,1,2","",""
"null","","html-keyboard-response","210","218481","0.0-139.0","3NG53N1RLW5WKXQYA4WNX8WZKNE8PE","A3PLWSCPFLCEGI","3R5LWXWHR0UE010DORDQUF3E2FPGXE","","<img src=""img/set1/S3.jpg"" width=""540"" height = ""360"" style=""border:16px solid orange"">","null","","","","","","","",""
"null","","html-keyboard-response","211","218483","0.0-140.0","3NG53N1RLW5WKXQYA4WNX8WZKNE8PE","A3PLWSCPFLCEGI","3R5LWXWHR0UE010DORDQUF3E2FPGXE","","","null","","","","","","","",""
"791.3999999761581","","image-keyboard-response","212","219275","0.0-141.0","3NG53N1RLW5WKXQYA4WNX8WZKNE8PE","A3PLWSCPFLCEGI","3R5LWXWHR0UE010DORDQUF3E2FPGXE","","img/set1/S1.jpg","83","1","structured_incentive","83","true","structured_incentive,random,structured_normal","2,3,1,2","",""
"null","","html-keyboard-response","213","219632","0.0-142.0","3NG53N1RLW5WKXQYA4WNX8WZKNE8PE","A3PLWSCPFLCEGI","3R5LWXWHR0UE010DORDQUF3E2FPGXE","","<img src=""img/set1/S1.jpg"" width=""540"" height = ""360"" style=""border:16px solid orange"">","null","","","","","","","",""
"null","","html-keyboard-response","214","219634","0.0-143.0","3NG53N1RLW5WKXQYA4WNX8WZKNE8PE","A3PLWSCPFLCEGI","3R5LWXWHR0UE010DORDQUF3E2FPGXE","","","null","","","","","","","",""
"821","","image-keyboard-response","215","220456","0.0-144.0","3NG53N1RLW5WKXQYA4WNX8WZKNE8PE","A3PLWSCPFLCEGI","3R5LWXWHR0UE010DORDQUF3E2FPGXE","","img/set1/S2.jpg","68","2","structured_incentive","68","true","structured_incentive,random,structured_normal","2,3,1,2","",""
"null","","html-keyboard-response","216","220813","0.0-145.0","3NG53N1RLW5WKXQYA4WNX8WZKNE8PE","A3PLWSCPFLCEGI","3R5LWXWHR0UE010DORDQUF3E2FPGXE","","<img src=""img/set1/S2.jpg"" width=""540"" height = ""360"" style=""border:16px solid orange"">","null","","","","","","","",""
"null","","html-keyboard-response","217","220815","0.0-146.0","3NG53N1RLW5WKXQYA4WNX8WZKNE8PE","A3PLWSCPFLCEGI","3R5LWXWHR0UE010DORDQUF3E2FPGXE","","","null","","","","","","","",""
"742.3000000119209","","image-keyboard-response","218","221559","0.0-147.0","3NG53N1RLW5WKXQYA4WNX8WZKNE8PE","A3PLWSCPFLCEGI","3R5LWXWHR0UE010DORDQUF3E2FPGXE","","img/set1/S3.jpg","72","3","structured_incentive","72","true","structured_incentive,random,structured_normal","2,3,1,2","",""
"null","","html-keyboard-response","219","221913","0.0-148.0","3NG53N1RLW5WKXQYA4WNX8WZKNE8PE","A3PLWSCPFLCEGI","3R5LWXWHR0UE010DORDQUF3E2FPGXE","","<img src=""img/set1/S3.jpg"" width=""540"" height = ""360"" style=""border:16px solid orange"">","null","","","","","","","",""
"null","","html-keyboard-response","220","221915","0.0-149.0","3NG53N1RLW5WKXQYA4WNX8WZKNE8PE","A3PLWSCPFLCEGI","3R5LWXWHR0UE010DORDQUF3E2FPGXE","","","null","","","","","","","",""
"599.3000000119209","","image-keyboard-response","221","222515","0.0-150.0","3NG53N1RLW5WKXQYA4WNX8WZKNE8PE","A3PLWSCPFLCEGI","3R5LWXWHR0UE010DORDQUF3E2FPGXE","","img/set1/S4.jpg","74","4","structured_incentive","74","true","structured_incentive,random,structured_normal","2,3,1,2","",""
"null","","html-keyboard-response","222","222869","0.0-151.0","3NG53N1RLW5WKXQYA4WNX8WZKNE8PE","A3PLWSCPFLCEGI","3R5LWXWHR0UE010DORDQUF3E2FPGXE","","<img src=""img/set1/S4.jpg"" width=""540"" height = ""360"" style=""border:16px solid Violet"">","null","","","","","","","",""
"null","","html-keyboard-response","223","222871","0.0-152.0","3NG53N1RLW5WKXQYA4WNX8WZKNE8PE","A3PLWSCPFLCEGI","3R5LWXWHR0UE010DORDQUF3E2FPGXE","","","null","","","","","","","",""
"813.2000000476837","","image-keyboard-response","224","223685","0.0-153.0","3NG53N1RLW5WKXQYA4WNX8WZKNE8PE","A3PLWSCPFLCEGI","3R5LWXWHR0UE010DORDQUF3E2FPGXE","","img/set1/S1.jpg","83","1","structured_incentive","83","true","structured_incentive,random,structured_normal","2,3,1,2","",""
"null","","html-keyboard-response","225","224042","0.0-154.0","3NG53N1RLW5WKXQYA4WNX8WZKNE8PE","A3PLWSCPFLCEGI","3R5LWXWHR0UE010DORDQUF3E2FPGXE","","<img src=""img/set1/S1.jpg"" width=""540"" height = ""360"" style=""border:16px solid orange"">","null","","","","","","","",""
"null","","html-keyboard-response","226","224044","0.0-155.0","3NG53N1RLW5WKXQYA4WNX8WZKNE8PE","A3PLWSCPFLCEGI","3R5LWXWHR0UE010DORDQUF3E2FPGXE","","","null","","","","","","","",""
"1047.199999988079","","image-keyboard-response","227","225093","0.0-156.0","3NG53N1RLW5WKXQYA4WNX8WZKNE8PE","A3PLWSCPFLCEGI","3R5LWXWHR0UE010DORDQUF3E2FPGXE","","img/set1/S2.jpg","68","2","structured_incentive","68","true","structured_incentive,random,structured_normal","2,3,1,2","",""
"null","","html-keyboard-response","228","225445","0.0-157.0","3NG53N1RLW5WKXQYA4WNX8WZKNE8PE","A3PLWSCPFLCEGI","3R5LWXWHR0UE010DORDQUF3E2FPGXE","","<img src=""img/set1/S2.jpg"" width=""540"" height = ""360"" style=""border:16px solid orange"">","null","","","","","","","",""
"null","","html-keyboard-response","229","225447","0.0-158.0","3NG53N1RLW5WKXQYA4WNX8WZKNE8PE","A3PLWSCPFLCEGI","3R5LWXWHR0UE010DORDQUF3E2FPGXE","","","null","","","","","","","",""
"542.8000000119209","","image-keyboard-response","230","225991","0.0-159.0","3NG53N1RLW5WKXQYA4WNX8WZKNE8PE","A3PLWSCPFLCEGI","3R5LWXWHR0UE010DORDQUF3E2FPGXE","","img/set1/S3.jpg","72","3","structured_incentive","72","true","structured_incentive,random,structured_normal","2,3,1,2","",""
"null","","html-keyboard-response","231","226346","0.0-160.0","3NG53N1RLW5WKXQYA4WNX8WZKNE8PE","A3PLWSCPFLCEGI","3R5LWXWHR0UE010DORDQUF3E2FPGXE","","<img src=""img/set1/S3.jpg"" width=""540"" height = ""360"" style=""border:16px solid orange"">","null","","","","","","","",""
"null","","html-keyboard-response","232","226348","0.0-161.0","3NG53N1RLW5WKXQYA4WNX8WZKNE8PE","A3PLWSCPFLCEGI","3R5LWXWHR0UE010DORDQUF3E2FPGXE","","","null","","","","","","","",""
"1002.5999999642372","","image-keyboard-response","233","227352","0.0-162.0","3NG53N1RLW5WKXQYA4WNX8WZKNE8PE","A3PLWSCPFLCEGI","3R5LWXWHR0UE010DORDQUF3E2FPGXE","","img/set1/S2.jpg","68","2","structured_incentive","68","true","structured_incentive,random,structured_normal","2,3,1,2","",""
"null","","html-keyboard-response","234","227709","0.0-163.0","3NG53N1RLW5WKXQYA4WNX8WZKNE8PE","A3PLWSCPFLCEGI","3R5LWXWHR0UE010DORDQUF3E2FPGXE","","<img src=""img/set1/S2.jpg"" width=""540"" height = ""360"" style=""border:16px solid orange"">","null","","","","","","","",""
"null","","html-keyboard-response","235","227711","0.0-164.0","3NG53N1RLW5WKXQYA4WNX8WZKNE8PE","A3PLWSCPFLCEGI","3R5LWXWHR0UE010DORDQUF3E2FPGXE","","","null","","","","","","","",""
"855.6000000238419","","image-keyboard-response","236","228568","0.0-165.0","3NG53N1RLW5WKXQYA4WNX8WZKNE8PE","A3PLWSCPFLCEGI","3R5LWXWHR0UE010DORDQUF3E2FPGXE","","img/set1/S3.jpg","72","3","structured_incentive","72","true","structured_incentive,random,structured_normal","2,3,1,2","",""
"null","","html-keyboard-response","237","228920","0.0-166.0","3NG53N1RLW5WKXQYA4WNX8WZKNE8PE","A3PLWSCPFLCEGI","3R5LWXWHR0UE010DORDQUF3E2FPGXE","","<img src=""img/set1/S3.jpg"" width=""540"" height = ""360"" style=""border:16px solid orange"">","null","","","","","","","",""
"null","","html-keyboard-response","238","228922","0.0-167.0","3NG53N1RLW5WKXQYA4WNX8WZKNE8PE","A3PLWSCPFLCEGI","3R5LWXWHR0UE010DORDQUF3E2FPGXE","","","null","","","","","","","",""
"600","","image-keyboard-response","239","229524","0.0-168.0","3NG53N1RLW5WKXQYA4WNX8WZKNE8PE","A3PLWSCPFLCEGI","3R5LWXWHR0UE010DORDQUF3E2FPGXE","","img/set1/S3.jpg","72","3","structured_incentive","72","true","structured_incentive,random,structured_normal","2,3,1,2","",""
"null","","html-keyboard-response","240","229877","0.0-169.0","3NG53N1RLW5WKXQYA4WNX8WZKNE8PE","A3PLWSCPFLCEGI","3R5LWXWHR0UE010DORDQUF3E2FPGXE","","<img src=""img/set1/S3.jpg"" width=""540"" height = ""360"" style=""border:16px solid orange"">","null","","","","","","","",""
"null","","html-keyboard-response","241","229880","0.0-170.0","3NG53N1RLW5WKXQYA4WNX8WZKNE8PE","A3PLWSCPFLCEGI","3R5LWXWHR0UE010DORDQUF3E2FPGXE","","","null","","","","","","","",""
"689.2000000476837","","image-keyboard-response","242","230570","0.0-171.0","3NG53N1RLW5WKXQYA4WNX8WZKNE8PE","A3PLWSCPFLCEGI","3R5LWXWHR0UE010DORDQUF3E2FPGXE","","img/set1/S4.jpg","74","4","structured_incentive","74","true","structured_incentive,random,structured_normal","2,3,1,2","",""
"null","","html-keyboard-response","243","230922","0.0-172.0","3NG53N1RLW5WKXQYA4WNX8WZKNE8PE","A3PLWSCPFLCEGI","3R5LWXWHR0UE010DORDQUF3E2FPGXE","","<img src=""img/set1/S4.jpg"" width=""540"" height = ""360"" style=""border:16px solid Violet"">","null","","","","","","","",""
"null","","html-keyboard-response","244","230924","0.0-173.0","3NG53N1RLW5WKXQYA4WNX8WZKNE8PE","A3PLWSCPFLCEGI","3R5LWXWHR0UE010DORDQUF3E2FPGXE","","","null","","","","","","","",""
"667.9000000357628","","image-keyboard-response","245","231594","0.0-174.0","3NG53N1RLW5WKXQYA4WNX8WZKNE8PE","A3PLWSCPFLCEGI","3R5LWXWHR0UE010DORDQUF3E2FPGXE","","img/set1/S3.jpg","68","3","structured_incentive","72","false","structured_incentive,random,structured_normal","2,3,1,2","",""
"null","","html-keyboard-response","246","231945","0.0-175.0","3NG53N1RLW5WKXQYA4WNX8WZKNE8PE","A3PLWSCPFLCEGI","3R5LWXWHR0UE010DORDQUF3E2FPGXE","","<img src=""img/set1/S3.jpg"" width=""540"" height = ""360"">","null","","","","","","","",""
"null","","html-keyboard-response","247","231947","0.0-176.0","3NG53N1RLW5WKXQYA4WNX8WZKNE8PE","A3PLWSCPFLCEGI","3R5LWXWHR0UE010DORDQUF3E2FPGXE","","","null","","","","","","","",""
"848.6999999880791","","image-keyboard-response","248","232797","0.0-177.0","3NG53N1RLW5WKXQYA4WNX8WZKNE8PE","A3PLWSCPFLCEGI","3R5LWXWHR0UE010DORDQUF3E2FPGXE","","img/set1/S4.jpg","74","4","structured_incentive","74","true","structured_incentive,random,structured_normal","2,3,1,2","",""
"null","","html-keyboard-response","249","233151","0.0-178.0","3NG53N1RLW5WKXQYA4WNX8WZKNE8PE","A3PLWSCPFLCEGI","3R5LWXWHR0UE010DORDQUF3E2FPGXE","","<img src=""img/set1/S4.jpg"" width=""540"" height = ""360"" style=""border:16px solid Violet"">","null","","","","","","","",""
"null","","html-keyboard-response","250","233153","0.0-179.0","3NG53N1RLW5WKXQYA4WNX8WZKNE8PE","A3PLWSCPFLCEGI","3R5LWXWHR0UE010DORDQUF3E2FPGXE","","","null","","","","","","","",""
"824.6999999880791","","image-keyboard-response","251","233979","0.0-180.0","3NG53N1RLW5WKXQYA4WNX8WZKNE8PE","A3PLWSCPFLCEGI","3R5LWXWHR0UE010DORDQUF3E2FPGXE","","img/set1/S2.jpg","83","2","structured_incentive","68","false","structured_incentive,random,structured_normal","2,3,1,2","",""
"null","","html-keyboard-response","252","234336","0.0-181.0","3NG53N1RLW5WKXQYA4WNX8WZKNE8PE","A3PLWSCPFLCEGI","3R5LWXWHR0UE010DORDQUF3E2FPGXE","","<img src=""img/set1/S2.jpg"" width=""540"" height = ""360"">","null","","","","","","","",""
"null","","html-keyboard-response","253","234338","0.0-182.0","3NG53N1RLW5WKXQYA4WNX8WZKNE8PE","A3PLWSCPFLCEGI","3R5LWXWHR0UE010DORDQUF3E2FPGXE","","","null","","","","","","","",""
"776.1999999880791","","image-keyboard-response","254","235115","0.0-183.0","3NG53N1RLW5WKXQYA4WNX8WZKNE8PE","A3PLWSCPFLCEGI","3R5LWXWHR0UE010DORDQUF3E2FPGXE","","img/set1/S3.jpg","72","3","structured_incentive","72","true","structured_incentive,random,structured_normal","2,3,1,2","",""
"null","","html-keyboard-response","255","235472","0.0-184.0","3NG53N1RLW5WKXQYA4WNX8WZKNE8PE","A3PLWSCPFLCEGI","3R5LWXWHR0UE010DORDQUF3E2FPGXE","","<img src=""img/set1/S3.jpg"" width=""540"" height = ""360"" style=""border:16px solid orange"">","null","","","","","","","",""
"null","","html-keyboard-response","256","235474","0.0-185.0","3NG53N1RLW5WKXQYA4WNX8WZKNE8PE","A3PLWSCPFLCEGI","3R5LWXWHR0UE010DORDQUF3E2FPGXE","","","null","","","","","","","",""
"911.3000000119209","","image-keyboard-response","257","236386","0.0-186.0","3NG53N1RLW5WKXQYA4WNX8WZKNE8PE","A3PLWSCPFLCEGI","3R5LWXWHR0UE010DORDQUF3E2FPGXE","","img/set1/S2.jpg","68","2","structured_incentive","68","true","structured_incentive,random,structured_normal","2,3,1,2","",""
"null","","html-keyboard-response","258","236743","0.0-187.0","3NG53N1RLW5WKXQYA4WNX8WZKNE8PE","A3PLWSCPFLCEGI","3R5LWXWHR0UE010DORDQUF3E2FPGXE","","<img src=""img/set1/S2.jpg"" width=""540"" height = ""360"" style=""border:16px solid orange"">","null","","","","","","","",""
"null","","html-keyboard-response","259","236745","0.0-188.0","3NG53N1RLW5WKXQYA4WNX8WZKNE8PE","A3PLWSCPFLCEGI","3R5LWXWHR0UE010DORDQUF3E2FPGXE","","","null","","","","","","","",""
"967.6000000238419","","image-keyboard-response","260","237714","0.0-189.0","3NG53N1RLW5WKXQYA4WNX8WZKNE8PE","A3PLWSCPFLCEGI","3R5LWXWHR0UE010DORDQUF3E2FPGXE","","img/set1/S3.jpg","72","3","structured_incentive","72","true","structured_incentive,random,structured_normal","2,3,1,2","",""
"null","","html-keyboard-response","261","238069","0.0-190.0","3NG53N1RLW5WKXQYA4WNX8WZKNE8PE","A3PLWSCPFLCEGI","3R5LWXWHR0UE010DORDQUF3E2FPGXE","","<img src=""img/set1/S3.jpg"" width=""540"" height = ""360"" style=""border:16px solid orange"">","null","","","","","","","",""
"null","","html-keyboard-response","262","238071","0.0-191.0","3NG53N1RLW5WKXQYA4WNX8WZKNE8PE","A3PLWSCPFLCEGI","3R5LWXWHR0UE010DORDQUF3E2FPGXE","","","null","","","","","","","",""
"666.3000000119209","","image-keyboard-response","263","238738","0.0-192.0","3NG53N1RLW5WKXQYA4WNX8WZKNE8PE","A3PLWSCPFLCEGI","3R5LWXWHR0UE010DORDQUF3E2FPGXE","","img/set1/S1.jpg","83","1","structured_incentive","83","true","structured_incentive,random,structured_normal","2,3,1,2","",""
"null","","html-keyboard-response","264","239090","0.0-193.0","3NG53N1RLW5WKXQYA4WNX8WZKNE8PE","A3PLWSCPFLCEGI","3R5LWXWHR0UE010DORDQUF3E2FPGXE","","<img src=""img/set1/S1.jpg"" width=""540"" height = ""360"" style=""border:16px solid orange"">","null","","","","","","","",""
"null","","html-keyboard-response","265","239092","0.0-194.0","3NG53N1RLW5WKXQYA4WNX8WZKNE8PE","A3PLWSCPFLCEGI","3R5LWXWHR0UE010DORDQUF3E2FPGXE","","","null","","","","","","","",""
"779.8999999761581","","image-keyboard-response","266","239874","0.0-195.0","3NG53N1RLW5WKXQYA4WNX8WZKNE8PE","A3PLWSCPFLCEGI","3R5LWXWHR0UE010DORDQUF3E2FPGXE","","img/set1/S4.jpg","74","4","structured_incentive","74","true","structured_incentive,random,structured_normal","2,3,1,2","",""
"null","","html-keyboard-response","267","240230","0.0-196.0","3NG53N1RLW5WKXQYA4WNX8WZKNE8PE","A3PLWSCPFLCEGI","3R5LWXWHR0UE010DORDQUF3E2FPGXE","","<img src=""img/set1/S4.jpg"" width=""540"" height = ""360"" style=""border:16px solid Violet"">","null","","","","","","","",""
"null","","html-keyboard-response","268","240232","0.0-197.0","3NG53N1RLW5WKXQYA4WNX8WZKNE8PE","A3PLWSCPFLCEGI","3R5LWXWHR0UE010DORDQUF3E2FPGXE","","","null","","","","","","","",""
"529.2000000476837","","image-keyboard-response","269","240763","0.0-198.0","3NG53N1RLW5WKXQYA4WNX8WZKNE8PE","A3PLWSCPFLCEGI","3R5LWXWHR0UE010DORDQUF3E2FPGXE","","img/set1/S4.jpg","74","4","structured_incentive","74","true","structured_incentive,random,structured_normal","2,3,1,2","",""
"null","","html-keyboard-response","270","241115","0.0-199.0","3NG53N1RLW5WKXQYA4WNX8WZKNE8PE","A3PLWSCPFLCEGI","3R5LWXWHR0UE010DORDQUF3E2FPGXE","","<img src=""img/set1/S4.jpg"" width=""540"" height = ""360"" style=""border:16px solid Violet"">","null","","","","","","","",""
"null","","html-keyboard-response","271","241117","0.0-200.0","3NG53N1RLW5WKXQYA4WNX8WZKNE8PE","A3PLWSCPFLCEGI","3R5LWXWHR0UE010DORDQUF3E2FPGXE","","","null","","","","","","","",""
"780.2000000476837","","image-keyboard-response","272","241899","0.0-201.0","3NG53N1RLW5WKXQYA4WNX8WZKNE8PE","A3PLWSCPFLCEGI","3R5LWXWHR0UE010DORDQUF3E2FPGXE","","img/set1/S1.jpg","83","1","structured_incentive","83","true","structured_incentive,random,structured_normal","2,3,1,2","",""
"null","","html-keyboard-response","273","242255","0.0-202.0","3NG53N1RLW5WKXQYA4WNX8WZKNE8PE","A3PLWSCPFLCEGI","3R5LWXWHR0UE010DORDQUF3E2FPGXE","","<img src=""img/set1/S1.jpg"" width=""540"" height = ""360"" style=""border:16px solid orange"">","null","","","","","","","",""
"null","","html-keyboard-response","274","242257","0.0-203.0","3NG53N1RLW5WKXQYA4WNX8WZKNE8PE","A3PLWSCPFLCEGI","3R5LWXWHR0UE010DORDQUF3E2FPGXE","","","null","","","","","","","",""
"742.6999999880791","","image-keyboard-response","275","243002","0.0-204.0","3NG53N1RLW5WKXQYA4WNX8WZKNE8PE","A3PLWSCPFLCEGI","3R5LWXWHR0UE010DORDQUF3E2FPGXE","","img/set1/S2.jpg","68","2","structured_incentive","68","true","structured_incentive,random,structured_normal","2,3,1,2","",""
"null","","html-keyboard-response","276","243359","0.0-205.0","3NG53N1RLW5WKXQYA4WNX8WZKNE8PE","A3PLWSCPFLCEGI","3R5LWXWHR0UE010DORDQUF3E2FPGXE","","<img src=""img/set1/S2.jpg"" width=""540"" height = ""360"" style=""border:16px solid orange"">","null","","","","","","","",""
"null","","html-keyboard-response","277","243360","0.0-206.0","3NG53N1RLW5WKXQYA4WNX8WZKNE8PE","A3PLWSCPFLCEGI","3R5LWXWHR0UE010DORDQUF3E2FPGXE","","","null","","","","","","","",""
"427.0999999642372","","image-keyboard-response","278","243789","0.0-207.0","3NG53N1RLW5WKXQYA4WNX8WZKNE8PE","A3PLWSCPFLCEGI","3R5LWXWHR0UE010DORDQUF3E2FPGXE","","img/set1/S3.jpg","72","3","structured_incentive","72","true","structured_incentive,random,structured_normal","2,3,1,2","",""
"null","","html-keyboard-response","279","244143","0.0-208.0","3NG53N1RLW5WKXQYA4WNX8WZKNE8PE","A3PLWSCPFLCEGI","3R5LWXWHR0UE010DORDQUF3E2FPGXE","","<img src=""img/set1/S3.jpg"" width=""540"" height = ""360"" style=""border:16px solid orange"">","null","","","","","","","",""
"null","","html-keyboard-response","280","244145","0.0-209.0","3NG53N1RLW5WKXQYA4WNX8WZKNE8PE","A3PLWSCPFLCEGI","3R5LWXWHR0UE010DORDQUF3E2FPGXE","","","null","","","","","","","",""
"801","","image-keyboard-response","281","244948","0.0-210.0","3NG53N1RLW5WKXQYA4WNX8WZKNE8PE","A3PLWSCPFLCEGI","3R5LWXWHR0UE010DORDQUF3E2FPGXE","","img/set1/S1.jpg","83","1","structured_incentive","83","true","structured_incentive,random,structured_normal","2,3,1,2","",""
"null","","html-keyboard-response","282","245300","0.0-211.0","3NG53N1RLW5WKXQYA4WNX8WZKNE8PE","A3PLWSCPFLCEGI","3R5LWXWHR0UE010DORDQUF3E2FPGXE","","<img src=""img/set1/S1.jpg"" width=""540"" height = ""360"" style=""border:16px solid orange"">","null","","","","","","","",""
"null","","html-keyboard-response","283","245302","0.0-212.0","3NG53N1RLW5WKXQYA4WNX8WZKNE8PE","A3PLWSCPFLCEGI","3R5LWXWHR0UE010DORDQUF3E2FPGXE","","","null","","","","","","","",""
"521.5999999642372","","image-keyboard-response","284","245825","0.0-213.0","3NG53N1RLW5WKXQYA4WNX8WZKNE8PE","A3PLWSCPFLCEGI","3R5LWXWHR0UE010DORDQUF3E2FPGXE","","img/set1/S1.jpg","83","1","structured_incentive","83","true","structured_incentive,random,structured_normal","2,3,1,2","",""
"null","","html-keyboard-response","285","246179","0.0-214.0","3NG53N1RLW5WKXQYA4WNX8WZKNE8PE","A3PLWSCPFLCEGI","3R5LWXWHR0UE010DORDQUF3E2FPGXE","","<img src=""img/set1/S1.jpg"" width=""540"" height = ""360"" style=""border:16px solid orange"">","null","","","","","","","",""
"null","","html-keyboard-response","286","246181","0.0-215.0","3NG53N1RLW5WKXQYA4WNX8WZKNE8PE","A3PLWSCPFLCEGI","3R5LWXWHR0UE010DORDQUF3E2FPGXE","","","null","","","","","","","",""
"666.1000000238419","","image-keyboard-response","287","246849","0.0-216.0","3NG53N1RLW5WKXQYA4WNX8WZKNE8PE","A3PLWSCPFLCEGI","3R5LWXWHR0UE010DORDQUF3E2FPGXE","","img/set1/S3.jpg","72","3","structured_incentive","72","true","structured_incentive,random,structured_normal","2,3,1,2","",""
"null","","html-keyboard-response","288","247203","0.0-217.0","3NG53N1RLW5WKXQYA4WNX8WZKNE8PE","A3PLWSCPFLCEGI","3R5LWXWHR0UE010DORDQUF3E2FPGXE","","<img src=""img/set1/S3.jpg"" width=""540"" height = ""360"" style=""border:16px solid orange"">","null","","","","","","","",""
"null","","html-keyboard-response","289","247205","0.0-218.0","3NG53N1RLW5WKXQYA4WNX8WZKNE8PE","A3PLWSCPFLCEGI","3R5LWXWHR0UE010DORDQUF3E2FPGXE","","","null","","","","","","","",""
"542.3999999761581","","image-keyboard-response","290","247749","0.0-219.0","3NG53N1RLW5WKXQYA4WNX8WZKNE8PE","A3PLWSCPFLCEGI","3R5LWXWHR0UE010DORDQUF3E2FPGXE","","img/set1/S4.jpg","74","4","structured_incentive","74","true","structured_incentive,random,structured_normal","2,3,1,2","",""
"null","","html-keyboard-response","291","248104","0.0-220.0","3NG53N1RLW5WKXQYA4WNX8WZKNE8PE","A3PLWSCPFLCEGI","3R5LWXWHR0UE010DORDQUF3E2FPGXE","","<img src=""img/set1/S4.jpg"" width=""540"" height = ""360"" style=""border:16px solid Violet"">","null","","","","","","","",""
"null","","html-keyboard-response","292","248106","0.0-221.0","3NG53N1RLW5WKXQYA4WNX8WZKNE8PE","A3PLWSCPFLCEGI","3R5LWXWHR0UE010DORDQUF3E2FPGXE","","","null","","","","","","","",""
"462.69999998807907","","image-keyboard-response","293","248570","0.0-222.0","3NG53N1RLW5WKXQYA4WNX8WZKNE8PE","A3PLWSCPFLCEGI","3R5LWXWHR0UE010DORDQUF3E2FPGXE","","img/set1/S4.jpg","74","4","structured_incentive","74","true","structured_incentive,random,structured_normal","2,3,1,2","",""
"null","","html-keyboard-response","294","248927","0.0-223.0","3NG53N1RLW5WKXQYA4WNX8WZKNE8PE","A3PLWSCPFLCEGI","3R5LWXWHR0UE010DORDQUF3E2FPGXE","","<img src=""img/set1/S4.jpg"" width=""540"" height = ""360"" style=""border:16px solid Violet"">","null","","","","","","","",""
"null","","html-keyboard-response","295","248929","0.0-224.0","3NG53N1RLW5WKXQYA4WNX8WZKNE8PE","A3PLWSCPFLCEGI","3R5LWXWHR0UE010DORDQUF3E2FPGXE","","","null","","","","","","","",""
"821.1000000238419","","image-keyboard-response","296","249751","0.0-225.0","3NG53N1RLW5WKXQYA4WNX8WZKNE8PE","A3PLWSCPFLCEGI","3R5LWXWHR0UE010DORDQUF3E2FPGXE","","img/set1/S1.jpg","83","1","structured_incentive","83","true","structured_incentive,random,structured_normal","2,3,1,2","",""
"null","","html-keyboard-response","297","250105","0.0-226.0","3NG53N1RLW5WKXQYA4WNX8WZKNE8PE","A3PLWSCPFLCEGI","3R5LWXWHR0UE010DORDQUF3E2FPGXE","","<img src=""img/set1/S1.jpg"" width=""540"" height = ""360"" style=""border:16px solid orange"">","null","","","","","","","",""
"null","","html-keyboard-response","298","250107","0.0-227.0","3NG53N1RLW5WKXQYA4WNX8WZKNE8PE","A3PLWSCPFLCEGI","3R5LWXWHR0UE010DORDQUF3E2FPGXE","","","null","","","","","","","",""
"993","","image-keyboard-response","299","251102","0.0-228.0","3NG53N1RLW5WKXQYA4WNX8WZKNE8PE","A3PLWSCPFLCEGI","3R5LWXWHR0UE010DORDQUF3E2FPGXE","","img/set1/S2.jpg","68","2","structured_incentive","68","true","structured_incentive,random,structured_normal","2,3,1,2","",""
"null","","html-keyboard-response","300","251458","0.0-229.0","3NG53N1RLW5WKXQYA4WNX8WZKNE8PE","A3PLWSCPFLCEGI","3R5LWXWHR0UE010DORDQUF3E2FPGXE","","<img src=""img/set1/S2.jpg"" width=""540"" height = ""360"" style=""border:16px solid orange"">","null","","","","","","","",""
"null","","html-keyboard-response","301","251461","0.0-230.0","3NG53N1RLW5WKXQYA4WNX8WZKNE8PE","A3PLWSCPFLCEGI","3R5LWXWHR0UE010DORDQUF3E2FPGXE","","","null","","","","","","","",""
"437.5","","image-keyboard-response","302","251900","0.0-231.0","3NG53N1RLW5WKXQYA4WNX8WZKNE8PE","A3PLWSCPFLCEGI","3R5LWXWHR0UE010DORDQUF3E2FPGXE","","img/set1/S3.jpg","72","3","structured_incentive","72","true","structured_incentive,random,structured_normal","2,3,1,2","",""
"null","","html-keyboard-response","303","252252","0.0-232.0","3NG53N1RLW5WKXQYA4WNX8WZKNE8PE","A3PLWSCPFLCEGI","3R5LWXWHR0UE010DORDQUF3E2FPGXE","","<img src=""img/set1/S3.jpg"" width=""540"" height = ""360"" style=""border:16px solid orange"">","null","","","","","","","",""
"null","","html-keyboard-response","304","252253","0.0-233.0","3NG53N1RLW5WKXQYA4WNX8WZKNE8PE","A3PLWSCPFLCEGI","3R5LWXWHR0UE010DORDQUF3E2FPGXE","","","null","","","","","","","",""
"612.6999999880791","","image-keyboard-response","305","252867","0.0-234.0","3NG53N1RLW5WKXQYA4WNX8WZKNE8PE","A3PLWSCPFLCEGI","3R5LWXWHR0UE010DORDQUF3E2FPGXE","","img/set1/S4.jpg","74","4","structured_incentive","74","true","structured_incentive,random,structured_normal","2,3,1,2","",""
"null","","html-keyboard-response","306","253221","0.0-235.0","3NG53N1RLW5WKXQYA4WNX8WZKNE8PE","A3PLWSCPFLCEGI","3R5LWXWHR0UE010DORDQUF3E2FPGXE","","<img src=""img/set1/S4.jpg"" width=""540"" height = ""360"" style=""border:16px solid Violet"">","null","","","","","","","",""
"null","","html-keyboard-response","307","253223","0.0-236.0","3NG53N1RLW5WKXQYA4WNX8WZKNE8PE","A3PLWSCPFLCEGI","3R5LWXWHR0UE010DORDQUF3E2FPGXE","","","null","","","","","","","",""
"723","","image-keyboard-response","308","253948","0.0-237.0","3NG53N1RLW5WKXQYA4WNX8WZKNE8PE","A3PLWSCPFLCEGI","3R5LWXWHR0UE010DORDQUF3E2FPGXE","","img/set1/S1.jpg","83","1","structured_incentive","83","true","structured_incentive,random,structured_normal","2,3,1,2","",""
"null","","html-keyboard-response","309","254301","0.0-238.0","3NG53N1RLW5WKXQYA4WNX8WZKNE8PE","A3PLWSCPFLCEGI","3R5LWXWHR0UE010DORDQUF3E2FPGXE","","<img src=""img/set1/S1.jpg"" width=""540"" height = ""360"" style=""border:16px solid orange"">","null","","","","","","","",""
"null","","html-keyboard-response","310","254303","0.0-239.0","3NG53N1RLW5WKXQYA4WNX8WZKNE8PE","A3PLWSCPFLCEGI","3R5LWXWHR0UE010DORDQUF3E2FPGXE","","","null","","","","","","","",""
"881.4000000357628","","image-keyboard-response","311","255185","0.0-240.0","3NG53N1RLW5WKXQYA4WNX8WZKNE8PE","A3PLWSCPFLCEGI","3R5LWXWHR0UE010DORDQUF3E2FPGXE","","img/set1/S2.jpg","68","2","structured_incentive","68","true","structured_incentive,random,structured_normal","2,3,1,2","",""
"null","","html-keyboard-response","312","255541","0.0-241.0","3NG53N1RLW5WKXQYA4WNX8WZKNE8PE","A3PLWSCPFLCEGI","3R5LWXWHR0UE010DORDQUF3E2FPGXE","","<img src=""img/set1/S2.jpg"" width=""540"" height = ""360"" style=""border:16px solid orange"">","null","","","","","","","",""
"null","","html-keyboard-response","313","255543","0.0-242.0","3NG53N1RLW5WKXQYA4WNX8WZKNE8PE","A3PLWSCPFLCEGI","3R5LWXWHR0UE010DORDQUF3E2FPGXE","","","null","","","","","","","",""
"744.0999999642372","","image-keyboard-response","314","256288","0.0-243.0","3NG53N1RLW5WKXQYA4WNX8WZKNE8PE","A3PLWSCPFLCEGI","3R5LWXWHR0UE010DORDQUF3E2FPGXE","","img/set1/S3.jpg","72","3","structured_incentive","72","true","structured_incentive,random,structured_normal","2,3,1,2","",""
"null","","html-keyboard-response","315","256641","0.0-244.0","3NG53N1RLW5WKXQYA4WNX8WZKNE8PE","A3PLWSCPFLCEGI","3R5LWXWHR0UE010DORDQUF3E2FPGXE","","<img src=""img/set1/S3.jpg"" width=""540"" height = ""360"" style=""border:16px solid orange"">","null","","","","","","","",""
"null","","html-keyboard-response","316","256643","0.0-245.0","3NG53N1RLW5WKXQYA4WNX8WZKNE8PE","A3PLWSCPFLCEGI","3R5LWXWHR0UE010DORDQUF3E2FPGXE","","","null","","","","","","","",""
"712.1000000238419","","image-keyboard-response","317","257357","0.0-246.0","3NG53N1RLW5WKXQYA4WNX8WZKNE8PE","A3PLWSCPFLCEGI","3R5LWXWHR0UE010DORDQUF3E2FPGXE","","img/set1/S2.jpg","83","2","structured_incentive","68","false","structured_incentive,random,structured_normal","2,3,1,2","",""
"null","","html-keyboard-response","318","257713","0.0-247.0","3NG53N1RLW5WKXQYA4WNX8WZKNE8PE","A3PLWSCPFLCEGI","3R5LWXWHR0UE010DORDQUF3E2FPGXE","","<img src=""img/set1/S2.jpg"" width=""540"" height = ""360"">","null","","","","","","","",""
"null","","html-keyboard-response","319","257715","0.0-248.0","3NG53N1RLW5WKXQYA4WNX8WZKNE8PE","A3PLWSCPFLCEGI","3R5LWXWHR0UE010DORDQUF3E2FPGXE","","","null","","","","","","","",""
"743.1000000238419","","image-keyboard-response","320","258459","0.0-249.0","3NG53N1RLW5WKXQYA4WNX8WZKNE8PE","A3PLWSCPFLCEGI","3R5LWXWHR0UE010DORDQUF3E2FPGXE","","img/set1/S3.jpg","72","3","structured_incentive","72","true","structured_incentive,random,structured_normal","2,3,1,2","",""
"null","","html-keyboard-response","321","258816","0.0-250.0","3NG53N1RLW5WKXQYA4WNX8WZKNE8PE","A3PLWSCPFLCEGI","3R5LWXWHR0UE010DORDQUF3E2FPGXE","","<img src=""img/set1/S3.jpg"" width=""540"" height = ""360"" style=""border:16px solid orange"">","null","","","","","","","",""
"null","","html-keyboard-response","322","258818","0.0-251.0","3NG53N1RLW5WKXQYA4WNX8WZKNE8PE","A3PLWSCPFLCEGI","3R5LWXWHR0UE010DORDQUF3E2FPGXE","","","null","","","","","","","",""
"652.1999999880791","","image-keyboard-response","323","259471","0.0-252.0","3NG53N1RLW5WKXQYA4WNX8WZKNE8PE","A3PLWSCPFLCEGI","3R5LWXWHR0UE010DORDQUF3E2FPGXE","","img/set1/S1.jpg","83","1","structured_incentive","83","true","structured_incentive,random,structured_normal","2,3,1,2","",""
"null","","html-keyboard-response","324","259828","0.0-253.0","3NG53N1RLW5WKXQYA4WNX8WZKNE8PE","A3PLWSCPFLCEGI","3R5LWXWHR0UE010DORDQUF3E2FPGXE","","<img src=""img/set1/S1.jpg"" width=""540"" height = ""360"" style=""border:16px solid orange"">","null","","","","","","","",""
"null","","html-keyboard-response","325","259830","0.0-254.0","3NG53N1RLW5WKXQYA4WNX8WZKNE8PE","A3PLWSCPFLCEGI","3R5LWXWHR0UE010DORDQUF3E2FPGXE","","","null","","","","","","","",""
"664.5","","image-keyboard-response","326","260496","0.0-255.0","3NG53N1RLW5WKXQYA4WNX8WZKNE8PE","A3PLWSCPFLCEGI","3R5LWXWHR0UE010DORDQUF3E2FPGXE","","img/set1/S2.jpg","68","2","structured_incentive","68","true","structured_incentive,random,structured_normal","2,3,1,2","",""
"null","","html-keyboard-response","327","260851","0.0-256.0","3NG53N1RLW5WKXQYA4WNX8WZKNE8PE","A3PLWSCPFLCEGI","3R5LWXWHR0UE010DORDQUF3E2FPGXE","","<img src=""img/set1/S2.jpg"" width=""540"" height = ""360"" style=""border:16px solid orange"">","null","","","","","","","",""
"null","","html-keyboard-response","328","260853","0.0-257.0","3NG53N1RLW5WKXQYA4WNX8WZKNE8PE","A3PLWSCPFLCEGI","3R5LWXWHR0UE010DORDQUF3E2FPGXE","","","null","","","","","","","",""
"653.3999999761581","","image-keyboard-response","329","261508","0.0-258.0","3NG53N1RLW5WKXQYA4WNX8WZKNE8PE","A3PLWSCPFLCEGI","3R5LWXWHR0UE010DORDQUF3E2FPGXE","","img/set1/S3.jpg","72","3","structured_incentive","72","true","structured_incentive,random,structured_normal","2,3,1,2","",""
"null","","html-keyboard-response","330","261862","0.0-259.0","3NG53N1RLW5WKXQYA4WNX8WZKNE8PE","A3PLWSCPFLCEGI","3R5LWXWHR0UE010DORDQUF3E2FPGXE","","<img src=""img/set1/S3.jpg"" width=""540"" height = ""360"" style=""border:16px solid orange"">","null","","","","","","","",""
"null","","html-keyboard-response","331","261864","0.0-260.0","3NG53N1RLW5WKXQYA4WNX8WZKNE8PE","A3PLWSCPFLCEGI","3R5LWXWHR0UE010DORDQUF3E2FPGXE","","","null","","","","","","","",""
"587.5","","image-keyboard-response","332","262453","0.0-261.0","3NG53N1RLW5WKXQYA4WNX8WZKNE8PE","A3PLWSCPFLCEGI","3R5LWXWHR0UE010DORDQUF3E2FPGXE","","img/set1/S2.jpg","68","2","structured_incentive","68","true","structured_incentive,random,structured_normal","2,3,1,2","",""
"null","","html-keyboard-response","333","262810","0.0-262.0","3NG53N1RLW5WKXQYA4WNX8WZKNE8PE","A3PLWSCPFLCEGI","3R5LWXWHR0UE010DORDQUF3E2FPGXE","","<img src=""img/set1/S2.jpg"" width=""540"" height = ""360"" style=""border:16px solid orange"">","null","","","","","","","",""
"null","","html-keyboard-response","334","262812","0.0-263.0","3NG53N1RLW5WKXQYA4WNX8WZKNE8PE","A3PLWSCPFLCEGI","3R5LWXWHR0UE010DORDQUF3E2FPGXE","","","null","","","","","","","",""
"573.5","","image-keyboard-response","335","263387","0.0-264.0","3NG53N1RLW5WKXQYA4WNX8WZKNE8PE","A3PLWSCPFLCEGI","3R5LWXWHR0UE010DORDQUF3E2FPGXE","","img/set1/S4.jpg","74","4","structured_incentive","74","true","structured_incentive,random,structured_normal","2,3,1,2","",""
"null","","html-keyboard-response","336","263738","0.0-265.0","3NG53N1RLW5WKXQYA4WNX8WZKNE8PE","A3PLWSCPFLCEGI","3R5LWXWHR0UE010DORDQUF3E2FPGXE","","<img src=""img/set1/S4.jpg"" width=""540"" height = ""360"" style=""border:16px solid Violet"">","null","","","","","","","",""
"null","","html-keyboard-response","337","263740","0.0-266.0","3NG53N1RLW5WKXQYA4WNX8WZKNE8PE","A3PLWSCPFLCEGI","3R5LWXWHR0UE010DORDQUF3E2FPGXE","","","null","","","","","","","",""
"657.1999999880791","","image-keyboard-response","338","264399","0.0-267.0","3NG53N1RLW5WKXQYA4WNX8WZKNE8PE","A3PLWSCPFLCEGI","3R5LWXWHR0UE010DORDQUF3E2FPGXE","","img/set1/S2.jpg","68","2","structured_incentive","68","true","structured_incentive,random,structured_normal","2,3,1,2","",""
"null","","html-keyboard-response","339","264753","0.0-268.0","3NG53N1RLW5WKXQYA4WNX8WZKNE8PE","A3PLWSCPFLCEGI","3R5LWXWHR0UE010DORDQUF3E2FPGXE","","<img src=""img/set1/S2.jpg"" width=""540"" height = ""360"" style=""border:16px solid orange"">","null","","","","","","","",""
"null","","html-keyboard-response","340","264755","0.0-269.0","3NG53N1RLW5WKXQYA4WNX8WZKNE8PE","A3PLWSCPFLCEGI","3R5LWXWHR0UE010DORDQUF3E2FPGXE","","","null","","","","","","","",""
"824","","image-keyboard-response","341","265581","0.0-270.0","3NG53N1RLW5WKXQYA4WNX8WZKNE8PE","A3PLWSCPFLCEGI","3R5LWXWHR0UE010DORDQUF3E2FPGXE","","img/set1/S3.jpg","72","3","structured_incentive","72","true","structured_incentive,random,structured_normal","2,3,1,2","",""
"null","","html-keyboard-response","342","265934","0.0-271.0","3NG53N1RLW5WKXQYA4WNX8WZKNE8PE","A3PLWSCPFLCEGI","3R5LWXWHR0UE010DORDQUF3E2FPGXE","","<img src=""img/set1/S3.jpg"" width=""540"" height = ""360"" style=""border:16px solid orange"">","null","","","","","","","",""
"null","","html-keyboard-response","343","265936","0.0-272.0","3NG53N1RLW5WKXQYA4WNX8WZKNE8PE","A3PLWSCPFLCEGI","3R5LWXWHR0UE010DORDQUF3E2FPGXE","","","null","","","","","","","",""
"756.6999999880791","","image-keyboard-response","344","266694","0.0-273.0","3NG53N1RLW5WKXQYA4WNX8WZKNE8PE","A3PLWSCPFLCEGI","3R5LWXWHR0UE010DORDQUF3E2FPGXE","","img/set1/S4.jpg","74","4","structured_incentive","74","true","structured_incentive,random,structured_normal","2,3,1,2","",""
"null","","html-keyboard-response","345","267050","0.0-274.0","3NG53N1RLW5WKXQYA4WNX8WZKNE8PE","A3PLWSCPFLCEGI","3R5LWXWHR0UE010DORDQUF3E2FPGXE","","<img src=""img/set1/S4.jpg"" width=""540"" height = ""360"" style=""border:16px solid Violet"">","null","","","","","","","",""
"null","","html-keyboard-response","346","267052","0.0-275.0","3NG53N1RLW5WKXQYA4WNX8WZKNE8PE","A3PLWSCPFLCEGI","3R5LWXWHR0UE010DORDQUF3E2FPGXE","","","null","","","","","","","",""
"832.3000000119209","","image-keyboard-response","347","267886","0.0-276.0","3NG53N1RLW5WKXQYA4WNX8WZKNE8PE","A3PLWSCPFLCEGI","3R5LWXWHR0UE010DORDQUF3E2FPGXE","","img/set1/S3.jpg","72","3","structured_incentive","72","true","structured_incentive,random,structured_normal","2,3,1,2","",""
"null","","html-keyboard-response","348","268239","0.0-277.0","3NG53N1RLW5WKXQYA4WNX8WZKNE8PE","A3PLWSCPFLCEGI","3R5LWXWHR0UE010DORDQUF3E2FPGXE","","<img src=""img/set1/S3.jpg"" width=""540"" height = ""360"" style=""border:16px solid orange"">","null","","","","","","","",""
"null","","html-keyboard-response","349","268241","0.0-278.0","3NG53N1RLW5WKXQYA4WNX8WZKNE8PE","A3PLWSCPFLCEGI","3R5LWXWHR0UE010DORDQUF3E2FPGXE","","","null","","","","","","","",""
"690","","image-keyboard-response","350","268932","0.0-279.0","3NG53N1RLW5WKXQYA4WNX8WZKNE8PE","A3PLWSCPFLCEGI","3R5LWXWHR0UE010DORDQUF3E2FPGXE","","img/set1/S1.jpg","83","1","structured_incentive","83","true","structured_incentive,random,structured_normal","2,3,1,2","",""
"null","","html-keyboard-response","351","269286","0.0-280.0","3NG53N1RLW5WKXQYA4WNX8WZKNE8PE","A3PLWSCPFLCEGI","3R5LWXWHR0UE010DORDQUF3E2FPGXE","","<img src=""img/set1/S1.jpg"" width=""540"" height = ""360"" style=""border:16px solid orange"">","null","","","","","","","",""
"null","","html-keyboard-response","352","269288","0.0-281.0","3NG53N1RLW5WKXQYA4WNX8WZKNE8PE","A3PLWSCPFLCEGI","3R5LWXWHR0UE010DORDQUF3E2FPGXE","","","null","","","","","","","",""
"566","","image-keyboard-response","353","269856","0.0-282.0","3NG53N1RLW5WKXQYA4WNX8WZKNE8PE","A3PLWSCPFLCEGI","3R5LWXWHR0UE010DORDQUF3E2FPGXE","","img/set1/S1.jpg","83","1","structured_incentive","83","true","structured_incentive,random,structured_normal","2,3,1,2","",""
"null","","html-keyboard-response","354","270212","0.0-283.0","3NG53N1RLW5WKXQYA4WNX8WZKNE8PE","A3PLWSCPFLCEGI","3R5LWXWHR0UE010DORDQUF3E2FPGXE","","<img src=""img/set1/S1.jpg"" width=""540"" height = ""360"" style=""border:16px solid orange"">","null","","","","","","","",""
"null","","html-keyboard-response","355","270215","0.0-284.0","3NG53N1RLW5WKXQYA4WNX8WZKNE8PE","A3PLWSCPFLCEGI","3R5LWXWHR0UE010DORDQUF3E2FPGXE","","","null","","","","","","","",""
"674.1000000238419","","image-keyboard-response","356","270890","0.0-285.0","3NG53N1RLW5WKXQYA4WNX8WZKNE8PE","A3PLWSCPFLCEGI","3R5LWXWHR0UE010DORDQUF3E2FPGXE","","img/set1/S4.jpg","72","4","structured_incentive","74","false","structured_incentive,random,structured_normal","2,3,1,2","",""
"null","","html-keyboard-response","357","271247","0.0-286.0","3NG53N1RLW5WKXQYA4WNX8WZKNE8PE","A3PLWSCPFLCEGI","3R5LWXWHR0UE010DORDQUF3E2FPGXE","","<img src=""img/set1/S4.jpg"" width=""540"" height = ""360"">","null","","","","","","","",""
"null","","html-keyboard-response","358","271249","0.0-287.0","3NG53N1RLW5WKXQYA4WNX8WZKNE8PE","A3PLWSCPFLCEGI","3R5LWXWHR0UE010DORDQUF3E2FPGXE","","","null","","","","","","","",""
"236.0999999642372","","image-keyboard-response","359","271487","0.0-288.0","3NG53N1RLW5WKXQYA4WNX8WZKNE8PE","A3PLWSCPFLCEGI","3R5LWXWHR0UE010DORDQUF3E2FPGXE","","img/set1/S2.jpg","74","2","structured_incentive","68","false","structured_incentive,random,structured_normal","2,3,1,2","",""
"null","","html-keyboard-response","360","271841","0.0-289.0","3NG53N1RLW5WKXQYA4WNX8WZKNE8PE","A3PLWSCPFLCEGI","3R5LWXWHR0UE010DORDQUF3E2FPGXE","","<img src=""img/set1/S2.jpg"" width=""540"" height = ""360"">","null","","","","","","","",""
"null","","html-keyboard-response","361","271843","0.0-290.0","3NG53N1RLW5WKXQYA4WNX8WZKNE8PE","A3PLWSCPFLCEGI","3R5LWXWHR0UE010DORDQUF3E2FPGXE","","","null","","","","","","","",""
"1127.4000000357628","","image-keyboard-response","362","272971","0.0-291.0","3NG53N1RLW5WKXQYA4WNX8WZKNE8PE","A3PLWSCPFLCEGI","3R5LWXWHR0UE010DORDQUF3E2FPGXE","","img/set1/S3.jpg","72","3","structured_incentive","72","true","structured_incentive,random,structured_normal","2,3,1,2","",""
"null","","html-keyboard-response","363","273328","0.0-292.0","3NG53N1RLW5WKXQYA4WNX8WZKNE8PE","A3PLWSCPFLCEGI","3R5LWXWHR0UE010DORDQUF3E2FPGXE","","<img src=""img/set1/S3.jpg"" width=""540"" height = ""360"" style=""border:16px solid orange"">","null","","","","","","","",""
"null","","html-keyboard-response","364","273330","0.0-293.0","3NG53N1RLW5WKXQYA4WNX8WZKNE8PE","A3PLWSCPFLCEGI","3R5LWXWHR0UE010DORDQUF3E2FPGXE","","","null","","","","","","","",""
"573.6999999880791","","image-keyboard-response","365","273905","0.0-294.0","3NG53N1RLW5WKXQYA4WNX8WZKNE8PE","A3PLWSCPFLCEGI","3R5LWXWHR0UE010DORDQUF3E2FPGXE","","img/set1/S4.jpg","74","4","structured_incentive","74","true","structured_incentive,random,structured_normal","2,3,1,2","",""
"null","","html-keyboard-response","366","274262","0.0-295.0","3NG53N1RLW5WKXQYA4WNX8WZKNE8PE","A3PLWSCPFLCEGI","3R5LWXWHR0UE010DORDQUF3E2FPGXE","","<img src=""img/set1/S4.jpg"" width=""540"" height = ""360"" style=""border:16px solid Violet"">","null","","","","","","","",""
"null","","html-keyboard-response","367","274264","0.0-296.0","3NG53N1RLW5WKXQYA4WNX8WZKNE8PE","A3PLWSCPFLCEGI","3R5LWXWHR0UE010DORDQUF3E2FPGXE","","","null","","","","","","","",""
"776.0999999642372","","image-keyboard-response","368","275041","0.0-297.0","3NG53N1RLW5WKXQYA4WNX8WZKNE8PE","A3PLWSCPFLCEGI","3R5LWXWHR0UE010DORDQUF3E2FPGXE","","img/set1/S1.jpg","83","1","structured_incentive","83","true","structured_incentive,random,structured_normal","2,3,1,2","",""
"null","","html-keyboard-response","369","275393","0.0-298.0","3NG53N1RLW5WKXQYA4WNX8WZKNE8PE","A3PLWSCPFLCEGI","3R5LWXWHR0UE010DORDQUF3E2FPGXE","","<img src=""img/set1/S1.jpg"" width=""540"" height = ""360"" style=""border:16px solid orange"">","null","","","","","","","",""
"null","","html-keyboard-response","370","275395","0.0-299.0","3NG53N1RLW5WKXQYA4WNX8WZKNE8PE","A3PLWSCPFLCEGI","3R5LWXWHR0UE010DORDQUF3E2FPGXE","","","null","","","","","","","",""
"815.1000000238419","","image-keyboard-response","371","276211","0.0-300.0","3NG53N1RLW5WKXQYA4WNX8WZKNE8PE","A3PLWSCPFLCEGI","3R5LWXWHR0UE010DORDQUF3E2FPGXE","","img/set1/S1.jpg","83","1","structured_incentive","83","true","structured_incentive,random,structured_normal","2,3,1,2","",""
"null","","html-keyboard-response","372","276568","0.0-301.0","3NG53N1RLW5WKXQYA4WNX8WZKNE8PE","A3PLWSCPFLCEGI","3R5LWXWHR0UE010DORDQUF3E2FPGXE","","<img src=""img/set1/S1.jpg"" width=""540"" height = ""360"" style=""border:16px solid orange"">","null","","","","","","","",""
"null","","html-keyboard-response","373","276570","0.0-302.0","3NG53N1RLW5WKXQYA4WNX8WZKNE8PE","A3PLWSCPFLCEGI","3R5LWXWHR0UE010DORDQUF3E2FPGXE","","","null","","","","","","","",""
"776","","image-keyboard-response","374","277347","0.0-303.0","3NG53N1RLW5WKXQYA4WNX8WZKNE8PE","A3PLWSCPFLCEGI","3R5LWXWHR0UE010DORDQUF3E2FPGXE","","img/set1/S2.jpg","68","2","structured_incentive","68","true","structured_incentive,random,structured_normal","2,3,1,2","",""
"null","","html-keyboard-response","375","277702","0.0-304.0","3NG53N1RLW5WKXQYA4WNX8WZKNE8PE","A3PLWSCPFLCEGI","3R5LWXWHR0UE010DORDQUF3E2FPGXE","","<img src=""img/set1/S2.jpg"" width=""540"" height = ""360"" style=""border:16px solid orange"">","null","","","","","","","",""
"null","","html-keyboard-response","376","277704","0.0-305.0","3NG53N1RLW5WKXQYA4WNX8WZKNE8PE","A3PLWSCPFLCEGI","3R5LWXWHR0UE010DORDQUF3E2FPGXE","","","null","","","","","","","",""
"722.1999999880791","","image-keyboard-response","377","278428","0.0-306.0","3NG53N1RLW5WKXQYA4WNX8WZKNE8PE","A3PLWSCPFLCEGI","3R5LWXWHR0UE010DORDQUF3E2FPGXE","","img/set1/S3.jpg","72","3","structured_incentive","72","true","structured_incentive,random,structured_normal","2,3,1,2","",""
"null","","html-keyboard-response","378","278781","0.0-307.0","3NG53N1RLW5WKXQYA4WNX8WZKNE8PE","A3PLWSCPFLCEGI","3R5LWXWHR0UE010DORDQUF3E2FPGXE","","<img src=""img/set1/S3.jpg"" width=""540"" height = ""360"" style=""border:16px solid orange"">","null","","","","","","","",""
"null","","html-keyboard-response","379","278783","0.0-308.0","3NG53N1RLW5WKXQYA4WNX8WZKNE8PE","A3PLWSCPFLCEGI","3R5LWXWHR0UE010DORDQUF3E2FPGXE","","","null","","","","","","","",""
"722.5999999642372","","image-keyboard-response","380","279507","0.0-309.0","3NG53N1RLW5WKXQYA4WNX8WZKNE8PE","A3PLWSCPFLCEGI","3R5LWXWHR0UE010DORDQUF3E2FPGXE","","img/set1/S1.jpg","83","1","structured_incentive","83","true","structured_incentive,random,structured_normal","2,3,1,2","",""
"null","","html-keyboard-response","381","279862","0.0-310.0","3NG53N1RLW5WKXQYA4WNX8WZKNE8PE","A3PLWSCPFLCEGI","3R5LWXWHR0UE010DORDQUF3E2FPGXE","","<img src=""img/set1/S1.jpg"" width=""540"" height = ""360"" style=""border:16px solid orange"">","null","","","","","","","",""
"null","","html-keyboard-response","382","279865","0.0-311.0","3NG53N1RLW5WKXQYA4WNX8WZKNE8PE","A3PLWSCPFLCEGI","3R5LWXWHR0UE010DORDQUF3E2FPGXE","","","null","","","","","","","",""
"868","","image-keyboard-response","383","280734","0.0-312.0","3NG53N1RLW5WKXQYA4WNX8WZKNE8PE","A3PLWSCPFLCEGI","3R5LWXWHR0UE010DORDQUF3E2FPGXE","","img/set1/S4.jpg","74","4","structured_incentive","74","true","structured_incentive,random,structured_normal","2,3,1,2","",""
"null","","html-keyboard-response","384","281091","0.0-313.0","3NG53N1RLW5WKXQYA4WNX8WZKNE8PE","A3PLWSCPFLCEGI","3R5LWXWHR0UE010DORDQUF3E2FPGXE","","<img src=""img/set1/S4.jpg"" width=""540"" height = ""360"" style=""border:16px solid Violet"">","null","","","","","","","",""
"null","","html-keyboard-response","385","281093","0.0-314.0","3NG53N1RLW5WKXQYA4WNX8WZKNE8PE","A3PLWSCPFLCEGI","3R5LWXWHR0UE010DORDQUF3E2FPGXE","","","null","","","","","","","",""
"821","","image-keyboard-response","386","281915","0.0-315.0","3NG53N1RLW5WKXQYA4WNX8WZKNE8PE","A3PLWSCPFLCEGI","3R5LWXWHR0UE010DORDQUF3E2FPGXE","","img/set1/S1.jpg","83","1","structured_incentive","83","true","structured_incentive,random,structured_normal","2,3,1,2","",""
"null","","html-keyboard-response","387","282270","0.0-316.0","3NG53N1RLW5WKXQYA4WNX8WZKNE8PE","A3PLWSCPFLCEGI","3R5LWXWHR0UE010DORDQUF3E2FPGXE","","<img src=""img/set1/S1.jpg"" width=""540"" height = ""360"" style=""border:16px solid orange"">","null","","","","","","","",""
"null","","html-keyboard-response","388","282272","0.0-317.0","3NG53N1RLW5WKXQYA4WNX8WZKNE8PE","A3PLWSCPFLCEGI","3R5LWXWHR0UE010DORDQUF3E2FPGXE","","","null","","","","","","","",""
"1025.300000011921","","image-keyboard-response","389","283299","0.0-318.0","3NG53N1RLW5WKXQYA4WNX8WZKNE8PE","A3PLWSCPFLCEGI","3R5LWXWHR0UE010DORDQUF3E2FPGXE","","img/set1/S2.jpg","68","2","structured_incentive","68","true","structured_incentive,random,structured_normal","2,3,1,2","",""
"null","","html-keyboard-response","390","283656","0.0-319.0","3NG53N1RLW5WKXQYA4WNX8WZKNE8PE","A3PLWSCPFLCEGI","3R5LWXWHR0UE010DORDQUF3E2FPGXE","","<img src=""img/set1/S2.jpg"" width=""540"" height = ""360"" style=""border:16px solid orange"">","null","","","","","","","",""
"null","","html-keyboard-response","391","283659","0.0-320.0","3NG53N1RLW5WKXQYA4WNX8WZKNE8PE","A3PLWSCPFLCEGI","3R5LWXWHR0UE010DORDQUF3E2FPGXE","","","null","","","","","","","",""
"730.3000000119209","","image-keyboard-response","392","284390","0.0-321.0","3NG53N1RLW5WKXQYA4WNX8WZKNE8PE","A3PLWSCPFLCEGI","3R5LWXWHR0UE010DORDQUF3E2FPGXE","","img/set1/S3.jpg","72","3","structured_incentive","72","true","structured_incentive,random,structured_normal","2,3,1,2","",""
"null","","html-keyboard-response","393","284747","0.0-322.0","3NG53N1RLW5WKXQYA4WNX8WZKNE8PE","A3PLWSCPFLCEGI","3R5LWXWHR0UE010DORDQUF3E2FPGXE","","<img src=""img/set1/S3.jpg"" width=""540"" height = ""360"" style=""border:16px solid orange"">","null","","","","","","","",""
"null","","html-keyboard-response","394","284749","0.0-323.0","3NG53N1RLW5WKXQYA4WNX8WZKNE8PE","A3PLWSCPFLCEGI","3R5LWXWHR0UE010DORDQUF3E2FPGXE","","","null","","","","","","","",""
"449.9000000357628","","image-keyboard-response","395","285200","0.0-324.0","3NG53N1RLW5WKXQYA4WNX8WZKNE8PE","A3PLWSCPFLCEGI","3R5LWXWHR0UE010DORDQUF3E2FPGXE","","img/set1/S4.jpg","74","4","structured_incentive","74","true","structured_incentive,random,structured_normal","2,3,1,2","",""
"null","","html-keyboard-response","396","285555","0.0-325.0","3NG53N1RLW5WKXQYA4WNX8WZKNE8PE","A3PLWSCPFLCEGI","3R5LWXWHR0UE010DORDQUF3E2FPGXE","","<img src=""img/set1/S4.jpg"" width=""540"" height = ""360"" style=""border:16px solid Violet"">","null","","","","","","","",""
"null","","html-keyboard-response","397","285557","0.0-326.0","3NG53N1RLW5WKXQYA4WNX8WZKNE8PE","A3PLWSCPFLCEGI","3R5LWXWHR0UE010DORDQUF3E2FPGXE","","","null","","","","","","","",""
"417.69999998807907","","image-keyboard-response","398","285976","0.0-327.0","3NG53N1RLW5WKXQYA4WNX8WZKNE8PE","A3PLWSCPFLCEGI","3R5LWXWHR0UE010DORDQUF3E2FPGXE","","img/set1/S4.jpg","74","4","structured_incentive","74","true","structured_incentive,random,structured_normal","2,3,1,2","",""
"null","","html-keyboard-response","399","286328","0.0-328.0","3NG53N1RLW5WKXQYA4WNX8WZKNE8PE","A3PLWSCPFLCEGI","3R5LWXWHR0UE010DORDQUF3E2FPGXE","","<img src=""img/set1/S4.jpg"" width=""540"" height = ""360"" style=""border:16px solid Violet"">","null","","","","","","","",""
"null","","html-keyboard-response","400","286330","0.0-329.0","3NG53N1RLW5WKXQYA4WNX8WZKNE8PE","A3PLWSCPFLCEGI","3R5LWXWHR0UE010DORDQUF3E2FPGXE","","","null","","","","","","","",""
"679.3000000119209","","image-keyboard-response","401","287011","0.0-330.0","3NG53N1RLW5WKXQYA4WNX8WZKNE8PE","A3PLWSCPFLCEGI","3R5LWXWHR0UE010DORDQUF3E2FPGXE","","img/set1/S1.jpg","83","1","structured_incentive","83","true","structured_incentive,random,structured_normal","2,3,1,2","",""
"null","","html-keyboard-response","402","287366","0.0-331.0","3NG53N1RLW5WKXQYA4WNX8WZKNE8PE","A3PLWSCPFLCEGI","3R5LWXWHR0UE010DORDQUF3E2FPGXE","","<img src=""img/set1/S1.jpg"" width=""540"" height = ""360"" style=""border:16px solid orange"">","null","","","","","","","",""
"null","","html-keyboard-response","403","287368","0.0-332.0","3NG53N1RLW5WKXQYA4WNX8WZKNE8PE","A3PLWSCPFLCEGI","3R5LWXWHR0UE010DORDQUF3E2FPGXE","","","null","","","","","","","",""
"721.3999999761581","","image-keyboard-response","404","288091","0.0-333.0","3NG53N1RLW5WKXQYA4WNX8WZKNE8PE","A3PLWSCPFLCEGI","3R5LWXWHR0UE010DORDQUF3E2FPGXE","","img/set1/S4.jpg","74","4","structured_incentive","74","true","structured_incentive,random,structured_normal","2,3,1,2","",""
"null","","html-keyboard-response","405","288448","0.0-334.0","3NG53N1RLW5WKXQYA4WNX8WZKNE8PE","A3PLWSCPFLCEGI","3R5LWXWHR0UE010DORDQUF3E2FPGXE","","<img src=""img/set1/S4.jpg"" width=""540"" height = ""360"" style=""border:16px solid Violet"">","null","","","","","","","",""
"null","","html-keyboard-response","406","288450","0.0-335.0","3NG53N1RLW5WKXQYA4WNX8WZKNE8PE","A3PLWSCPFLCEGI","3R5LWXWHR0UE010DORDQUF3E2FPGXE","","","null","","","","","","","",""
"866.5","","image-keyboard-response","407","289318","0.0-336.0","3NG53N1RLW5WKXQYA4WNX8WZKNE8PE","A3PLWSCPFLCEGI","3R5LWXWHR0UE010DORDQUF3E2FPGXE","","img/set1/S2.jpg","68","2","structured_incentive","68","true","structured_incentive,random,structured_normal","2,3,1,2","",""
"null","","html-keyboard-response","408","289672","0.0-337.0","3NG53N1RLW5WKXQYA4WNX8WZKNE8PE","A3PLWSCPFLCEGI","3R5LWXWHR0UE010DORDQUF3E2FPGXE","","<img src=""img/set1/S2.jpg"" width=""540"" height = ""360"" style=""border:16px solid orange"">","null","","","","","","","",""
"null","","html-keyboard-response","409","289674","0.0-338.0","3NG53N1RLW5WKXQYA4WNX8WZKNE8PE","A3PLWSCPFLCEGI","3R5LWXWHR0UE010DORDQUF3E2FPGXE","","","null","","","","","","","",""
