"rt","url","trial_type","trial_index","time_elapsed","internal_node_id","assignmentID","mturkID","hitID","view_history","stimulus","key_press","state","test_part","correct_response","correct","order_block","order_chunk","bonus","responses"
"2524.699999988079","consent.html","external-html","0","2682","0.0-0.0","3WQQ9FUS6BGUG3PORZEM2ORA3JZB8W","A3QSFE6GKO157S","3XUSYT70ITN3RRKBJPNBFGD6FGOD06","","","","","","","","","","",""
"56618.60000002384","","instructions","1","59284","0.0-1.0","3WQQ9FUS6BGUG3PORZEM2ORA3JZB8W","A3QSFE6GKO157S","3XUSYT70ITN3RRKBJPNBFGD6FGOD06","[{""page_index"":0,""viewing_time"":1695},{""page_index"":1,""viewing_time"":2514.800000011921},{""page_index"":2,""viewing_time"":1979.300000011921},{""page_index"":3,""viewing_time"":36287.799999952316},{""page_index"":4,""viewing_time"":2650.100000023842},{""page_index"":5,""viewing_time"":2573},{""page_index"":6,""viewing_time"":3016.899999976158},{""page_index"":7,""viewing_time"":5901.300000011921}]","","","","","","","","","",""
"830","","image-keyboard-response","2","60116","0.0-2.0-0.0","3WQQ9FUS6BGUG3PORZEM2ORA3JZB8W","A3QSFE6GKO157S","3XUSYT70ITN3RRKBJPNBFGD6FGOD06","","img/practice/S3.jpg","83","3","practice","72","false","","","",""
"null","","html-keyboard-response","3","60428","0.0-2.0-1.0","3WQQ9FUS6BGUG3PORZEM2ORA3JZB8W","A3QSFE6GKO157S","3XUSYT70ITN3RRKBJPNBFGD6FGOD06","","<img src=""img/practice/S3.jpg"" width=""540"" height = ""360"">","null","","","","","","","",""
"null","","html-keyboard-response","4","60431","0.0-2.0-2.0","3WQQ9FUS6BGUG3PORZEM2ORA3JZB8W","A3QSFE6GKO157S","3XUSYT70ITN3RRKBJPNBFGD6FGOD06","","","null","","","","","","","",""
"507.5","","image-keyboard-response","5","60940","0.0-2.0-0.1","3WQQ9FUS6BGUG3PORZEM2ORA3JZB8W","A3QSFE6GKO157S","3XUSYT70ITN3RRKBJPNBFGD6FGOD06","","img/practice/S4.jpg","68","4","practice","74","false","","","",""
"null","","html-keyboard-response","6","61242","0.0-2.0-1.1","3WQQ9FUS6BGUG3PORZEM2ORA3JZB8W","A3QSFE6GKO157S","3XUSYT70ITN3RRKBJPNBFGD6FGOD06","","<img src=""img/practice/S4.jpg"" width=""540"" height = ""360"">","null","","","","","","","",""
"null","","html-keyboard-response","7","61247","0.0-2.0-2.1","3WQQ9FUS6BGUG3PORZEM2ORA3JZB8W","A3QSFE6GKO157S","3XUSYT70ITN3RRKBJPNBFGD6FGOD06","","","null","","","","","","","",""
"603.5999999642372","","image-keyboard-response","8","61851","0.0-2.0-0.2","3WQQ9FUS6BGUG3PORZEM2ORA3JZB8W","A3QSFE6GKO157S","3XUSYT70ITN3RRKBJPNBFGD6FGOD06","","img/practice/S2.jpg","72","2","practice","68","false","","","",""
"null","","html-keyboard-response","9","62153","0.0-2.0-1.2","3WQQ9FUS6BGUG3PORZEM2ORA3JZB8W","A3QSFE6GKO157S","3XUSYT70ITN3RRKBJPNBFGD6FGOD06","","<img src=""img/practice/S2.jpg"" width=""540"" height = ""360"">","null","","","","","","","",""
"null","","html-keyboard-response","10","62156","0.0-2.0-2.2","3WQQ9FUS6BGUG3PORZEM2ORA3JZB8W","A3QSFE6GKO157S","3XUSYT70ITN3RRKBJPNBFGD6FGOD06","","","null","","","","","","","",""
"861.6999999880791","","image-keyboard-response","11","63019","0.0-2.0-0.3","3WQQ9FUS6BGUG3PORZEM2ORA3JZB8W","A3QSFE6GKO157S","3XUSYT70ITN3RRKBJPNBFGD6FGOD06","","img/practice/S1.jpg","74","1","practice","83","false","","","",""
"null","","html-keyboard-response","12","63321","0.0-2.0-1.3","3WQQ9FUS6BGUG3PORZEM2ORA3JZB8W","A3QSFE6GKO157S","3XUSYT70ITN3RRKBJPNBFGD6FGOD06","","<img src=""img/practice/S1.jpg"" width=""540"" height = ""360"">","null","","","","","","","",""
"null","","html-keyboard-response","13","63323","0.0-2.0-2.3","3WQQ9FUS6BGUG3PORZEM2ORA3JZB8W","A3QSFE6GKO157S","3XUSYT70ITN3RRKBJPNBFGD6FGOD06","","","null","","","","","","","",""
"631.3000000119209","","image-keyboard-response","14","63955","0.0-2.0-0.4","3WQQ9FUS6BGUG3PORZEM2ORA3JZB8W","A3QSFE6GKO157S","3XUSYT70ITN3RRKBJPNBFGD6FGOD06","","img/practice/S3.jpg","74","3","practice","72","false","","","",""
"null","","html-keyboard-response","15","64257","0.0-2.0-1.4","3WQQ9FUS6BGUG3PORZEM2ORA3JZB8W","A3QSFE6GKO157S","3XUSYT70ITN3RRKBJPNBFGD6FGOD06","","<img src=""img/practice/S3.jpg"" width=""540"" height = ""360"">","null","","","","","","","",""
"null","","html-keyboard-response","16","64260","0.0-2.0-2.4","3WQQ9FUS6BGUG3PORZEM2ORA3JZB8W","A3QSFE6GKO157S","3XUSYT70ITN3RRKBJPNBFGD6FGOD06","","","null","","","","","","","",""
"406.80000001192093","","image-keyboard-response","17","64667","0.0-2.0-0.5","3WQQ9FUS6BGUG3PORZEM2ORA3JZB8W","A3QSFE6GKO157S","3XUSYT70ITN3RRKBJPNBFGD6FGOD06","","img/practice/S1.jpg","72","1","practice","83","false","","","",""
"null","","html-keyboard-response","18","64968","0.0-2.0-1.5","3WQQ9FUS6BGUG3PORZEM2ORA3JZB8W","A3QSFE6GKO157S","3XUSYT70ITN3RRKBJPNBFGD6FGOD06","","<img src=""img/practice/S1.jpg"" width=""540"" height = ""360"">","null","","","","","","","",""
"null","","html-keyboard-response","19","64971","0.0-2.0-2.5","3WQQ9FUS6BGUG3PORZEM2ORA3JZB8W","A3QSFE6GKO157S","3XUSYT70ITN3RRKBJPNBFGD6FGOD06","","","null","","","","","","","",""
"759.6000000238419","","image-keyboard-response","20","65731","0.0-2.0-0.6","3WQQ9FUS6BGUG3PORZEM2ORA3JZB8W","A3QSFE6GKO157S","3XUSYT70ITN3RRKBJPNBFGD6FGOD06","","img/practice/S2.jpg","83","2","practice","68","false","","","",""
"null","","html-keyboard-response","21","66033","0.0-2.0-1.6","3WQQ9FUS6BGUG3PORZEM2ORA3JZB8W","A3QSFE6GKO157S","3XUSYT70ITN3RRKBJPNBFGD6FGOD06","","<img src=""img/practice/S2.jpg"" width=""540"" height = ""360"">","null","","","","","","","",""
"null","","html-keyboard-response","22","66035","0.0-2.0-2.6","3WQQ9FUS6BGUG3PORZEM2ORA3JZB8W","A3QSFE6GKO157S","3XUSYT70ITN3RRKBJPNBFGD6FGOD06","","","null","","","","","","","",""
"543.5","","image-keyboard-response","23","66579","0.0-2.0-0.7","3WQQ9FUS6BGUG3PORZEM2ORA3JZB8W","A3QSFE6GKO157S","3XUSYT70ITN3RRKBJPNBFGD6FGOD06","","img/practice/S4.jpg","68","4","practice","74","false","","","",""
"null","","html-keyboard-response","24","66880","0.0-2.0-1.7","3WQQ9FUS6BGUG3PORZEM2ORA3JZB8W","A3QSFE6GKO157S","3XUSYT70ITN3RRKBJPNBFGD6FGOD06","","<img src=""img/practice/S4.jpg"" width=""540"" height = ""360"">","null","","","","","","","",""
"null","","html-keyboard-response","25","66883","0.0-2.0-2.7","3WQQ9FUS6BGUG3PORZEM2ORA3JZB8W","A3QSFE6GKO157S","3XUSYT70ITN3RRKBJPNBFGD6FGOD06","","","null","","","","","","","",""
"1008.5","","image-keyboard-response","26","67892","0.0-2.0-0.8","3WQQ9FUS6BGUG3PORZEM2ORA3JZB8W","A3QSFE6GKO157S","3XUSYT70ITN3RRKBJPNBFGD6FGOD06","","img/practice/S3.jpg","83","3","practice","72","false","","","",""
"null","","html-keyboard-response","27","68194","0.0-2.0-1.8","3WQQ9FUS6BGUG3PORZEM2ORA3JZB8W","A3QSFE6GKO157S","3XUSYT70ITN3RRKBJPNBFGD6FGOD06","","<img src=""img/practice/S3.jpg"" width=""540"" height = ""360"">","null","","","","","","","",""
"null","","html-keyboard-response","28","68197","0.0-2.0-2.8","3WQQ9FUS6BGUG3PORZEM2ORA3JZB8W","A3QSFE6GKO157S","3XUSYT70ITN3RRKBJPNBFGD6FGOD06","","","null","","","","","","","",""
"862","","image-keyboard-response","29","69059","0.0-2.0-0.9","3WQQ9FUS6BGUG3PORZEM2ORA3JZB8W","A3QSFE6GKO157S","3XUSYT70ITN3RRKBJPNBFGD6FGOD06","","img/practice/S4.jpg","68","4","practice","74","false","","","",""
"null","","html-keyboard-response","30","69363","0.0-2.0-1.9","3WQQ9FUS6BGUG3PORZEM2ORA3JZB8W","A3QSFE6GKO157S","3XUSYT70ITN3RRKBJPNBFGD6FGOD06","","<img src=""img/practice/S4.jpg"" width=""540"" height = ""360"">","null","","","","","","","",""
"null","","html-keyboard-response","31","69366","0.0-2.0-2.9","3WQQ9FUS6BGUG3PORZEM2ORA3JZB8W","A3QSFE6GKO157S","3XUSYT70ITN3RRKBJPNBFGD6FGOD06","","","null","","","","","","","",""
"956.3000000119209","","image-keyboard-response","32","70324","0.0-2.0-0.10","3WQQ9FUS6BGUG3PORZEM2ORA3JZB8W","A3QSFE6GKO157S","3XUSYT70ITN3RRKBJPNBFGD6FGOD06","","img/practice/S2.jpg","83","2","practice","68","false","","","",""
"null","","html-keyboard-response","33","70626","0.0-2.0-1.10","3WQQ9FUS6BGUG3PORZEM2ORA3JZB8W","A3QSFE6GKO157S","3XUSYT70ITN3RRKBJPNBFGD6FGOD06","","<img src=""img/practice/S2.jpg"" width=""540"" height = ""360"">","null","","","","","","","",""
"null","","html-keyboard-response","34","70628","0.0-2.0-2.10","3WQQ9FUS6BGUG3PORZEM2ORA3JZB8W","A3QSFE6GKO157S","3XUSYT70ITN3RRKBJPNBFGD6FGOD06","","","null","","","","","","","",""
"734.1999999880791","","image-keyboard-response","35","71364","0.0-2.0-0.11","3WQQ9FUS6BGUG3PORZEM2ORA3JZB8W","A3QSFE6GKO157S","3XUSYT70ITN3RRKBJPNBFGD6FGOD06","","img/practice/S1.jpg","74","1","practice","83","false","","","",""
"null","","html-keyboard-response","36","71666","0.0-2.0-1.11","3WQQ9FUS6BGUG3PORZEM2ORA3JZB8W","A3QSFE6GKO157S","3XUSYT70ITN3RRKBJPNBFGD6FGOD06","","<img src=""img/practice/S1.jpg"" width=""540"" height = ""360"">","null","","","","","","","",""
"null","","html-keyboard-response","37","71668","0.0-2.0-2.11","3WQQ9FUS6BGUG3PORZEM2ORA3JZB8W","A3QSFE6GKO157S","3XUSYT70ITN3RRKBJPNBFGD6FGOD06","","","null","","","","","","","",""
"398.5","","image-keyboard-response","38","72067","0.0-2.0-0.12","3WQQ9FUS6BGUG3PORZEM2ORA3JZB8W","A3QSFE6GKO157S","3XUSYT70ITN3RRKBJPNBFGD6FGOD06","","img/practice/S3.jpg","72","3","practice","72","true","","","",""
"null","","html-keyboard-response","39","72368","0.0-2.0-1.12","3WQQ9FUS6BGUG3PORZEM2ORA3JZB8W","A3QSFE6GKO157S","3XUSYT70ITN3RRKBJPNBFGD6FGOD06","","<img src=""img/practice/S3.jpg"" width=""540"" height = ""360"" style=""border:16px solid orange"">","null","","","","","","","",""
"null","","html-keyboard-response","40","72371","0.0-2.0-2.12","3WQQ9FUS6BGUG3PORZEM2ORA3JZB8W","A3QSFE6GKO157S","3XUSYT70ITN3RRKBJPNBFGD6FGOD06","","","null","","","","","","","",""
"1335.699999988079","","image-keyboard-response","41","73707","0.0-2.0-0.13","3WQQ9FUS6BGUG3PORZEM2ORA3JZB8W","A3QSFE6GKO157S","3XUSYT70ITN3RRKBJPNBFGD6FGOD06","","img/practice/S4.jpg","83","4","practice","74","false","","","",""
"null","","html-keyboard-response","42","74016","0.0-2.0-1.13","3WQQ9FUS6BGUG3PORZEM2ORA3JZB8W","A3QSFE6GKO157S","3XUSYT70ITN3RRKBJPNBFGD6FGOD06","","<img src=""img/practice/S4.jpg"" width=""540"" height = ""360"">","null","","","","","","","",""
"null","","html-keyboard-response","43","74018","0.0-2.0-2.13","3WQQ9FUS6BGUG3PORZEM2ORA3JZB8W","A3QSFE6GKO157S","3XUSYT70ITN3RRKBJPNBFGD6FGOD06","","","null","","","","","","","",""
"448.10000002384186","","image-keyboard-response","44","74467","0.0-2.0-0.14","3WQQ9FUS6BGUG3PORZEM2ORA3JZB8W","A3QSFE6GKO157S","3XUSYT70ITN3RRKBJPNBFGD6FGOD06","","img/practice/S2.jpg","68","2","practice","68","true","","","",""
"null","","html-keyboard-response","45","74774","0.0-2.0-1.14","3WQQ9FUS6BGUG3PORZEM2ORA3JZB8W","A3QSFE6GKO157S","3XUSYT70ITN3RRKBJPNBFGD6FGOD06","","<img src=""img/practice/S2.jpg"" width=""540"" height = ""360"" style=""border:16px solid orange"">","null","","","","","","","",""
"null","","html-keyboard-response","46","74777","0.0-2.0-2.14","3WQQ9FUS6BGUG3PORZEM2ORA3JZB8W","A3QSFE6GKO157S","3XUSYT70ITN3RRKBJPNBFGD6FGOD06","","","null","","","","","","","",""
"1562.199999988079","","image-keyboard-response","47","76340","0.0-2.0-0.15","3WQQ9FUS6BGUG3PORZEM2ORA3JZB8W","A3QSFE6GKO157S","3XUSYT70ITN3RRKBJPNBFGD6FGOD06","","img/practice/S1.jpg","74","1","practice","83","false","","","",""
"null","","html-keyboard-response","48","76641","0.0-2.0-1.15","3WQQ9FUS6BGUG3PORZEM2ORA3JZB8W","A3QSFE6GKO157S","3XUSYT70ITN3RRKBJPNBFGD6FGOD06","","<img src=""img/practice/S1.jpg"" width=""540"" height = ""360"">","null","","","","","","","",""
"null","","html-keyboard-response","49","76644","0.0-2.0-2.15","3WQQ9FUS6BGUG3PORZEM2ORA3JZB8W","A3QSFE6GKO157S","3XUSYT70ITN3RRKBJPNBFGD6FGOD06","","","null","","","","","","","",""
"790.6999999880791","","image-keyboard-response","50","77436","0.0-2.0-0.16","3WQQ9FUS6BGUG3PORZEM2ORA3JZB8W","A3QSFE6GKO157S","3XUSYT70ITN3RRKBJPNBFGD6FGOD06","","img/practice/S2.jpg","68","2","practice","68","true","","","",""
"null","","html-keyboard-response","51","77738","0.0-2.0-1.16","3WQQ9FUS6BGUG3PORZEM2ORA3JZB8W","A3QSFE6GKO157S","3XUSYT70ITN3RRKBJPNBFGD6FGOD06","","<img src=""img/practice/S2.jpg"" width=""540"" height = ""360"" style=""border:16px solid orange"">","null","","","","","","","",""
"null","","html-keyboard-response","52","77740","0.0-2.0-2.16","3WQQ9FUS6BGUG3PORZEM2ORA3JZB8W","A3QSFE6GKO157S","3XUSYT70ITN3RRKBJPNBFGD6FGOD06","","","null","","","","","","","",""
"494.19999998807907","","image-keyboard-response","53","78236","0.0-2.0-0.17","3WQQ9FUS6BGUG3PORZEM2ORA3JZB8W","A3QSFE6GKO157S","3XUSYT70ITN3RRKBJPNBFGD6FGOD06","","img/practice/S1.jpg","72","1","practice","83","false","","","",""
"null","","html-keyboard-response","54","78537","0.0-2.0-1.17","3WQQ9FUS6BGUG3PORZEM2ORA3JZB8W","A3QSFE6GKO157S","3XUSYT70ITN3RRKBJPNBFGD6FGOD06","","<img src=""img/practice/S1.jpg"" width=""540"" height = ""360"">","null","","","","","","","",""
"null","","html-keyboard-response","55","78539","0.0-2.0-2.17","3WQQ9FUS6BGUG3PORZEM2ORA3JZB8W","A3QSFE6GKO157S","3XUSYT70ITN3RRKBJPNBFGD6FGOD06","","","null","","","","","","","",""
"623","","image-keyboard-response","56","79163","0.0-2.0-0.18","3WQQ9FUS6BGUG3PORZEM2ORA3JZB8W","A3QSFE6GKO157S","3XUSYT70ITN3RRKBJPNBFGD6FGOD06","","img/practice/S3.jpg","72","3","practice","72","true","","","",""
"null","","html-keyboard-response","57","79478","0.0-2.0-1.18","3WQQ9FUS6BGUG3PORZEM2ORA3JZB8W","A3QSFE6GKO157S","3XUSYT70ITN3RRKBJPNBFGD6FGOD06","","<img src=""img/practice/S3.jpg"" width=""540"" height = ""360"" style=""border:16px solid orange"">","null","","","","","","","",""
"null","","html-keyboard-response","58","79481","0.0-2.0-2.18","3WQQ9FUS6BGUG3PORZEM2ORA3JZB8W","A3QSFE6GKO157S","3XUSYT70ITN3RRKBJPNBFGD6FGOD06","","","null","","","","","","","",""
"865.5999999642372","","image-keyboard-response","59","80347","0.0-2.0-0.19","3WQQ9FUS6BGUG3PORZEM2ORA3JZB8W","A3QSFE6GKO157S","3XUSYT70ITN3RRKBJPNBFGD6FGOD06","","img/practice/S4.jpg","83","4","practice","74","false","","","",""
"null","","html-keyboard-response","60","80649","0.0-2.0-1.19","3WQQ9FUS6BGUG3PORZEM2ORA3JZB8W","A3QSFE6GKO157S","3XUSYT70ITN3RRKBJPNBFGD6FGOD06","","<img src=""img/practice/S4.jpg"" width=""540"" height = ""360"">","null","","","","","","","",""
"null","","html-keyboard-response","61","80652","0.0-2.0-2.19","3WQQ9FUS6BGUG3PORZEM2ORA3JZB8W","A3QSFE6GKO157S","3XUSYT70ITN3RRKBJPNBFGD6FGOD06","","","null","","","","","","","",""
"1311","","image-keyboard-response","62","81963","0.0-2.0-0.20","3WQQ9FUS6BGUG3PORZEM2ORA3JZB8W","A3QSFE6GKO157S","3XUSYT70ITN3RRKBJPNBFGD6FGOD06","","img/practice/S2.jpg","83","2","practice","68","false","","","",""
"null","","html-keyboard-response","63","82268","0.0-2.0-1.20","3WQQ9FUS6BGUG3PORZEM2ORA3JZB8W","A3QSFE6GKO157S","3XUSYT70ITN3RRKBJPNBFGD6FGOD06","","<img src=""img/practice/S2.jpg"" width=""540"" height = ""360"">","null","","","","","","","",""
"null","","html-keyboard-response","64","82271","0.0-2.0-2.20","3WQQ9FUS6BGUG3PORZEM2ORA3JZB8W","A3QSFE6GKO157S","3XUSYT70ITN3RRKBJPNBFGD6FGOD06","","","null","","","","","","","",""
"843.5999999642372","","image-keyboard-response","65","83116","0.0-2.0-0.21","3WQQ9FUS6BGUG3PORZEM2ORA3JZB8W","A3QSFE6GKO157S","3XUSYT70ITN3RRKBJPNBFGD6FGOD06","","img/practice/S4.jpg","74","4","practice","74","true","","","",""
"null","","html-keyboard-response","66","83417","0.0-2.0-1.21","3WQQ9FUS6BGUG3PORZEM2ORA3JZB8W","A3QSFE6GKO157S","3XUSYT70ITN3RRKBJPNBFGD6FGOD06","","<img src=""img/practice/S4.jpg"" width=""540"" height = ""360"" style=""border:16px solid orange"">","null","","","","","","","",""
"null","","html-keyboard-response","67","83420","0.0-2.0-2.21","3WQQ9FUS6BGUG3PORZEM2ORA3JZB8W","A3QSFE6GKO157S","3XUSYT70ITN3RRKBJPNBFGD6FGOD06","","","null","","","","","","","",""
"870.9000000357628","","image-keyboard-response","68","84292","0.0-2.0-0.22","3WQQ9FUS6BGUG3PORZEM2ORA3JZB8W","A3QSFE6GKO157S","3XUSYT70ITN3RRKBJPNBFGD6FGOD06","","img/practice/S1.jpg","72","1","practice","83","false","","","",""
"null","","html-keyboard-response","69","84593","0.0-2.0-1.22","3WQQ9FUS6BGUG3PORZEM2ORA3JZB8W","A3QSFE6GKO157S","3XUSYT70ITN3RRKBJPNBFGD6FGOD06","","<img src=""img/practice/S1.jpg"" width=""540"" height = ""360"">","null","","","","","","","",""
"null","","html-keyboard-response","70","84597","0.0-2.0-2.22","3WQQ9FUS6BGUG3PORZEM2ORA3JZB8W","A3QSFE6GKO157S","3XUSYT70ITN3RRKBJPNBFGD6FGOD06","","","null","","","","","","","",""
"782.3999999761581","","image-keyboard-response","71","85380","0.0-2.0-0.23","3WQQ9FUS6BGUG3PORZEM2ORA3JZB8W","A3QSFE6GKO157S","3XUSYT70ITN3RRKBJPNBFGD6FGOD06","","img/practice/S3.jpg","72","3","practice","72","true","","","",""
"null","","html-keyboard-response","72","85682","0.0-2.0-1.23","3WQQ9FUS6BGUG3PORZEM2ORA3JZB8W","A3QSFE6GKO157S","3XUSYT70ITN3RRKBJPNBFGD6FGOD06","","<img src=""img/practice/S3.jpg"" width=""540"" height = ""360"" style=""border:16px solid orange"">","null","","","","","","","",""
"null","","html-keyboard-response","73","85684","0.0-2.0-2.23","3WQQ9FUS6BGUG3PORZEM2ORA3JZB8W","A3QSFE6GKO157S","3XUSYT70ITN3RRKBJPNBFGD6FGOD06","","","null","","","","","","","",""
"2569.899999976158","","instructions","74","88254","0.0-3.0","3WQQ9FUS6BGUG3PORZEM2ORA3JZB8W","A3QSFE6GKO157S","3XUSYT70ITN3RRKBJPNBFGD6FGOD06","[{""page_index"":0,""viewing_time"":2569.699999988079}]","","","","","","","","","",""
"3378.800000011921","","instructions","75","91634","0.0-4.0","3WQQ9FUS6BGUG3PORZEM2ORA3JZB8W","A3QSFE6GKO157S","3XUSYT70ITN3RRKBJPNBFGD6FGOD06","[{""page_index"":0,""viewing_time"":3378.5}]","","","","","","","","","",""
"4051.099999964237","","instructions","76","95685","0.0-5.0","3WQQ9FUS6BGUG3PORZEM2ORA3JZB8W","A3QSFE6GKO157S","3XUSYT70ITN3RRKBJPNBFGD6FGOD06","[{""page_index"":0,""viewing_time"":4050.899999976158}]","","","","","","","","","",""
"757.3999999761581","","image-keyboard-response","77","96444","0.0-6.0","3WQQ9FUS6BGUG3PORZEM2ORA3JZB8W","A3QSFE6GKO157S","3XUSYT70ITN3RRKBJPNBFGD6FGOD06","","img/set1/S2.jpg","83","2","structured_normal","68","false","structured_normal,structured_incentive,random","2,3,1,2","",""
"null","","html-keyboard-response","78","96810","0.0-7.0","3WQQ9FUS6BGUG3PORZEM2ORA3JZB8W","A3QSFE6GKO157S","3XUSYT70ITN3RRKBJPNBFGD6FGOD06","","<img src=""img/set1/S2.jpg"" width=""540"" height = ""360"">","null","","","","","","","",""
"null","","html-keyboard-response","79","96813","0.0-8.0","3WQQ9FUS6BGUG3PORZEM2ORA3JZB8W","A3QSFE6GKO157S","3XUSYT70ITN3RRKBJPNBFGD6FGOD06","","","null","","","","","","","",""
"885.8999999761581","","image-keyboard-response","80","97700","0.0-9.0","3WQQ9FUS6BGUG3PORZEM2ORA3JZB8W","A3QSFE6GKO157S","3XUSYT70ITN3RRKBJPNBFGD6FGOD06","","img/set1/S3.jpg","83","3","structured_normal","72","false","structured_normal,structured_incentive,random","2,3,1,2","",""
"null","","html-keyboard-response","81","98051","0.0-10.0","3WQQ9FUS6BGUG3PORZEM2ORA3JZB8W","A3QSFE6GKO157S","3XUSYT70ITN3RRKBJPNBFGD6FGOD06","","<img src=""img/set1/S3.jpg"" width=""540"" height = ""360"">","null","","","","","","","",""
"null","","html-keyboard-response","82","98054","0.0-11.0","3WQQ9FUS6BGUG3PORZEM2ORA3JZB8W","A3QSFE6GKO157S","3XUSYT70ITN3RRKBJPNBFGD6FGOD06","","","null","","","","","","","",""
"588.6000000238419","","image-keyboard-response","83","98643","0.0-12.0","3WQQ9FUS6BGUG3PORZEM2ORA3JZB8W","A3QSFE6GKO157S","3XUSYT70ITN3RRKBJPNBFGD6FGOD06","","img/set1/S1.jpg","83","1","structured_normal","83","true","structured_normal,structured_incentive,random","2,3,1,2","",""
"null","","html-keyboard-response","84","98995","0.0-13.0","3WQQ9FUS6BGUG3PORZEM2ORA3JZB8W","A3QSFE6GKO157S","3XUSYT70ITN3RRKBJPNBFGD6FGOD06","","<img src=""img/set1/S1.jpg"" width=""540"" height = ""360"" style=""border:16px solid orange"">","null","","","","","","","",""
"null","","html-keyboard-response","85","98998","0.0-14.0","3WQQ9FUS6BGUG3PORZEM2ORA3JZB8W","A3QSFE6GKO157S","3XUSYT70ITN3RRKBJPNBFGD6FGOD06","","","null","","","","","","","",""
"708.9000000357628","","image-keyboard-response","86","99707","0.0-15.0","3WQQ9FUS6BGUG3PORZEM2ORA3JZB8W","A3QSFE6GKO157S","3XUSYT70ITN3RRKBJPNBFGD6FGOD06","","img/set1/S2.jpg","68","2","structured_normal","68","true","structured_normal,structured_incentive,random","2,3,1,2","",""
"null","","html-keyboard-response","87","100059","0.0-16.0","3WQQ9FUS6BGUG3PORZEM2ORA3JZB8W","A3QSFE6GKO157S","3XUSYT70ITN3RRKBJPNBFGD6FGOD06","","<img src=""img/set1/S2.jpg"" width=""540"" height = ""360"" style=""border:16px solid orange"">","null","","","","","","","",""
"null","","html-keyboard-response","88","100062","0.0-17.0","3WQQ9FUS6BGUG3PORZEM2ORA3JZB8W","A3QSFE6GKO157S","3XUSYT70ITN3RRKBJPNBFGD6FGOD06","","","null","","","","","","","",""
"765.0999999642372","","image-keyboard-response","89","100828","0.0-18.0","3WQQ9FUS6BGUG3PORZEM2ORA3JZB8W","A3QSFE6GKO157S","3XUSYT70ITN3RRKBJPNBFGD6FGOD06","","img/set1/S3.jpg","72","3","structured_normal","72","true","structured_normal,structured_incentive,random","2,3,1,2","",""
"null","","html-keyboard-response","90","101179","0.0-19.0","3WQQ9FUS6BGUG3PORZEM2ORA3JZB8W","A3QSFE6GKO157S","3XUSYT70ITN3RRKBJPNBFGD6FGOD06","","<img src=""img/set1/S3.jpg"" width=""540"" height = ""360"" style=""border:16px solid orange"">","null","","","","","","","",""
"null","","html-keyboard-response","91","101182","0.0-20.0","3WQQ9FUS6BGUG3PORZEM2ORA3JZB8W","A3QSFE6GKO157S","3XUSYT70ITN3RRKBJPNBFGD6FGOD06","","","null","","","","","","","",""
"1236.1000000238419","","image-keyboard-response","92","102419","0.0-21.0","3WQQ9FUS6BGUG3PORZEM2ORA3JZB8W","A3QSFE6GKO157S","3XUSYT70ITN3RRKBJPNBFGD6FGOD06","","img/set1/S1.jpg","68","1","structured_normal","83","false","structured_normal,structured_incentive,random","2,3,1,2","",""
"null","","html-keyboard-response","93","102771","0.0-22.0","3WQQ9FUS6BGUG3PORZEM2ORA3JZB8W","A3QSFE6GKO157S","3XUSYT70ITN3RRKBJPNBFGD6FGOD06","","<img src=""img/set1/S1.jpg"" width=""540"" height = ""360"">","null","","","","","","","",""
"null","","html-keyboard-response","94","102773","0.0-23.0","3WQQ9FUS6BGUG3PORZEM2ORA3JZB8W","A3QSFE6GKO157S","3XUSYT70ITN3RRKBJPNBFGD6FGOD06","","","null","","","","","","","",""
"605.4000000357628","","image-keyboard-response","95","103379","0.0-24.0","3WQQ9FUS6BGUG3PORZEM2ORA3JZB8W","A3QSFE6GKO157S","3XUSYT70ITN3RRKBJPNBFGD6FGOD06","","img/set1/S4.jpg","74","4","structured_normal","74","true","structured_normal,structured_incentive,random","2,3,1,2","",""
"null","","html-keyboard-response","96","103732","0.0-25.0","3WQQ9FUS6BGUG3PORZEM2ORA3JZB8W","A3QSFE6GKO157S","3XUSYT70ITN3RRKBJPNBFGD6FGOD06","","<img src=""img/set1/S4.jpg"" width=""540"" height = ""360"" style=""border:16px solid orange"">","null","","","","","","","",""
"null","","html-keyboard-response","97","103735","0.0-26.0","3WQQ9FUS6BGUG3PORZEM2ORA3JZB8W","A3QSFE6GKO157S","3XUSYT70ITN3RRKBJPNBFGD6FGOD06","","","null","","","","","","","",""
"779.8999999761581","","image-keyboard-response","98","104515","0.0-27.0","3WQQ9FUS6BGUG3PORZEM2ORA3JZB8W","A3QSFE6GKO157S","3XUSYT70ITN3RRKBJPNBFGD6FGOD06","","img/set1/S3.jpg","68","3","structured_normal","72","false","structured_normal,structured_incentive,random","2,3,1,2","",""
"null","","html-keyboard-response","99","104867","0.0-28.0","3WQQ9FUS6BGUG3PORZEM2ORA3JZB8W","A3QSFE6GKO157S","3XUSYT70ITN3RRKBJPNBFGD6FGOD06","","<img src=""img/set1/S3.jpg"" width=""540"" height = ""360"">","null","","","","","","","",""
"null","","html-keyboard-response","100","104869","0.0-29.0","3WQQ9FUS6BGUG3PORZEM2ORA3JZB8W","A3QSFE6GKO157S","3XUSYT70ITN3RRKBJPNBFGD6FGOD06","","","null","","","","","","","",""
"829.3000000119209","","image-keyboard-response","101","105699","0.0-30.0","3WQQ9FUS6BGUG3PORZEM2ORA3JZB8W","A3QSFE6GKO157S","3XUSYT70ITN3RRKBJPNBFGD6FGOD06","","img/set1/S1.jpg","83","1","structured_normal","83","true","structured_normal,structured_incentive,random","2,3,1,2","",""
"null","","html-keyboard-response","102","106051","0.0-31.0","3WQQ9FUS6BGUG3PORZEM2ORA3JZB8W","A3QSFE6GKO157S","3XUSYT70ITN3RRKBJPNBFGD6FGOD06","","<img src=""img/set1/S1.jpg"" width=""540"" height = ""360"" style=""border:16px solid orange"">","null","","","","","","","",""
"null","","html-keyboard-response","103","106053","0.0-32.0","3WQQ9FUS6BGUG3PORZEM2ORA3JZB8W","A3QSFE6GKO157S","3XUSYT70ITN3RRKBJPNBFGD6FGOD06","","","null","","","","","","","",""
"861.3000000119209","","image-keyboard-response","104","106916","0.0-33.0","3WQQ9FUS6BGUG3PORZEM2ORA3JZB8W","A3QSFE6GKO157S","3XUSYT70ITN3RRKBJPNBFGD6FGOD06","","img/set1/S2.jpg","68","2","structured_normal","68","true","structured_normal,structured_incentive,random","2,3,1,2","",""
"null","","html-keyboard-response","105","107267","0.0-34.0","3WQQ9FUS6BGUG3PORZEM2ORA3JZB8W","A3QSFE6GKO157S","3XUSYT70ITN3RRKBJPNBFGD6FGOD06","","<img src=""img/set1/S2.jpg"" width=""540"" height = ""360"" style=""border:16px solid orange"">","null","","","","","","","",""
"null","","html-keyboard-response","106","107270","0.0-35.0","3WQQ9FUS6BGUG3PORZEM2ORA3JZB8W","A3QSFE6GKO157S","3XUSYT70ITN3RRKBJPNBFGD6FGOD06","","","null","","","","","","","",""
"893.1999999880791","","image-keyboard-response","107","108163","0.0-36.0","3WQQ9FUS6BGUG3PORZEM2ORA3JZB8W","A3QSFE6GKO157S","3XUSYT70ITN3RRKBJPNBFGD6FGOD06","","img/set1/S3.jpg","72","3","structured_normal","72","true","structured_normal,structured_incentive,random","2,3,1,2","",""
"null","","html-keyboard-response","108","108516","0.0-37.0","3WQQ9FUS6BGUG3PORZEM2ORA3JZB8W","A3QSFE6GKO157S","3XUSYT70ITN3RRKBJPNBFGD6FGOD06","","<img src=""img/set1/S3.jpg"" width=""540"" height = ""360"" style=""border:16px solid orange"">","null","","","","","","","",""
"null","","html-keyboard-response","109","108518","0.0-38.0","3WQQ9FUS6BGUG3PORZEM2ORA3JZB8W","A3QSFE6GKO157S","3XUSYT70ITN3RRKBJPNBFGD6FGOD06","","","null","","","","","","","",""
"556.8000000119209","","image-keyboard-response","110","109076","0.0-39.0","3WQQ9FUS6BGUG3PORZEM2ORA3JZB8W","A3QSFE6GKO157S","3XUSYT70ITN3RRKBJPNBFGD6FGOD06","","img/set1/S4.jpg","74","4","structured_normal","74","true","structured_normal,structured_incentive,random","2,3,1,2","",""
"null","","html-keyboard-response","111","109427","0.0-40.0","3WQQ9FUS6BGUG3PORZEM2ORA3JZB8W","A3QSFE6GKO157S","3XUSYT70ITN3RRKBJPNBFGD6FGOD06","","<img src=""img/set1/S4.jpg"" width=""540"" height = ""360"" style=""border:16px solid orange"">","null","","","","","","","",""
"null","","html-keyboard-response","112","109430","0.0-41.0","3WQQ9FUS6BGUG3PORZEM2ORA3JZB8W","A3QSFE6GKO157S","3XUSYT70ITN3RRKBJPNBFGD6FGOD06","","","null","","","","","","","",""
"660.5","","image-keyboard-response","113","110091","0.0-42.0","3WQQ9FUS6BGUG3PORZEM2ORA3JZB8W","A3QSFE6GKO157S","3XUSYT70ITN3RRKBJPNBFGD6FGOD06","","img/set1/S1.jpg","83","1","structured_normal","83","true","structured_normal,structured_incentive,random","2,3,1,2","",""
"null","","html-keyboard-response","114","110444","0.0-43.0","3WQQ9FUS6BGUG3PORZEM2ORA3JZB8W","A3QSFE6GKO157S","3XUSYT70ITN3RRKBJPNBFGD6FGOD06","","<img src=""img/set1/S1.jpg"" width=""540"" height = ""360"" style=""border:16px solid orange"">","null","","","","","","","",""
"null","","html-keyboard-response","115","110447","0.0-44.0","3WQQ9FUS6BGUG3PORZEM2ORA3JZB8W","A3QSFE6GKO157S","3XUSYT70ITN3RRKBJPNBFGD6FGOD06","","","null","","","","","","","",""
"843.6999999880791","","image-keyboard-response","116","111292","0.0-45.0","3WQQ9FUS6BGUG3PORZEM2ORA3JZB8W","A3QSFE6GKO157S","3XUSYT70ITN3RRKBJPNBFGD6FGOD06","","img/set1/S2.jpg","68","2","structured_normal","68","true","structured_normal,structured_incentive,random","2,3,1,2","",""
"null","","html-keyboard-response","117","111644","0.0-46.0","3WQQ9FUS6BGUG3PORZEM2ORA3JZB8W","A3QSFE6GKO157S","3XUSYT70ITN3RRKBJPNBFGD6FGOD06","","<img src=""img/set1/S2.jpg"" width=""540"" height = ""360"" style=""border:16px solid orange"">","null","","","","","","","",""
"null","","html-keyboard-response","118","111646","0.0-47.0","3WQQ9FUS6BGUG3PORZEM2ORA3JZB8W","A3QSFE6GKO157S","3XUSYT70ITN3RRKBJPNBFGD6FGOD06","","","null","","","","","","","",""
"516.5999999642372","","image-keyboard-response","119","112163","0.0-48.0","3WQQ9FUS6BGUG3PORZEM2ORA3JZB8W","A3QSFE6GKO157S","3XUSYT70ITN3RRKBJPNBFGD6FGOD06","","img/set1/S3.jpg","72","3","structured_normal","72","true","structured_normal,structured_incentive,random","2,3,1,2","",""
"null","","html-keyboard-response","120","112515","0.0-49.0","3WQQ9FUS6BGUG3PORZEM2ORA3JZB8W","A3QSFE6GKO157S","3XUSYT70ITN3RRKBJPNBFGD6FGOD06","","<img src=""img/set1/S3.jpg"" width=""540"" height = ""360"" style=""border:16px solid orange"">","null","","","","","","","",""
"null","","html-keyboard-response","121","112518","0.0-50.0","3WQQ9FUS6BGUG3PORZEM2ORA3JZB8W","A3QSFE6GKO157S","3XUSYT70ITN3RRKBJPNBFGD6FGOD06","","","null","","","","","","","",""
"421.5","","image-keyboard-response","122","112940","0.0-51.0","3WQQ9FUS6BGUG3PORZEM2ORA3JZB8W","A3QSFE6GKO157S","3XUSYT70ITN3RRKBJPNBFGD6FGOD06","","img/set1/S4.jpg","74","4","structured_normal","74","true","structured_normal,structured_incentive,random","2,3,1,2","",""
"null","","html-keyboard-response","123","113292","0.0-52.0","3WQQ9FUS6BGUG3PORZEM2ORA3JZB8W","A3QSFE6GKO157S","3XUSYT70ITN3RRKBJPNBFGD6FGOD06","","<img src=""img/set1/S4.jpg"" width=""540"" height = ""360"" style=""border:16px solid orange"">","null","","","","","","","",""
"null","","html-keyboard-response","124","113294","0.0-53.0","3WQQ9FUS6BGUG3PORZEM2ORA3JZB8W","A3QSFE6GKO157S","3XUSYT70ITN3RRKBJPNBFGD6FGOD06","","","null","","","","","","","",""
"948.1000000238419","","image-keyboard-response","125","114243","0.0-54.0","3WQQ9FUS6BGUG3PORZEM2ORA3JZB8W","A3QSFE6GKO157S","3XUSYT70ITN3RRKBJPNBFGD6FGOD06","","img/set1/S2.jpg","68","2","structured_normal","68","true","structured_normal,structured_incentive,random","2,3,1,2","",""
"null","","html-keyboard-response","126","114607","0.0-55.0","3WQQ9FUS6BGUG3PORZEM2ORA3JZB8W","A3QSFE6GKO157S","3XUSYT70ITN3RRKBJPNBFGD6FGOD06","","<img src=""img/set1/S2.jpg"" width=""540"" height = ""360"" style=""border:16px solid orange"">","null","","","","","","","",""
"null","","html-keyboard-response","127","114609","0.0-56.0","3WQQ9FUS6BGUG3PORZEM2ORA3JZB8W","A3QSFE6GKO157S","3XUSYT70ITN3RRKBJPNBFGD6FGOD06","","","null","","","","","","","",""
"921","","image-keyboard-response","128","115532","0.0-57.0","3WQQ9FUS6BGUG3PORZEM2ORA3JZB8W","A3QSFE6GKO157S","3XUSYT70ITN3RRKBJPNBFGD6FGOD06","","img/set1/S3.jpg","72","3","structured_normal","72","true","structured_normal,structured_incentive,random","2,3,1,2","",""
"null","","html-keyboard-response","129","115888","0.0-58.0","3WQQ9FUS6BGUG3PORZEM2ORA3JZB8W","A3QSFE6GKO157S","3XUSYT70ITN3RRKBJPNBFGD6FGOD06","","<img src=""img/set1/S3.jpg"" width=""540"" height = ""360"" style=""border:16px solid orange"">","null","","","","","","","",""
"null","","html-keyboard-response","130","115891","0.0-59.0","3WQQ9FUS6BGUG3PORZEM2ORA3JZB8W","A3QSFE6GKO157S","3XUSYT70ITN3RRKBJPNBFGD6FGOD06","","","null","","","","","","","",""
"655.1999999880791","","image-keyboard-response","131","116548","0.0-60.0","3WQQ9FUS6BGUG3PORZEM2ORA3JZB8W","A3QSFE6GKO157S","3XUSYT70ITN3RRKBJPNBFGD6FGOD06","","img/set1/S4.jpg","74","4","structured_normal","74","true","structured_normal,structured_incentive,random","2,3,1,2","",""
"null","","html-keyboard-response","132","116900","0.0-61.0","3WQQ9FUS6BGUG3PORZEM2ORA3JZB8W","A3QSFE6GKO157S","3XUSYT70ITN3RRKBJPNBFGD6FGOD06","","<img src=""img/set1/S4.jpg"" width=""540"" height = ""360"" style=""border:16px solid orange"">","null","","","","","","","",""
"null","","html-keyboard-response","133","116902","0.0-62.0","3WQQ9FUS6BGUG3PORZEM2ORA3JZB8W","A3QSFE6GKO157S","3XUSYT70ITN3RRKBJPNBFGD6FGOD06","","","null","","","","","","","",""
"596.5","","image-keyboard-response","134","117499","0.0-63.0","3WQQ9FUS6BGUG3PORZEM2ORA3JZB8W","A3QSFE6GKO157S","3XUSYT70ITN3RRKBJPNBFGD6FGOD06","","img/set1/S4.jpg","74","4","structured_normal","74","true","structured_normal,structured_incentive,random","2,3,1,2","",""
"null","","html-keyboard-response","135","117852","0.0-64.0","3WQQ9FUS6BGUG3PORZEM2ORA3JZB8W","A3QSFE6GKO157S","3XUSYT70ITN3RRKBJPNBFGD6FGOD06","","<img src=""img/set1/S4.jpg"" width=""540"" height = ""360"" style=""border:16px solid orange"">","null","","","","","","","",""
"null","","html-keyboard-response","136","117854","0.0-65.0","3WQQ9FUS6BGUG3PORZEM2ORA3JZB8W","A3QSFE6GKO157S","3XUSYT70ITN3RRKBJPNBFGD6FGOD06","","","null","","","","","","","",""
"436.5999999642372","","image-keyboard-response","137","118292","0.0-66.0","3WQQ9FUS6BGUG3PORZEM2ORA3JZB8W","A3QSFE6GKO157S","3XUSYT70ITN3RRKBJPNBFGD6FGOD06","","img/set1/S4.jpg","74","4","structured_normal","74","true","structured_normal,structured_incentive,random","2,3,1,2","",""
"null","","html-keyboard-response","138","118663","0.0-67.0","3WQQ9FUS6BGUG3PORZEM2ORA3JZB8W","A3QSFE6GKO157S","3XUSYT70ITN3RRKBJPNBFGD6FGOD06","","<img src=""img/set1/S4.jpg"" width=""540"" height = ""360"" style=""border:16px solid orange"">","null","","","","","","","",""
"null","","html-keyboard-response","139","118665","0.0-68.0","3WQQ9FUS6BGUG3PORZEM2ORA3JZB8W","A3QSFE6GKO157S","3XUSYT70ITN3RRKBJPNBFGD6FGOD06","","","null","","","","","","","",""
"653.1000000238419","","image-keyboard-response","140","119319","0.0-69.0","3WQQ9FUS6BGUG3PORZEM2ORA3JZB8W","A3QSFE6GKO157S","3XUSYT70ITN3RRKBJPNBFGD6FGOD06","","img/set1/S1.jpg","83","1","structured_normal","83","true","structured_normal,structured_incentive,random","2,3,1,2","",""
"null","","html-keyboard-response","141","119671","0.0-70.0","3WQQ9FUS6BGUG3PORZEM2ORA3JZB8W","A3QSFE6GKO157S","3XUSYT70ITN3RRKBJPNBFGD6FGOD06","","<img src=""img/set1/S1.jpg"" width=""540"" height = ""360"" style=""border:16px solid orange"">","null","","","","","","","",""
"null","","html-keyboard-response","142","119673","0.0-71.0","3WQQ9FUS6BGUG3PORZEM2ORA3JZB8W","A3QSFE6GKO157S","3XUSYT70ITN3RRKBJPNBFGD6FGOD06","","","null","","","","","","","",""
"532.3999999761581","","image-keyboard-response","143","120207","0.0-72.0","3WQQ9FUS6BGUG3PORZEM2ORA3JZB8W","A3QSFE6GKO157S","3XUSYT70ITN3RRKBJPNBFGD6FGOD06","","img/set1/S1.jpg","83","1","structured_normal","83","true","structured_normal,structured_incentive,random","2,3,1,2","",""
"null","","html-keyboard-response","144","120559","0.0-73.0","3WQQ9FUS6BGUG3PORZEM2ORA3JZB8W","A3QSFE6GKO157S","3XUSYT70ITN3RRKBJPNBFGD6FGOD06","","<img src=""img/set1/S1.jpg"" width=""540"" height = ""360"" style=""border:16px solid orange"">","null","","","","","","","",""
"null","","html-keyboard-response","145","120561","0.0-74.0","3WQQ9FUS6BGUG3PORZEM2ORA3JZB8W","A3QSFE6GKO157S","3XUSYT70ITN3RRKBJPNBFGD6FGOD06","","","null","","","","","","","",""
"429.19999998807907","","image-keyboard-response","146","120991","0.0-75.0","3WQQ9FUS6BGUG3PORZEM2ORA3JZB8W","A3QSFE6GKO157S","3XUSYT70ITN3RRKBJPNBFGD6FGOD06","","img/set1/S2.jpg","68","2","structured_normal","68","true","structured_normal,structured_incentive,random","2,3,1,2","",""
"null","","html-keyboard-response","147","121344","0.0-76.0","3WQQ9FUS6BGUG3PORZEM2ORA3JZB8W","A3QSFE6GKO157S","3XUSYT70ITN3RRKBJPNBFGD6FGOD06","","<img src=""img/set1/S2.jpg"" width=""540"" height = ""360"" style=""border:16px solid orange"">","null","","","","","","","",""
"null","","html-keyboard-response","148","121346","0.0-77.0","3WQQ9FUS6BGUG3PORZEM2ORA3JZB8W","A3QSFE6GKO157S","3XUSYT70ITN3RRKBJPNBFGD6FGOD06","","","null","","","","","","","",""
"699.3999999761581","","image-keyboard-response","149","122047","0.0-78.0","3WQQ9FUS6BGUG3PORZEM2ORA3JZB8W","A3QSFE6GKO157S","3XUSYT70ITN3RRKBJPNBFGD6FGOD06","","img/set1/S4.jpg","74","4","structured_normal","74","true","structured_normal,structured_incentive,random","2,3,1,2","",""
"null","","html-keyboard-response","150","122409","0.0-79.0","3WQQ9FUS6BGUG3PORZEM2ORA3JZB8W","A3QSFE6GKO157S","3XUSYT70ITN3RRKBJPNBFGD6FGOD06","","<img src=""img/set1/S4.jpg"" width=""540"" height = ""360"" style=""border:16px solid orange"">","null","","","","","","","",""
"null","","html-keyboard-response","151","122411","0.0-80.0","3WQQ9FUS6BGUG3PORZEM2ORA3JZB8W","A3QSFE6GKO157S","3XUSYT70ITN3RRKBJPNBFGD6FGOD06","","","null","","","","","","","",""
"618.3000000119209","","image-keyboard-response","152","123031","0.0-81.0","3WQQ9FUS6BGUG3PORZEM2ORA3JZB8W","A3QSFE6GKO157S","3XUSYT70ITN3RRKBJPNBFGD6FGOD06","","img/set1/S1.jpg","83","1","structured_normal","83","true","structured_normal,structured_incentive,random","2,3,1,2","",""
"null","","html-keyboard-response","153","123383","0.0-82.0","3WQQ9FUS6BGUG3PORZEM2ORA3JZB8W","A3QSFE6GKO157S","3XUSYT70ITN3RRKBJPNBFGD6FGOD06","","<img src=""img/set1/S1.jpg"" width=""540"" height = ""360"" style=""border:16px solid orange"">","null","","","","","","","",""
"null","","html-keyboard-response","154","123386","0.0-83.0","3WQQ9FUS6BGUG3PORZEM2ORA3JZB8W","A3QSFE6GKO157S","3XUSYT70ITN3RRKBJPNBFGD6FGOD06","","","null","","","","","","","",""
"627.4000000357628","","image-keyboard-response","155","124015","0.0-84.0","3WQQ9FUS6BGUG3PORZEM2ORA3JZB8W","A3QSFE6GKO157S","3XUSYT70ITN3RRKBJPNBFGD6FGOD06","","img/set1/S4.jpg","74","4","structured_normal","74","true","structured_normal,structured_incentive,random","2,3,1,2","",""
"null","","html-keyboard-response","156","124367","0.0-85.0","3WQQ9FUS6BGUG3PORZEM2ORA3JZB8W","A3QSFE6GKO157S","3XUSYT70ITN3RRKBJPNBFGD6FGOD06","","<img src=""img/set1/S4.jpg"" width=""540"" height = ""360"" style=""border:16px solid orange"">","null","","","","","","","",""
"null","","html-keyboard-response","157","124370","0.0-86.0","3WQQ9FUS6BGUG3PORZEM2ORA3JZB8W","A3QSFE6GKO157S","3XUSYT70ITN3RRKBJPNBFGD6FGOD06","","","null","","","","","","","",""
"435.80000001192093","","image-keyboard-response","158","124807","0.0-87.0","3WQQ9FUS6BGUG3PORZEM2ORA3JZB8W","A3QSFE6GKO157S","3XUSYT70ITN3RRKBJPNBFGD6FGOD06","","img/set1/S1.jpg","83","1","structured_normal","83","true","structured_normal,structured_incentive,random","2,3,1,2","",""
"null","","html-keyboard-response","159","125159","0.0-88.0","3WQQ9FUS6BGUG3PORZEM2ORA3JZB8W","A3QSFE6GKO157S","3XUSYT70ITN3RRKBJPNBFGD6FGOD06","","<img src=""img/set1/S1.jpg"" width=""540"" height = ""360"" style=""border:16px solid orange"">","null","","","","","","","",""
"null","","html-keyboard-response","160","125161","0.0-89.0","3WQQ9FUS6BGUG3PORZEM2ORA3JZB8W","A3QSFE6GKO157S","3XUSYT70ITN3RRKBJPNBFGD6FGOD06","","","null","","","","","","","",""
"501","","image-keyboard-response","161","125663","0.0-90.0","3WQQ9FUS6BGUG3PORZEM2ORA3JZB8W","A3QSFE6GKO157S","3XUSYT70ITN3RRKBJPNBFGD6FGOD06","","img/set1/S1.jpg","83","1","structured_normal","83","true","structured_normal,structured_incentive,random","2,3,1,2","",""
"null","","html-keyboard-response","162","126014","0.0-91.0","3WQQ9FUS6BGUG3PORZEM2ORA3JZB8W","A3QSFE6GKO157S","3XUSYT70ITN3RRKBJPNBFGD6FGOD06","","<img src=""img/set1/S1.jpg"" width=""540"" height = ""360"" style=""border:16px solid orange"">","null","","","","","","","",""
"null","","html-keyboard-response","163","126016","0.0-92.0","3WQQ9FUS6BGUG3PORZEM2ORA3JZB8W","A3QSFE6GKO157S","3XUSYT70ITN3RRKBJPNBFGD6FGOD06","","","null","","","","","","","",""
"741.8000000119209","","image-keyboard-response","164","126759","0.0-93.0","3WQQ9FUS6BGUG3PORZEM2ORA3JZB8W","A3QSFE6GKO157S","3XUSYT70ITN3RRKBJPNBFGD6FGOD06","","img/set1/S3.jpg","72","3","structured_normal","72","true","structured_normal,structured_incentive,random","2,3,1,2","",""
"null","","html-keyboard-response","165","127113","0.0-94.0","3WQQ9FUS6BGUG3PORZEM2ORA3JZB8W","A3QSFE6GKO157S","3XUSYT70ITN3RRKBJPNBFGD6FGOD06","","<img src=""img/set1/S3.jpg"" width=""540"" height = ""360"" style=""border:16px solid orange"">","null","","","","","","","",""
"null","","html-keyboard-response","166","127115","0.0-95.0","3WQQ9FUS6BGUG3PORZEM2ORA3JZB8W","A3QSFE6GKO157S","3XUSYT70ITN3RRKBJPNBFGD6FGOD06","","","null","","","","","","","",""
"554.6999999880791","","image-keyboard-response","167","127671","0.0-96.0","3WQQ9FUS6BGUG3PORZEM2ORA3JZB8W","A3QSFE6GKO157S","3XUSYT70ITN3RRKBJPNBFGD6FGOD06","","img/set1/S1.jpg","83","1","structured_normal","83","true","structured_normal,structured_incentive,random","2,3,1,2","",""
"null","","html-keyboard-response","168","128023","0.0-97.0","3WQQ9FUS6BGUG3PORZEM2ORA3JZB8W","A3QSFE6GKO157S","3XUSYT70ITN3RRKBJPNBFGD6FGOD06","","<img src=""img/set1/S1.jpg"" width=""540"" height = ""360"" style=""border:16px solid orange"">","null","","","","","","","",""
"null","","html-keyboard-response","169","128025","0.0-98.0","3WQQ9FUS6BGUG3PORZEM2ORA3JZB8W","A3QSFE6GKO157S","3XUSYT70ITN3RRKBJPNBFGD6FGOD06","","","null","","","","","","","",""
"540.8000000119209","","image-keyboard-response","170","128567","0.0-99.0","3WQQ9FUS6BGUG3PORZEM2ORA3JZB8W","A3QSFE6GKO157S","3XUSYT70ITN3RRKBJPNBFGD6FGOD06","","img/set1/S4.jpg","74","4","structured_normal","74","true","structured_normal,structured_incentive,random","2,3,1,2","",""
"null","","html-keyboard-response","171","128918","0.0-100.0","3WQQ9FUS6BGUG3PORZEM2ORA3JZB8W","A3QSFE6GKO157S","3XUSYT70ITN3RRKBJPNBFGD6FGOD06","","<img src=""img/set1/S4.jpg"" width=""540"" height = ""360"" style=""border:16px solid orange"">","null","","","","","","","",""
"null","","html-keyboard-response","172","128921","0.0-101.0","3WQQ9FUS6BGUG3PORZEM2ORA3JZB8W","A3QSFE6GKO157S","3XUSYT70ITN3RRKBJPNBFGD6FGOD06","","","null","","","","","","","",""
"597.3000000119209","","image-keyboard-response","173","129519","0.0-102.0","3WQQ9FUS6BGUG3PORZEM2ORA3JZB8W","A3QSFE6GKO157S","3XUSYT70ITN3RRKBJPNBFGD6FGOD06","","img/set1/S2.jpg","68","2","structured_normal","68","true","structured_normal,structured_incentive,random","2,3,1,2","",""
"null","","html-keyboard-response","174","129870","0.0-103.0","3WQQ9FUS6BGUG3PORZEM2ORA3JZB8W","A3QSFE6GKO157S","3XUSYT70ITN3RRKBJPNBFGD6FGOD06","","<img src=""img/set1/S2.jpg"" width=""540"" height = ""360"" style=""border:16px solid orange"">","null","","","","","","","",""
"null","","html-keyboard-response","175","129873","0.0-104.0","3WQQ9FUS6BGUG3PORZEM2ORA3JZB8W","A3QSFE6GKO157S","3XUSYT70ITN3RRKBJPNBFGD6FGOD06","","","null","","","","","","","",""
"661.6999999880791","","image-keyboard-response","176","130535","0.0-105.0","3WQQ9FUS6BGUG3PORZEM2ORA3JZB8W","A3QSFE6GKO157S","3XUSYT70ITN3RRKBJPNBFGD6FGOD06","","img/set1/S3.jpg","72","3","structured_normal","72","true","structured_normal,structured_incentive,random","2,3,1,2","",""
"null","","html-keyboard-response","177","130889","0.0-106.0","3WQQ9FUS6BGUG3PORZEM2ORA3JZB8W","A3QSFE6GKO157S","3XUSYT70ITN3RRKBJPNBFGD6FGOD06","","<img src=""img/set1/S3.jpg"" width=""540"" height = ""360"" style=""border:16px solid orange"">","null","","","","","","","",""
"null","","html-keyboard-response","178","130891","0.0-107.0","3WQQ9FUS6BGUG3PORZEM2ORA3JZB8W","A3QSFE6GKO157S","3XUSYT70ITN3RRKBJPNBFGD6FGOD06","","","null","","","","","","","",""
"538.3999999761581","","image-keyboard-response","179","131431","0.0-108.0","3WQQ9FUS6BGUG3PORZEM2ORA3JZB8W","A3QSFE6GKO157S","3XUSYT70ITN3RRKBJPNBFGD6FGOD06","","img/set1/S1.jpg","83","1","structured_normal","83","true","structured_normal,structured_incentive,random","2,3,1,2","",""
"null","","html-keyboard-response","180","131783","0.0-109.0","3WQQ9FUS6BGUG3PORZEM2ORA3JZB8W","A3QSFE6GKO157S","3XUSYT70ITN3RRKBJPNBFGD6FGOD06","","<img src=""img/set1/S1.jpg"" width=""540"" height = ""360"" style=""border:16px solid orange"">","null","","","","","","","",""
"null","","html-keyboard-response","181","131785","0.0-110.0","3WQQ9FUS6BGUG3PORZEM2ORA3JZB8W","A3QSFE6GKO157S","3XUSYT70ITN3RRKBJPNBFGD6FGOD06","","","null","","","","","","","",""
"604.6999999880791","","image-keyboard-response","182","132391","0.0-111.0","3WQQ9FUS6BGUG3PORZEM2ORA3JZB8W","A3QSFE6GKO157S","3XUSYT70ITN3RRKBJPNBFGD6FGOD06","","img/set1/S2.jpg","68","2","structured_normal","68","true","structured_normal,structured_incentive,random","2,3,1,2","",""
"null","","html-keyboard-response","183","132743","0.0-112.0","3WQQ9FUS6BGUG3PORZEM2ORA3JZB8W","A3QSFE6GKO157S","3XUSYT70ITN3RRKBJPNBFGD6FGOD06","","<img src=""img/set1/S2.jpg"" width=""540"" height = ""360"" style=""border:16px solid orange"">","null","","","","","","","",""
"null","","html-keyboard-response","184","132745","0.0-113.0","3WQQ9FUS6BGUG3PORZEM2ORA3JZB8W","A3QSFE6GKO157S","3XUSYT70ITN3RRKBJPNBFGD6FGOD06","","","null","","","","","","","",""
"580.3000000119209","","image-keyboard-response","185","133327","0.0-114.0","3WQQ9FUS6BGUG3PORZEM2ORA3JZB8W","A3QSFE6GKO157S","3XUSYT70ITN3RRKBJPNBFGD6FGOD06","","img/set1/S3.jpg","72","3","structured_normal","72","true","structured_normal,structured_incentive,random","2,3,1,2","",""
"null","","html-keyboard-response","186","133679","0.0-115.0","3WQQ9FUS6BGUG3PORZEM2ORA3JZB8W","A3QSFE6GKO157S","3XUSYT70ITN3RRKBJPNBFGD6FGOD06","","<img src=""img/set1/S3.jpg"" width=""540"" height = ""360"" style=""border:16px solid orange"">","null","","","","","","","",""
"null","","html-keyboard-response","187","133681","0.0-116.0","3WQQ9FUS6BGUG3PORZEM2ORA3JZB8W","A3QSFE6GKO157S","3XUSYT70ITN3RRKBJPNBFGD6FGOD06","","","null","","","","","","","",""
"836.3999999761581","","image-keyboard-response","188","134519","0.0-117.0","3WQQ9FUS6BGUG3PORZEM2ORA3JZB8W","A3QSFE6GKO157S","3XUSYT70ITN3RRKBJPNBFGD6FGOD06","","img/set1/S2.jpg","68","2","structured_normal","68","true","structured_normal,structured_incentive,random","2,3,1,2","",""
"null","","html-keyboard-response","189","134870","0.0-118.0","3WQQ9FUS6BGUG3PORZEM2ORA3JZB8W","A3QSFE6GKO157S","3XUSYT70ITN3RRKBJPNBFGD6FGOD06","","<img src=""img/set1/S2.jpg"" width=""540"" height = ""360"" style=""border:16px solid orange"">","null","","","","","","","",""
"null","","html-keyboard-response","190","134873","0.0-119.0","3WQQ9FUS6BGUG3PORZEM2ORA3JZB8W","A3QSFE6GKO157S","3XUSYT70ITN3RRKBJPNBFGD6FGOD06","","","null","","","","","","","",""
"796.5","","image-keyboard-response","191","135671","0.0-120.0","3WQQ9FUS6BGUG3PORZEM2ORA3JZB8W","A3QSFE6GKO157S","3XUSYT70ITN3RRKBJPNBFGD6FGOD06","","img/set1/S3.jpg","72","3","structured_normal","72","true","structured_normal,structured_incentive,random","2,3,1,2","",""
"null","","html-keyboard-response","192","136027","0.0-121.0","3WQQ9FUS6BGUG3PORZEM2ORA3JZB8W","A3QSFE6GKO157S","3XUSYT70ITN3RRKBJPNBFGD6FGOD06","","<img src=""img/set1/S3.jpg"" width=""540"" height = ""360"" style=""border:16px solid orange"">","null","","","","","","","",""
"null","","html-keyboard-response","193","136029","0.0-122.0","3WQQ9FUS6BGUG3PORZEM2ORA3JZB8W","A3QSFE6GKO157S","3XUSYT70ITN3RRKBJPNBFGD6FGOD06","","","null","","","","","","","",""
"552.6999999880791","","image-keyboard-response","194","136583","0.0-123.0","3WQQ9FUS6BGUG3PORZEM2ORA3JZB8W","A3QSFE6GKO157S","3XUSYT70ITN3RRKBJPNBFGD6FGOD06","","img/set1/S4.jpg","74","4","structured_normal","74","true","structured_normal,structured_incentive,random","2,3,1,2","",""
"null","","html-keyboard-response","195","136935","0.0-124.0","3WQQ9FUS6BGUG3PORZEM2ORA3JZB8W","A3QSFE6GKO157S","3XUSYT70ITN3RRKBJPNBFGD6FGOD06","","<img src=""img/set1/S4.jpg"" width=""540"" height = ""360"" style=""border:16px solid orange"">","null","","","","","","","",""
"null","","html-keyboard-response","196","136937","0.0-125.0","3WQQ9FUS6BGUG3PORZEM2ORA3JZB8W","A3QSFE6GKO157S","3XUSYT70ITN3RRKBJPNBFGD6FGOD06","","","null","","","","","","","",""
"428.60000002384186","","image-keyboard-response","197","137367","0.0-126.0","3WQQ9FUS6BGUG3PORZEM2ORA3JZB8W","A3QSFE6GKO157S","3XUSYT70ITN3RRKBJPNBFGD6FGOD06","","img/set1/S1.jpg","83","1","structured_normal","83","true","structured_normal,structured_incentive,random","2,3,1,2","",""
"null","","html-keyboard-response","198","137719","0.0-127.0","3WQQ9FUS6BGUG3PORZEM2ORA3JZB8W","A3QSFE6GKO157S","3XUSYT70ITN3RRKBJPNBFGD6FGOD06","","<img src=""img/set1/S1.jpg"" width=""540"" height = ""360"" style=""border:16px solid orange"">","null","","","","","","","",""
"null","","html-keyboard-response","199","137721","0.0-128.0","3WQQ9FUS6BGUG3PORZEM2ORA3JZB8W","A3QSFE6GKO157S","3XUSYT70ITN3RRKBJPNBFGD6FGOD06","","","null","","","","","","","",""
"572.8999999761581","","image-keyboard-response","200","138295","0.0-129.0","3WQQ9FUS6BGUG3PORZEM2ORA3JZB8W","A3QSFE6GKO157S","3XUSYT70ITN3RRKBJPNBFGD6FGOD06","","img/set1/S4.jpg","74","4","structured_normal","74","true","structured_normal,structured_incentive,random","2,3,1,2","",""
"null","","html-keyboard-response","201","138647","0.0-130.0","3WQQ9FUS6BGUG3PORZEM2ORA3JZB8W","A3QSFE6GKO157S","3XUSYT70ITN3RRKBJPNBFGD6FGOD06","","<img src=""img/set1/S4.jpg"" width=""540"" height = ""360"" style=""border:16px solid orange"">","null","","","","","","","",""
"null","","html-keyboard-response","202","138650","0.0-131.0","3WQQ9FUS6BGUG3PORZEM2ORA3JZB8W","A3QSFE6GKO157S","3XUSYT70ITN3RRKBJPNBFGD6FGOD06","","","null","","","","","","","",""
"500.4000000357628","","image-keyboard-response","203","139151","0.0-132.0","3WQQ9FUS6BGUG3PORZEM2ORA3JZB8W","A3QSFE6GKO157S","3XUSYT70ITN3RRKBJPNBFGD6FGOD06","","img/set1/S1.jpg","83","1","structured_normal","83","true","structured_normal,structured_incentive,random","2,3,1,2","",""
"null","","html-keyboard-response","204","139502","0.0-133.0","3WQQ9FUS6BGUG3PORZEM2ORA3JZB8W","A3QSFE6GKO157S","3XUSYT70ITN3RRKBJPNBFGD6FGOD06","","<img src=""img/set1/S1.jpg"" width=""540"" height = ""360"" style=""border:16px solid orange"">","null","","","","","","","",""
"null","","html-keyboard-response","205","139505","0.0-134.0","3WQQ9FUS6BGUG3PORZEM2ORA3JZB8W","A3QSFE6GKO157S","3XUSYT70ITN3RRKBJPNBFGD6FGOD06","","","null","","","","","","","",""
"565.3000000119209","","image-keyboard-response","206","140071","0.0-135.0","3WQQ9FUS6BGUG3PORZEM2ORA3JZB8W","A3QSFE6GKO157S","3XUSYT70ITN3RRKBJPNBFGD6FGOD06","","img/set1/S2.jpg","68","2","structured_normal","68","true","structured_normal,structured_incentive,random","2,3,1,2","",""
"null","","html-keyboard-response","207","140423","0.0-136.0","3WQQ9FUS6BGUG3PORZEM2ORA3JZB8W","A3QSFE6GKO157S","3XUSYT70ITN3RRKBJPNBFGD6FGOD06","","<img src=""img/set1/S2.jpg"" width=""540"" height = ""360"" style=""border:16px solid orange"">","null","","","","","","","",""
"null","","html-keyboard-response","208","140425","0.0-137.0","3WQQ9FUS6BGUG3PORZEM2ORA3JZB8W","A3QSFE6GKO157S","3XUSYT70ITN3RRKBJPNBFGD6FGOD06","","","null","","","","","","","",""
"620.9000000357628","","image-keyboard-response","209","141047","0.0-138.0","3WQQ9FUS6BGUG3PORZEM2ORA3JZB8W","A3QSFE6GKO157S","3XUSYT70ITN3RRKBJPNBFGD6FGOD06","","img/set1/S3.jpg","72","3","structured_normal","72","true","structured_normal,structured_incentive,random","2,3,1,2","",""
"null","","html-keyboard-response","210","141399","0.0-139.0","3WQQ9FUS6BGUG3PORZEM2ORA3JZB8W","A3QSFE6GKO157S","3XUSYT70ITN3RRKBJPNBFGD6FGOD06","","<img src=""img/set1/S3.jpg"" width=""540"" height = ""360"" style=""border:16px solid orange"">","null","","","","","","","",""
"null","","html-keyboard-response","211","141402","0.0-140.0","3WQQ9FUS6BGUG3PORZEM2ORA3JZB8W","A3QSFE6GKO157S","3XUSYT70ITN3RRKBJPNBFGD6FGOD06","","","null","","","","","","","",""
"587.9000000357628","","image-keyboard-response","212","141991","0.0-141.0","3WQQ9FUS6BGUG3PORZEM2ORA3JZB8W","A3QSFE6GKO157S","3XUSYT70ITN3RRKBJPNBFGD6FGOD06","","img/set1/S4.jpg","74","4","structured_normal","74","true","structured_normal,structured_incentive,random","2,3,1,2","",""
"null","","html-keyboard-response","213","142343","0.0-142.0","3WQQ9FUS6BGUG3PORZEM2ORA3JZB8W","A3QSFE6GKO157S","3XUSYT70ITN3RRKBJPNBFGD6FGOD06","","<img src=""img/set1/S4.jpg"" width=""540"" height = ""360"" style=""border:16px solid orange"">","null","","","","","","","",""
"null","","html-keyboard-response","214","142346","0.0-143.0","3WQQ9FUS6BGUG3PORZEM2ORA3JZB8W","A3QSFE6GKO157S","3XUSYT70ITN3RRKBJPNBFGD6FGOD06","","","null","","","","","","","",""
"604.5","","image-keyboard-response","215","142951","0.0-144.0","3WQQ9FUS6BGUG3PORZEM2ORA3JZB8W","A3QSFE6GKO157S","3XUSYT70ITN3RRKBJPNBFGD6FGOD06","","img/set1/S2.jpg","68","2","structured_normal","68","true","structured_normal,structured_incentive,random","2,3,1,2","",""
"null","","html-keyboard-response","216","143303","0.0-145.0","3WQQ9FUS6BGUG3PORZEM2ORA3JZB8W","A3QSFE6GKO157S","3XUSYT70ITN3RRKBJPNBFGD6FGOD06","","<img src=""img/set1/S2.jpg"" width=""540"" height = ""360"" style=""border:16px solid orange"">","null","","","","","","","",""
"null","","html-keyboard-response","217","143306","0.0-146.0","3WQQ9FUS6BGUG3PORZEM2ORA3JZB8W","A3QSFE6GKO157S","3XUSYT70ITN3RRKBJPNBFGD6FGOD06","","","null","","","","","","","",""
"595.5999999642372","","image-keyboard-response","218","143903","0.0-147.0","3WQQ9FUS6BGUG3PORZEM2ORA3JZB8W","A3QSFE6GKO157S","3XUSYT70ITN3RRKBJPNBFGD6FGOD06","","img/set1/S3.jpg","72","3","structured_normal","72","true","structured_normal,structured_incentive,random","2,3,1,2","",""
"null","","html-keyboard-response","219","144255","0.0-148.0","3WQQ9FUS6BGUG3PORZEM2ORA3JZB8W","A3QSFE6GKO157S","3XUSYT70ITN3RRKBJPNBFGD6FGOD06","","<img src=""img/set1/S3.jpg"" width=""540"" height = ""360"" style=""border:16px solid orange"">","null","","","","","","","",""
"null","","html-keyboard-response","220","144257","0.0-149.0","3WQQ9FUS6BGUG3PORZEM2ORA3JZB8W","A3QSFE6GKO157S","3XUSYT70ITN3RRKBJPNBFGD6FGOD06","","","null","","","","","","","",""
"597.0999999642372","","image-keyboard-response","221","144855","0.0-150.0","3WQQ9FUS6BGUG3PORZEM2ORA3JZB8W","A3QSFE6GKO157S","3XUSYT70ITN3RRKBJPNBFGD6FGOD06","","img/set1/S1.jpg","83","1","structured_normal","83","true","structured_normal,structured_incentive,random","2,3,1,2","",""
"null","","html-keyboard-response","222","145207","0.0-151.0","3WQQ9FUS6BGUG3PORZEM2ORA3JZB8W","A3QSFE6GKO157S","3XUSYT70ITN3RRKBJPNBFGD6FGOD06","","<img src=""img/set1/S1.jpg"" width=""540"" height = ""360"" style=""border:16px solid orange"">","null","","","","","","","",""
"null","","html-keyboard-response","223","145209","0.0-152.0","3WQQ9FUS6BGUG3PORZEM2ORA3JZB8W","A3QSFE6GKO157S","3XUSYT70ITN3RRKBJPNBFGD6FGOD06","","","null","","","","","","","",""
"436.5999999642372","","image-keyboard-response","224","145646","0.0-153.0","3WQQ9FUS6BGUG3PORZEM2ORA3JZB8W","A3QSFE6GKO157S","3XUSYT70ITN3RRKBJPNBFGD6FGOD06","","img/set1/S1.jpg","83","1","structured_normal","83","true","structured_normal,structured_incentive,random","2,3,1,2","",""
"null","","html-keyboard-response","225","145998","0.0-154.0","3WQQ9FUS6BGUG3PORZEM2ORA3JZB8W","A3QSFE6GKO157S","3XUSYT70ITN3RRKBJPNBFGD6FGOD06","","<img src=""img/set1/S1.jpg"" width=""540"" height = ""360"" style=""border:16px solid orange"">","null","","","","","","","",""
"null","","html-keyboard-response","226","146001","0.0-155.0","3WQQ9FUS6BGUG3PORZEM2ORA3JZB8W","A3QSFE6GKO157S","3XUSYT70ITN3RRKBJPNBFGD6FGOD06","","","null","","","","","","","",""
"589.3000000119209","","image-keyboard-response","227","146591","0.0-156.0","3WQQ9FUS6BGUG3PORZEM2ORA3JZB8W","A3QSFE6GKO157S","3XUSYT70ITN3RRKBJPNBFGD6FGOD06","","img/set1/S4.jpg","74","4","structured_normal","74","true","structured_normal,structured_incentive,random","2,3,1,2","",""
"null","","html-keyboard-response","228","146943","0.0-157.0","3WQQ9FUS6BGUG3PORZEM2ORA3JZB8W","A3QSFE6GKO157S","3XUSYT70ITN3RRKBJPNBFGD6FGOD06","","<img src=""img/set1/S4.jpg"" width=""540"" height = ""360"" style=""border:16px solid orange"">","null","","","","","","","",""
"null","","html-keyboard-response","229","146945","0.0-158.0","3WQQ9FUS6BGUG3PORZEM2ORA3JZB8W","A3QSFE6GKO157S","3XUSYT70ITN3RRKBJPNBFGD6FGOD06","","","null","","","","","","","",""
"644.8000000119209","","image-keyboard-response","230","147591","0.0-159.0","3WQQ9FUS6BGUG3PORZEM2ORA3JZB8W","A3QSFE6GKO157S","3XUSYT70ITN3RRKBJPNBFGD6FGOD06","","img/set1/S2.jpg","68","2","structured_normal","68","true","structured_normal,structured_incentive,random","2,3,1,2","",""
"null","","html-keyboard-response","231","147942","0.0-160.0","3WQQ9FUS6BGUG3PORZEM2ORA3JZB8W","A3QSFE6GKO157S","3XUSYT70ITN3RRKBJPNBFGD6FGOD06","","<img src=""img/set1/S2.jpg"" width=""540"" height = ""360"" style=""border:16px solid orange"">","null","","","","","","","",""
"null","","html-keyboard-response","232","147945","0.0-161.0","3WQQ9FUS6BGUG3PORZEM2ORA3JZB8W","A3QSFE6GKO157S","3XUSYT70ITN3RRKBJPNBFGD6FGOD06","","","null","","","","","","","",""
"636.5999999642372","","image-keyboard-response","233","148583","0.0-162.0","3WQQ9FUS6BGUG3PORZEM2ORA3JZB8W","A3QSFE6GKO157S","3XUSYT70ITN3RRKBJPNBFGD6FGOD06","","img/set1/S3.jpg","72","3","structured_normal","72","true","structured_normal,structured_incentive,random","2,3,1,2","",""
"null","","html-keyboard-response","234","148949","0.0-163.0","3WQQ9FUS6BGUG3PORZEM2ORA3JZB8W","A3QSFE6GKO157S","3XUSYT70ITN3RRKBJPNBFGD6FGOD06","","<img src=""img/set1/S3.jpg"" width=""540"" height = ""360"" style=""border:16px solid orange"">","null","","","","","","","",""
"null","","html-keyboard-response","235","148951","0.0-164.0","3WQQ9FUS6BGUG3PORZEM2ORA3JZB8W","A3QSFE6GKO157S","3XUSYT70ITN3RRKBJPNBFGD6FGOD06","","","null","","","","","","","",""
"709.6999999880791","","image-keyboard-response","236","149662","0.0-165.0","3WQQ9FUS6BGUG3PORZEM2ORA3JZB8W","A3QSFE6GKO157S","3XUSYT70ITN3RRKBJPNBFGD6FGOD06","","img/set1/S2.jpg","68","2","structured_normal","68","true","structured_normal,structured_incentive,random","2,3,1,2","",""
"null","","html-keyboard-response","237","150016","0.0-166.0","3WQQ9FUS6BGUG3PORZEM2ORA3JZB8W","A3QSFE6GKO157S","3XUSYT70ITN3RRKBJPNBFGD6FGOD06","","<img src=""img/set1/S2.jpg"" width=""540"" height = ""360"" style=""border:16px solid orange"">","null","","","","","","","",""
"null","","html-keyboard-response","238","150018","0.0-167.0","3WQQ9FUS6BGUG3PORZEM2ORA3JZB8W","A3QSFE6GKO157S","3XUSYT70ITN3RRKBJPNBFGD6FGOD06","","","null","","","","","","","",""
"563.1999999880791","","image-keyboard-response","239","150583","0.0-168.0","3WQQ9FUS6BGUG3PORZEM2ORA3JZB8W","A3QSFE6GKO157S","3XUSYT70ITN3RRKBJPNBFGD6FGOD06","","img/set1/S3.jpg","72","3","structured_normal","72","true","structured_normal,structured_incentive,random","2,3,1,2","",""
"null","","html-keyboard-response","240","150934","0.0-169.0","3WQQ9FUS6BGUG3PORZEM2ORA3JZB8W","A3QSFE6GKO157S","3XUSYT70ITN3RRKBJPNBFGD6FGOD06","","<img src=""img/set1/S3.jpg"" width=""540"" height = ""360"" style=""border:16px solid orange"">","null","","","","","","","",""
"null","","html-keyboard-response","241","150937","0.0-170.0","3WQQ9FUS6BGUG3PORZEM2ORA3JZB8W","A3QSFE6GKO157S","3XUSYT70ITN3RRKBJPNBFGD6FGOD06","","","null","","","","","","","",""
"597.0999999642372","","image-keyboard-response","242","151535","0.0-171.0","3WQQ9FUS6BGUG3PORZEM2ORA3JZB8W","A3QSFE6GKO157S","3XUSYT70ITN3RRKBJPNBFGD6FGOD06","","img/set1/S4.jpg","74","4","structured_normal","74","true","structured_normal,structured_incentive,random","2,3,1,2","",""
"null","","html-keyboard-response","243","151886","0.0-172.0","3WQQ9FUS6BGUG3PORZEM2ORA3JZB8W","A3QSFE6GKO157S","3XUSYT70ITN3RRKBJPNBFGD6FGOD06","","<img src=""img/set1/S4.jpg"" width=""540"" height = ""360"" style=""border:16px solid orange"">","null","","","","","","","",""
"null","","html-keyboard-response","244","151889","0.0-173.0","3WQQ9FUS6BGUG3PORZEM2ORA3JZB8W","A3QSFE6GKO157S","3XUSYT70ITN3RRKBJPNBFGD6FGOD06","","","null","","","","","","","",""
"596.8999999761581","","image-keyboard-response","245","152487","0.0-174.0","3WQQ9FUS6BGUG3PORZEM2ORA3JZB8W","A3QSFE6GKO157S","3XUSYT70ITN3RRKBJPNBFGD6FGOD06","","img/set1/S2.jpg","68","2","structured_normal","68","true","structured_normal,structured_incentive,random","2,3,1,2","",""
"null","","html-keyboard-response","246","152839","0.0-175.0","3WQQ9FUS6BGUG3PORZEM2ORA3JZB8W","A3QSFE6GKO157S","3XUSYT70ITN3RRKBJPNBFGD6FGOD06","","<img src=""img/set1/S2.jpg"" width=""540"" height = ""360"" style=""border:16px solid orange"">","null","","","","","","","",""
"null","","html-keyboard-response","247","152841","0.0-176.0","3WQQ9FUS6BGUG3PORZEM2ORA3JZB8W","A3QSFE6GKO157S","3XUSYT70ITN3RRKBJPNBFGD6FGOD06","","","null","","","","","","","",""
"644.6999999880791","","image-keyboard-response","248","153487","0.0-177.0","3WQQ9FUS6BGUG3PORZEM2ORA3JZB8W","A3QSFE6GKO157S","3XUSYT70ITN3RRKBJPNBFGD6FGOD06","","img/set1/S4.jpg","74","4","structured_normal","74","true","structured_normal,structured_incentive,random","2,3,1,2","",""
"null","","html-keyboard-response","249","153839","0.0-178.0","3WQQ9FUS6BGUG3PORZEM2ORA3JZB8W","A3QSFE6GKO157S","3XUSYT70ITN3RRKBJPNBFGD6FGOD06","","<img src=""img/set1/S4.jpg"" width=""540"" height = ""360"" style=""border:16px solid orange"">","null","","","","","","","",""
"null","","html-keyboard-response","250","153842","0.0-179.0","3WQQ9FUS6BGUG3PORZEM2ORA3JZB8W","A3QSFE6GKO157S","3XUSYT70ITN3RRKBJPNBFGD6FGOD06","","","null","","","","","","","",""
"708.4000000357628","","image-keyboard-response","251","154551","0.0-180.0","3WQQ9FUS6BGUG3PORZEM2ORA3JZB8W","A3QSFE6GKO157S","3XUSYT70ITN3RRKBJPNBFGD6FGOD06","","img/set1/S2.jpg","68","2","structured_normal","68","true","structured_normal,structured_incentive,random","2,3,1,2","",""
"null","","html-keyboard-response","252","154903","0.0-181.0","3WQQ9FUS6BGUG3PORZEM2ORA3JZB8W","A3QSFE6GKO157S","3XUSYT70ITN3RRKBJPNBFGD6FGOD06","","<img src=""img/set1/S2.jpg"" width=""540"" height = ""360"" style=""border:16px solid orange"">","null","","","","","","","",""
"null","","html-keyboard-response","253","154905","0.0-182.0","3WQQ9FUS6BGUG3PORZEM2ORA3JZB8W","A3QSFE6GKO157S","3XUSYT70ITN3RRKBJPNBFGD6FGOD06","","","null","","","","","","","",""
"517","","image-keyboard-response","254","155423","0.0-183.0","3WQQ9FUS6BGUG3PORZEM2ORA3JZB8W","A3QSFE6GKO157S","3XUSYT70ITN3RRKBJPNBFGD6FGOD06","","img/set1/S3.jpg","72","3","structured_normal","72","true","structured_normal,structured_incentive,random","2,3,1,2","",""
"null","","html-keyboard-response","255","155774","0.0-184.0","3WQQ9FUS6BGUG3PORZEM2ORA3JZB8W","A3QSFE6GKO157S","3XUSYT70ITN3RRKBJPNBFGD6FGOD06","","<img src=""img/set1/S3.jpg"" width=""540"" height = ""360"" style=""border:16px solid orange"">","null","","","","","","","",""
"null","","html-keyboard-response","256","155777","0.0-185.0","3WQQ9FUS6BGUG3PORZEM2ORA3JZB8W","A3QSFE6GKO157S","3XUSYT70ITN3RRKBJPNBFGD6FGOD06","","","null","","","","","","","",""
"837.3000000119209","","image-keyboard-response","257","156615","0.0-186.0","3WQQ9FUS6BGUG3PORZEM2ORA3JZB8W","A3QSFE6GKO157S","3XUSYT70ITN3RRKBJPNBFGD6FGOD06","","img/set1/S2.jpg","68","2","structured_normal","68","true","structured_normal,structured_incentive,random","2,3,1,2","",""
"null","","html-keyboard-response","258","156966","0.0-187.0","3WQQ9FUS6BGUG3PORZEM2ORA3JZB8W","A3QSFE6GKO157S","3XUSYT70ITN3RRKBJPNBFGD6FGOD06","","<img src=""img/set1/S2.jpg"" width=""540"" height = ""360"" style=""border:16px solid orange"">","null","","","","","","","",""
"null","","html-keyboard-response","259","156969","0.0-188.0","3WQQ9FUS6BGUG3PORZEM2ORA3JZB8W","A3QSFE6GKO157S","3XUSYT70ITN3RRKBJPNBFGD6FGOD06","","","null","","","","","","","",""
"605.3000000119209","","image-keyboard-response","260","157575","0.0-189.0","3WQQ9FUS6BGUG3PORZEM2ORA3JZB8W","A3QSFE6GKO157S","3XUSYT70ITN3RRKBJPNBFGD6FGOD06","","img/set1/S3.jpg","72","3","structured_normal","72","true","structured_normal,structured_incentive,random","2,3,1,2","",""
"null","","html-keyboard-response","261","157926","0.0-190.0","3WQQ9FUS6BGUG3PORZEM2ORA3JZB8W","A3QSFE6GKO157S","3XUSYT70ITN3RRKBJPNBFGD6FGOD06","","<img src=""img/set1/S3.jpg"" width=""540"" height = ""360"" style=""border:16px solid orange"">","null","","","","","","","",""
"null","","html-keyboard-response","262","157929","0.0-191.0","3WQQ9FUS6BGUG3PORZEM2ORA3JZB8W","A3QSFE6GKO157S","3XUSYT70ITN3RRKBJPNBFGD6FGOD06","","","null","","","","","","","",""
"597.2000000476837","","image-keyboard-response","263","158527","0.0-192.0","3WQQ9FUS6BGUG3PORZEM2ORA3JZB8W","A3QSFE6GKO157S","3XUSYT70ITN3RRKBJPNBFGD6FGOD06","","img/set1/S4.jpg","74","4","structured_normal","74","true","structured_normal,structured_incentive,random","2,3,1,2","",""
"null","","html-keyboard-response","264","158879","0.0-193.0","3WQQ9FUS6BGUG3PORZEM2ORA3JZB8W","A3QSFE6GKO157S","3XUSYT70ITN3RRKBJPNBFGD6FGOD06","","<img src=""img/set1/S4.jpg"" width=""540"" height = ""360"" style=""border:16px solid orange"">","null","","","","","","","",""
"null","","html-keyboard-response","265","158881","0.0-194.0","3WQQ9FUS6BGUG3PORZEM2ORA3JZB8W","A3QSFE6GKO157S","3XUSYT70ITN3RRKBJPNBFGD6FGOD06","","","null","","","","","","","",""
"692.9000000357628","","image-keyboard-response","266","159575","0.0-195.0","3WQQ9FUS6BGUG3PORZEM2ORA3JZB8W","A3QSFE6GKO157S","3XUSYT70ITN3RRKBJPNBFGD6FGOD06","","img/set1/S3.jpg","72","3","structured_normal","72","true","structured_normal,structured_incentive,random","2,3,1,2","",""
"null","","html-keyboard-response","267","159926","0.0-196.0","3WQQ9FUS6BGUG3PORZEM2ORA3JZB8W","A3QSFE6GKO157S","3XUSYT70ITN3RRKBJPNBFGD6FGOD06","","<img src=""img/set1/S3.jpg"" width=""540"" height = ""360"" style=""border:16px solid orange"">","null","","","","","","","",""
"null","","html-keyboard-response","268","159929","0.0-197.0","3WQQ9FUS6BGUG3PORZEM2ORA3JZB8W","A3QSFE6GKO157S","3XUSYT70ITN3RRKBJPNBFGD6FGOD06","","","null","","","","","","","",""
"629","","image-keyboard-response","269","160559","0.0-198.0","3WQQ9FUS6BGUG3PORZEM2ORA3JZB8W","A3QSFE6GKO157S","3XUSYT70ITN3RRKBJPNBFGD6FGOD06","","img/set1/S4.jpg","74","4","structured_normal","74","true","structured_normal,structured_incentive,random","2,3,1,2","",""
"null","","html-keyboard-response","270","160911","0.0-199.0","3WQQ9FUS6BGUG3PORZEM2ORA3JZB8W","A3QSFE6GKO157S","3XUSYT70ITN3RRKBJPNBFGD6FGOD06","","<img src=""img/set1/S4.jpg"" width=""540"" height = ""360"" style=""border:16px solid orange"">","null","","","","","","","",""
"null","","html-keyboard-response","271","160914","0.0-200.0","3WQQ9FUS6BGUG3PORZEM2ORA3JZB8W","A3QSFE6GKO157S","3XUSYT70ITN3RRKBJPNBFGD6FGOD06","","","null","","","","","","","",""
"668.1000000238419","","image-keyboard-response","272","161583","0.0-201.0","3WQQ9FUS6BGUG3PORZEM2ORA3JZB8W","A3QSFE6GKO157S","3XUSYT70ITN3RRKBJPNBFGD6FGOD06","","img/set1/S1.jpg","83","1","structured_normal","83","true","structured_normal,structured_incentive,random","2,3,1,2","",""
"null","","html-keyboard-response","273","161935","0.0-202.0","3WQQ9FUS6BGUG3PORZEM2ORA3JZB8W","A3QSFE6GKO157S","3XUSYT70ITN3RRKBJPNBFGD6FGOD06","","<img src=""img/set1/S1.jpg"" width=""540"" height = ""360"" style=""border:16px solid orange"">","null","","","","","","","",""
"null","","html-keyboard-response","274","161937","0.0-203.0","3WQQ9FUS6BGUG3PORZEM2ORA3JZB8W","A3QSFE6GKO157S","3XUSYT70ITN3RRKBJPNBFGD6FGOD06","","","null","","","","","","","",""
"1445","","image-keyboard-response","275","163383","0.0-204.0","3WQQ9FUS6BGUG3PORZEM2ORA3JZB8W","A3QSFE6GKO157S","3XUSYT70ITN3RRKBJPNBFGD6FGOD06","","img/set1/S2.jpg","68","2","structured_normal","68","true","structured_normal,structured_incentive,random","2,3,1,2","",""
"null","","html-keyboard-response","276","163734","0.0-205.0","3WQQ9FUS6BGUG3PORZEM2ORA3JZB8W","A3QSFE6GKO157S","3XUSYT70ITN3RRKBJPNBFGD6FGOD06","","<img src=""img/set1/S2.jpg"" width=""540"" height = ""360"" style=""border:16px solid orange"">","null","","","","","","","",""
"null","","html-keyboard-response","277","163737","0.0-206.0","3WQQ9FUS6BGUG3PORZEM2ORA3JZB8W","A3QSFE6GKO157S","3XUSYT70ITN3RRKBJPNBFGD6FGOD06","","","null","","","","","","","",""
"525.2999999523163","","image-keyboard-response","278","164263","0.0-207.0","3WQQ9FUS6BGUG3PORZEM2ORA3JZB8W","A3QSFE6GKO157S","3XUSYT70ITN3RRKBJPNBFGD6FGOD06","","img/set1/S3.jpg","72","3","structured_normal","72","true","structured_normal,structured_incentive,random","2,3,1,2","",""
"null","","html-keyboard-response","279","164614","0.0-208.0","3WQQ9FUS6BGUG3PORZEM2ORA3JZB8W","A3QSFE6GKO157S","3XUSYT70ITN3RRKBJPNBFGD6FGOD06","","<img src=""img/set1/S3.jpg"" width=""540"" height = ""360"" style=""border:16px solid orange"">","null","","","","","","","",""
"null","","html-keyboard-response","280","164617","0.0-209.0","3WQQ9FUS6BGUG3PORZEM2ORA3JZB8W","A3QSFE6GKO157S","3XUSYT70ITN3RRKBJPNBFGD6FGOD06","","","null","","","","","","","",""
"412.89999997615814","","image-keyboard-response","281","165031","0.0-210.0","3WQQ9FUS6BGUG3PORZEM2ORA3JZB8W","A3QSFE6GKO157S","3XUSYT70ITN3RRKBJPNBFGD6FGOD06","","img/set1/S3.jpg","72","3","structured_normal","72","true","structured_normal,structured_incentive,random","2,3,1,2","",""
"null","","html-keyboard-response","282","165382","0.0-211.0","3WQQ9FUS6BGUG3PORZEM2ORA3JZB8W","A3QSFE6GKO157S","3XUSYT70ITN3RRKBJPNBFGD6FGOD06","","<img src=""img/set1/S3.jpg"" width=""540"" height = ""360"" style=""border:16px solid orange"">","null","","","","","","","",""
"null","","html-keyboard-response","283","165384","0.0-212.0","3WQQ9FUS6BGUG3PORZEM2ORA3JZB8W","A3QSFE6GKO157S","3XUSYT70ITN3RRKBJPNBFGD6FGOD06","","","null","","","","","","","",""
"389.69999998807907","","image-keyboard-response","284","165775","0.0-213.0","3WQQ9FUS6BGUG3PORZEM2ORA3JZB8W","A3QSFE6GKO157S","3XUSYT70ITN3RRKBJPNBFGD6FGOD06","","img/set1/S3.jpg","72","3","structured_normal","72","true","structured_normal,structured_incentive,random","2,3,1,2","",""
"null","","html-keyboard-response","285","166127","0.0-214.0","3WQQ9FUS6BGUG3PORZEM2ORA3JZB8W","A3QSFE6GKO157S","3XUSYT70ITN3RRKBJPNBFGD6FGOD06","","<img src=""img/set1/S3.jpg"" width=""540"" height = ""360"" style=""border:16px solid orange"">","null","","","","","","","",""
"null","","html-keyboard-response","286","166130","0.0-215.0","3WQQ9FUS6BGUG3PORZEM2ORA3JZB8W","A3QSFE6GKO157S","3XUSYT70ITN3RRKBJPNBFGD6FGOD06","","","null","","","","","","","",""
"555.9000000357628","","image-keyboard-response","287","166687","0.0-216.0","3WQQ9FUS6BGUG3PORZEM2ORA3JZB8W","A3QSFE6GKO157S","3XUSYT70ITN3RRKBJPNBFGD6FGOD06","","img/set1/S4.jpg","74","4","structured_normal","74","true","structured_normal,structured_incentive,random","2,3,1,2","",""
"null","","html-keyboard-response","288","167038","0.0-217.0","3WQQ9FUS6BGUG3PORZEM2ORA3JZB8W","A3QSFE6GKO157S","3XUSYT70ITN3RRKBJPNBFGD6FGOD06","","<img src=""img/set1/S4.jpg"" width=""540"" height = ""360"" style=""border:16px solid orange"">","null","","","","","","","",""
"null","","html-keyboard-response","289","167040","0.0-218.0","3WQQ9FUS6BGUG3PORZEM2ORA3JZB8W","A3QSFE6GKO157S","3XUSYT70ITN3RRKBJPNBFGD6FGOD06","","","null","","","","","","","",""
"533.5","","image-keyboard-response","290","167575","0.0-219.0","3WQQ9FUS6BGUG3PORZEM2ORA3JZB8W","A3QSFE6GKO157S","3XUSYT70ITN3RRKBJPNBFGD6FGOD06","","img/set1/S1.jpg","83","1","structured_normal","83","true","structured_normal,structured_incentive,random","2,3,1,2","",""
"null","","html-keyboard-response","291","167937","0.0-220.0","3WQQ9FUS6BGUG3PORZEM2ORA3JZB8W","A3QSFE6GKO157S","3XUSYT70ITN3RRKBJPNBFGD6FGOD06","","<img src=""img/set1/S1.jpg"" width=""540"" height = ""360"" style=""border:16px solid orange"">","null","","","","","","","",""
"null","","html-keyboard-response","292","167939","0.0-221.0","3WQQ9FUS6BGUG3PORZEM2ORA3JZB8W","A3QSFE6GKO157S","3XUSYT70ITN3RRKBJPNBFGD6FGOD06","","","null","","","","","","","",""
"490.9000000357628","","image-keyboard-response","293","168431","0.0-222.0","3WQQ9FUS6BGUG3PORZEM2ORA3JZB8W","A3QSFE6GKO157S","3XUSYT70ITN3RRKBJPNBFGD6FGOD06","","img/set1/S1.jpg","83","1","structured_normal","83","true","structured_normal,structured_incentive,random","2,3,1,2","",""
"null","","html-keyboard-response","294","168782","0.0-223.0","3WQQ9FUS6BGUG3PORZEM2ORA3JZB8W","A3QSFE6GKO157S","3XUSYT70ITN3RRKBJPNBFGD6FGOD06","","<img src=""img/set1/S1.jpg"" width=""540"" height = ""360"" style=""border:16px solid orange"">","null","","","","","","","",""
"null","","html-keyboard-response","295","168785","0.0-224.0","3WQQ9FUS6BGUG3PORZEM2ORA3JZB8W","A3QSFE6GKO157S","3XUSYT70ITN3RRKBJPNBFGD6FGOD06","","","null","","","","","","","",""
"541.5999999642372","","image-keyboard-response","296","169327","0.0-225.0","3WQQ9FUS6BGUG3PORZEM2ORA3JZB8W","A3QSFE6GKO157S","3XUSYT70ITN3RRKBJPNBFGD6FGOD06","","img/set1/S2.jpg","68","2","structured_normal","68","true","structured_normal,structured_incentive,random","2,3,1,2","",""
"null","","html-keyboard-response","297","169680","0.0-226.0","3WQQ9FUS6BGUG3PORZEM2ORA3JZB8W","A3QSFE6GKO157S","3XUSYT70ITN3RRKBJPNBFGD6FGOD06","","<img src=""img/set1/S2.jpg"" width=""540"" height = ""360"" style=""border:16px solid orange"">","null","","","","","","","",""
"null","","html-keyboard-response","298","169682","0.0-227.0","3WQQ9FUS6BGUG3PORZEM2ORA3JZB8W","A3QSFE6GKO157S","3XUSYT70ITN3RRKBJPNBFGD6FGOD06","","","null","","","","","","","",""
"548","","image-keyboard-response","299","170231","0.0-228.0","3WQQ9FUS6BGUG3PORZEM2ORA3JZB8W","A3QSFE6GKO157S","3XUSYT70ITN3RRKBJPNBFGD6FGOD06","","img/set1/S3.jpg","72","3","structured_normal","72","true","structured_normal,structured_incentive,random","2,3,1,2","",""
"null","","html-keyboard-response","300","170582","0.0-229.0","3WQQ9FUS6BGUG3PORZEM2ORA3JZB8W","A3QSFE6GKO157S","3XUSYT70ITN3RRKBJPNBFGD6FGOD06","","<img src=""img/set1/S3.jpg"" width=""540"" height = ""360"" style=""border:16px solid orange"">","null","","","","","","","",""
"null","","html-keyboard-response","301","170585","0.0-230.0","3WQQ9FUS6BGUG3PORZEM2ORA3JZB8W","A3QSFE6GKO157S","3XUSYT70ITN3RRKBJPNBFGD6FGOD06","","","null","","","","","","","",""
"748.6999999880791","","image-keyboard-response","302","171335","0.0-231.0","3WQQ9FUS6BGUG3PORZEM2ORA3JZB8W","A3QSFE6GKO157S","3XUSYT70ITN3RRKBJPNBFGD6FGOD06","","img/set1/S2.jpg","68","2","structured_normal","68","true","structured_normal,structured_incentive,random","2,3,1,2","",""
"null","","html-keyboard-response","303","171687","0.0-232.0","3WQQ9FUS6BGUG3PORZEM2ORA3JZB8W","A3QSFE6GKO157S","3XUSYT70ITN3RRKBJPNBFGD6FGOD06","","<img src=""img/set1/S2.jpg"" width=""540"" height = ""360"" style=""border:16px solid orange"">","null","","","","","","","",""
"null","","html-keyboard-response","304","171689","0.0-233.0","3WQQ9FUS6BGUG3PORZEM2ORA3JZB8W","A3QSFE6GKO157S","3XUSYT70ITN3RRKBJPNBFGD6FGOD06","","","null","","","","","","","",""
"588.6999999880791","","image-keyboard-response","305","172279","0.0-234.0","3WQQ9FUS6BGUG3PORZEM2ORA3JZB8W","A3QSFE6GKO157S","3XUSYT70ITN3RRKBJPNBFGD6FGOD06","","img/set1/S3.jpg","72","3","structured_normal","72","true","structured_normal,structured_incentive,random","2,3,1,2","",""
"null","","html-keyboard-response","306","172661","0.0-235.0","3WQQ9FUS6BGUG3PORZEM2ORA3JZB8W","A3QSFE6GKO157S","3XUSYT70ITN3RRKBJPNBFGD6FGOD06","","<img src=""img/set1/S3.jpg"" width=""540"" height = ""360"" style=""border:16px solid orange"">","null","","","","","","","",""
"null","","html-keyboard-response","307","172664","0.0-236.0","3WQQ9FUS6BGUG3PORZEM2ORA3JZB8W","A3QSFE6GKO157S","3XUSYT70ITN3RRKBJPNBFGD6FGOD06","","","null","","","","","","","",""
"518.1000000238419","","image-keyboard-response","308","173183","0.0-237.0","3WQQ9FUS6BGUG3PORZEM2ORA3JZB8W","A3QSFE6GKO157S","3XUSYT70ITN3RRKBJPNBFGD6FGOD06","","img/set1/S4.jpg","74","4","structured_normal","74","true","structured_normal,structured_incentive,random","2,3,1,2","",""
"null","","html-keyboard-response","309","173535","0.0-238.0","3WQQ9FUS6BGUG3PORZEM2ORA3JZB8W","A3QSFE6GKO157S","3XUSYT70ITN3RRKBJPNBFGD6FGOD06","","<img src=""img/set1/S4.jpg"" width=""540"" height = ""360"" style=""border:16px solid orange"">","null","","","","","","","",""
"null","","html-keyboard-response","310","173537","0.0-239.0","3WQQ9FUS6BGUG3PORZEM2ORA3JZB8W","A3QSFE6GKO157S","3XUSYT70ITN3RRKBJPNBFGD6FGOD06","","","null","","","","","","","",""
"405","","image-keyboard-response","311","173943","0.0-240.0","3WQQ9FUS6BGUG3PORZEM2ORA3JZB8W","A3QSFE6GKO157S","3XUSYT70ITN3RRKBJPNBFGD6FGOD06","","img/set1/S4.jpg","74","4","structured_normal","74","true","structured_normal,structured_incentive,random","2,3,1,2","",""
"null","","html-keyboard-response","312","174295","0.0-241.0","3WQQ9FUS6BGUG3PORZEM2ORA3JZB8W","A3QSFE6GKO157S","3XUSYT70ITN3RRKBJPNBFGD6FGOD06","","<img src=""img/set1/S4.jpg"" width=""540"" height = ""360"" style=""border:16px solid orange"">","null","","","","","","","",""
"null","","html-keyboard-response","313","174297","0.0-242.0","3WQQ9FUS6BGUG3PORZEM2ORA3JZB8W","A3QSFE6GKO157S","3XUSYT70ITN3RRKBJPNBFGD6FGOD06","","","null","","","","","","","",""
"780.3999999761581","","image-keyboard-response","314","175079","0.0-243.0","3WQQ9FUS6BGUG3PORZEM2ORA3JZB8W","A3QSFE6GKO157S","3XUSYT70ITN3RRKBJPNBFGD6FGOD06","","img/set1/S2.jpg","68","2","structured_normal","68","true","structured_normal,structured_incentive,random","2,3,1,2","",""
"null","","html-keyboard-response","315","175431","0.0-244.0","3WQQ9FUS6BGUG3PORZEM2ORA3JZB8W","A3QSFE6GKO157S","3XUSYT70ITN3RRKBJPNBFGD6FGOD06","","<img src=""img/set1/S2.jpg"" width=""540"" height = ""360"" style=""border:16px solid orange"">","null","","","","","","","",""
"null","","html-keyboard-response","316","175434","0.0-245.0","3WQQ9FUS6BGUG3PORZEM2ORA3JZB8W","A3QSFE6GKO157S","3XUSYT70ITN3RRKBJPNBFGD6FGOD06","","","null","","","","","","","",""
"572.2999999523163","","image-keyboard-response","317","176007","0.0-246.0","3WQQ9FUS6BGUG3PORZEM2ORA3JZB8W","A3QSFE6GKO157S","3XUSYT70ITN3RRKBJPNBFGD6FGOD06","","img/set1/S3.jpg","72","3","structured_normal","72","true","structured_normal,structured_incentive,random","2,3,1,2","",""
"null","","html-keyboard-response","318","176370","0.0-247.0","3WQQ9FUS6BGUG3PORZEM2ORA3JZB8W","A3QSFE6GKO157S","3XUSYT70ITN3RRKBJPNBFGD6FGOD06","","<img src=""img/set1/S3.jpg"" width=""540"" height = ""360"" style=""border:16px solid orange"">","null","","","","","","","",""
"null","","html-keyboard-response","319","176373","0.0-248.0","3WQQ9FUS6BGUG3PORZEM2ORA3JZB8W","A3QSFE6GKO157S","3XUSYT70ITN3RRKBJPNBFGD6FGOD06","","","null","","","","","","","",""
"481.10000002384186","","image-keyboard-response","320","176856","0.0-249.0","3WQQ9FUS6BGUG3PORZEM2ORA3JZB8W","A3QSFE6GKO157S","3XUSYT70ITN3RRKBJPNBFGD6FGOD06","","img/set1/S2.jpg","72","2","structured_normal","68","false","structured_normal,structured_incentive,random","2,3,1,2","",""
"null","","html-keyboard-response","321","177208","0.0-250.0","3WQQ9FUS6BGUG3PORZEM2ORA3JZB8W","A3QSFE6GKO157S","3XUSYT70ITN3RRKBJPNBFGD6FGOD06","","<img src=""img/set1/S2.jpg"" width=""540"" height = ""360"">","null","","","","","","","",""
"null","","html-keyboard-response","322","177211","0.0-251.0","3WQQ9FUS6BGUG3PORZEM2ORA3JZB8W","A3QSFE6GKO157S","3XUSYT70ITN3RRKBJPNBFGD6FGOD06","","","null","","","","","","","",""
"1211.300000011921","","image-keyboard-response","323","178423","0.0-252.0","3WQQ9FUS6BGUG3PORZEM2ORA3JZB8W","A3QSFE6GKO157S","3XUSYT70ITN3RRKBJPNBFGD6FGOD06","","img/set1/S3.jpg","72","3","structured_normal","72","true","structured_normal,structured_incentive,random","2,3,1,2","",""
"null","","html-keyboard-response","324","178775","0.0-253.0","3WQQ9FUS6BGUG3PORZEM2ORA3JZB8W","A3QSFE6GKO157S","3XUSYT70ITN3RRKBJPNBFGD6FGOD06","","<img src=""img/set1/S3.jpg"" width=""540"" height = ""360"" style=""border:16px solid orange"">","null","","","","","","","",""
"null","","html-keyboard-response","325","178778","0.0-254.0","3WQQ9FUS6BGUG3PORZEM2ORA3JZB8W","A3QSFE6GKO157S","3XUSYT70ITN3RRKBJPNBFGD6FGOD06","","","null","","","","","","","",""
"578.3000000119209","","image-keyboard-response","326","179357","0.0-255.0","3WQQ9FUS6BGUG3PORZEM2ORA3JZB8W","A3QSFE6GKO157S","3XUSYT70ITN3RRKBJPNBFGD6FGOD06","","img/set1/S2.jpg","68","2","structured_normal","68","true","structured_normal,structured_incentive,random","2,3,1,2","",""
"null","","html-keyboard-response","327","179710","0.0-256.0","3WQQ9FUS6BGUG3PORZEM2ORA3JZB8W","A3QSFE6GKO157S","3XUSYT70ITN3RRKBJPNBFGD6FGOD06","","<img src=""img/set1/S2.jpg"" width=""540"" height = ""360"" style=""border:16px solid orange"">","null","","","","","","","",""
"null","","html-keyboard-response","328","179713","0.0-257.0","3WQQ9FUS6BGUG3PORZEM2ORA3JZB8W","A3QSFE6GKO157S","3XUSYT70ITN3RRKBJPNBFGD6FGOD06","","","null","","","","","","","",""
"523","","image-keyboard-response","329","180237","0.0-258.0","3WQQ9FUS6BGUG3PORZEM2ORA3JZB8W","A3QSFE6GKO157S","3XUSYT70ITN3RRKBJPNBFGD6FGOD06","","img/set1/S3.jpg","72","3","structured_normal","72","true","structured_normal,structured_incentive,random","2,3,1,2","",""
"null","","html-keyboard-response","330","180589","0.0-259.0","3WQQ9FUS6BGUG3PORZEM2ORA3JZB8W","A3QSFE6GKO157S","3XUSYT70ITN3RRKBJPNBFGD6FGOD06","","<img src=""img/set1/S3.jpg"" width=""540"" height = ""360"" style=""border:16px solid orange"">","null","","","","","","","",""
"null","","html-keyboard-response","331","180591","0.0-260.0","3WQQ9FUS6BGUG3PORZEM2ORA3JZB8W","A3QSFE6GKO157S","3XUSYT70ITN3RRKBJPNBFGD6FGOD06","","","null","","","","","","","",""
"500.5","","image-keyboard-response","332","181093","0.0-261.0","3WQQ9FUS6BGUG3PORZEM2ORA3JZB8W","A3QSFE6GKO157S","3XUSYT70ITN3RRKBJPNBFGD6FGOD06","","img/set1/S1.jpg","83","1","structured_normal","83","true","structured_normal,structured_incentive,random","2,3,1,2","",""
"null","","html-keyboard-response","333","181445","0.0-262.0","3WQQ9FUS6BGUG3PORZEM2ORA3JZB8W","A3QSFE6GKO157S","3XUSYT70ITN3RRKBJPNBFGD6FGOD06","","<img src=""img/set1/S1.jpg"" width=""540"" height = ""360"" style=""border:16px solid orange"">","null","","","","","","","",""
"null","","html-keyboard-response","334","181448","0.0-263.0","3WQQ9FUS6BGUG3PORZEM2ORA3JZB8W","A3QSFE6GKO157S","3XUSYT70ITN3RRKBJPNBFGD6FGOD06","","","null","","","","","","","",""
"596.4000000357628","","image-keyboard-response","335","182045","0.0-264.0","3WQQ9FUS6BGUG3PORZEM2ORA3JZB8W","A3QSFE6GKO157S","3XUSYT70ITN3RRKBJPNBFGD6FGOD06","","img/set1/S4.jpg","74","4","structured_normal","74","true","structured_normal,structured_incentive,random","2,3,1,2","",""
"null","","html-keyboard-response","336","182397","0.0-265.0","3WQQ9FUS6BGUG3PORZEM2ORA3JZB8W","A3QSFE6GKO157S","3XUSYT70ITN3RRKBJPNBFGD6FGOD06","","<img src=""img/set1/S4.jpg"" width=""540"" height = ""360"" style=""border:16px solid orange"">","null","","","","","","","",""
"null","","html-keyboard-response","337","182399","0.0-266.0","3WQQ9FUS6BGUG3PORZEM2ORA3JZB8W","A3QSFE6GKO157S","3XUSYT70ITN3RRKBJPNBFGD6FGOD06","","","null","","","","","","","",""
"773.6000000238419","","image-keyboard-response","338","183173","0.0-267.0","3WQQ9FUS6BGUG3PORZEM2ORA3JZB8W","A3QSFE6GKO157S","3XUSYT70ITN3RRKBJPNBFGD6FGOD06","","img/set1/S1.jpg","83","1","structured_normal","83","true","structured_normal,structured_incentive,random","2,3,1,2","",""
"null","","html-keyboard-response","339","183525","0.0-268.0","3WQQ9FUS6BGUG3PORZEM2ORA3JZB8W","A3QSFE6GKO157S","3XUSYT70ITN3RRKBJPNBFGD6FGOD06","","<img src=""img/set1/S1.jpg"" width=""540"" height = ""360"" style=""border:16px solid orange"">","null","","","","","","","",""
"null","","html-keyboard-response","340","183527","0.0-269.0","3WQQ9FUS6BGUG3PORZEM2ORA3JZB8W","A3QSFE6GKO157S","3XUSYT70ITN3RRKBJPNBFGD6FGOD06","","","null","","","","","","","",""
"852.6999999880791","","image-keyboard-response","341","184381","0.0-270.0","3WQQ9FUS6BGUG3PORZEM2ORA3JZB8W","A3QSFE6GKO157S","3XUSYT70ITN3RRKBJPNBFGD6FGOD06","","img/set1/S2.jpg","68","2","structured_normal","68","true","structured_normal,structured_incentive,random","2,3,1,2","",""
"null","","html-keyboard-response","342","184733","0.0-271.0","3WQQ9FUS6BGUG3PORZEM2ORA3JZB8W","A3QSFE6GKO157S","3XUSYT70ITN3RRKBJPNBFGD6FGOD06","","<img src=""img/set1/S2.jpg"" width=""540"" height = ""360"" style=""border:16px solid orange"">","null","","","","","","","",""
"null","","html-keyboard-response","343","184735","0.0-272.0","3WQQ9FUS6BGUG3PORZEM2ORA3JZB8W","A3QSFE6GKO157S","3XUSYT70ITN3RRKBJPNBFGD6FGOD06","","","null","","","","","","","",""
"684.8000000119209","","image-keyboard-response","344","185421","0.0-273.0","3WQQ9FUS6BGUG3PORZEM2ORA3JZB8W","A3QSFE6GKO157S","3XUSYT70ITN3RRKBJPNBFGD6FGOD06","","img/set1/S4.jpg","74","4","structured_normal","74","true","structured_normal,structured_incentive,random","2,3,1,2","",""
"null","","html-keyboard-response","345","185773","0.0-274.0","3WQQ9FUS6BGUG3PORZEM2ORA3JZB8W","A3QSFE6GKO157S","3XUSYT70ITN3RRKBJPNBFGD6FGOD06","","<img src=""img/set1/S4.jpg"" width=""540"" height = ""360"" style=""border:16px solid orange"">","null","","","","","","","",""
"null","","html-keyboard-response","346","185776","0.0-275.0","3WQQ9FUS6BGUG3PORZEM2ORA3JZB8W","A3QSFE6GKO157S","3XUSYT70ITN3RRKBJPNBFGD6FGOD06","","","null","","","","","","","",""
"732.1000000238419","","image-keyboard-response","347","186509","0.0-276.0","3WQQ9FUS6BGUG3PORZEM2ORA3JZB8W","A3QSFE6GKO157S","3XUSYT70ITN3RRKBJPNBFGD6FGOD06","","img/set1/S3.jpg","72","3","structured_normal","72","true","structured_normal,structured_incentive,random","2,3,1,2","",""
"null","","html-keyboard-response","348","186860","0.0-277.0","3WQQ9FUS6BGUG3PORZEM2ORA3JZB8W","A3QSFE6GKO157S","3XUSYT70ITN3RRKBJPNBFGD6FGOD06","","<img src=""img/set1/S3.jpg"" width=""540"" height = ""360"" style=""border:16px solid orange"">","null","","","","","","","",""
"null","","html-keyboard-response","349","186863","0.0-278.0","3WQQ9FUS6BGUG3PORZEM2ORA3JZB8W","A3QSFE6GKO157S","3XUSYT70ITN3RRKBJPNBFGD6FGOD06","","","null","","","","","","","",""
"604.8999999761581","","image-keyboard-response","350","187469","0.0-279.0","3WQQ9FUS6BGUG3PORZEM2ORA3JZB8W","A3QSFE6GKO157S","3XUSYT70ITN3RRKBJPNBFGD6FGOD06","","img/set1/S1.jpg","83","1","structured_normal","83","true","structured_normal,structured_incentive,random","2,3,1,2","",""
"null","","html-keyboard-response","351","187834","0.0-280.0","3WQQ9FUS6BGUG3PORZEM2ORA3JZB8W","A3QSFE6GKO157S","3XUSYT70ITN3RRKBJPNBFGD6FGOD06","","<img src=""img/set1/S1.jpg"" width=""540"" height = ""360"" style=""border:16px solid orange"">","null","","","","","","","",""
"null","","html-keyboard-response","352","187837","0.0-281.0","3WQQ9FUS6BGUG3PORZEM2ORA3JZB8W","A3QSFE6GKO157S","3XUSYT70ITN3RRKBJPNBFGD6FGOD06","","","null","","","","","","","",""
"966.6999999880791","","image-keyboard-response","353","188805","0.0-282.0","3WQQ9FUS6BGUG3PORZEM2ORA3JZB8W","A3QSFE6GKO157S","3XUSYT70ITN3RRKBJPNBFGD6FGOD06","","img/set1/S3.jpg","72","3","structured_normal","72","true","structured_normal,structured_incentive,random","2,3,1,2","",""
"null","","html-keyboard-response","354","189157","0.0-283.0","3WQQ9FUS6BGUG3PORZEM2ORA3JZB8W","A3QSFE6GKO157S","3XUSYT70ITN3RRKBJPNBFGD6FGOD06","","<img src=""img/set1/S3.jpg"" width=""540"" height = ""360"" style=""border:16px solid orange"">","null","","","","","","","",""
"null","","html-keyboard-response","355","189159","0.0-284.0","3WQQ9FUS6BGUG3PORZEM2ORA3JZB8W","A3QSFE6GKO157S","3XUSYT70ITN3RRKBJPNBFGD6FGOD06","","","null","","","","","","","",""
"572.9000000357628","","image-keyboard-response","356","189733","0.0-285.0","3WQQ9FUS6BGUG3PORZEM2ORA3JZB8W","A3QSFE6GKO157S","3XUSYT70ITN3RRKBJPNBFGD6FGOD06","","img/set1/S2.jpg","68","2","structured_normal","68","true","structured_normal,structured_incentive,random","2,3,1,2","",""
"null","","html-keyboard-response","357","190085","0.0-286.0","3WQQ9FUS6BGUG3PORZEM2ORA3JZB8W","A3QSFE6GKO157S","3XUSYT70ITN3RRKBJPNBFGD6FGOD06","","<img src=""img/set1/S2.jpg"" width=""540"" height = ""360"" style=""border:16px solid orange"">","null","","","","","","","",""
"null","","html-keyboard-response","358","190088","0.0-287.0","3WQQ9FUS6BGUG3PORZEM2ORA3JZB8W","A3QSFE6GKO157S","3XUSYT70ITN3RRKBJPNBFGD6FGOD06","","","null","","","","","","","",""
"819.8999999761581","","image-keyboard-response","359","190909","0.0-288.0","3WQQ9FUS6BGUG3PORZEM2ORA3JZB8W","A3QSFE6GKO157S","3XUSYT70ITN3RRKBJPNBFGD6FGOD06","","img/set1/S3.jpg","72","3","structured_normal","72","true","structured_normal,structured_incentive,random","2,3,1,2","",""
"null","","html-keyboard-response","360","191270","0.0-289.0","3WQQ9FUS6BGUG3PORZEM2ORA3JZB8W","A3QSFE6GKO157S","3XUSYT70ITN3RRKBJPNBFGD6FGOD06","","<img src=""img/set1/S3.jpg"" width=""540"" height = ""360"" style=""border:16px solid orange"">","null","","","","","","","",""
"null","","html-keyboard-response","361","191273","0.0-290.0","3WQQ9FUS6BGUG3PORZEM2ORA3JZB8W","A3QSFE6GKO157S","3XUSYT70ITN3RRKBJPNBFGD6FGOD06","","","null","","","","","","","",""
"586.5","","image-keyboard-response","362","191861","0.0-291.0","3WQQ9FUS6BGUG3PORZEM2ORA3JZB8W","A3QSFE6GKO157S","3XUSYT70ITN3RRKBJPNBFGD6FGOD06","","img/set1/S4.jpg","74","4","structured_normal","74","true","structured_normal,structured_incentive,random","2,3,1,2","",""
"null","","html-keyboard-response","363","192212","0.0-292.0","3WQQ9FUS6BGUG3PORZEM2ORA3JZB8W","A3QSFE6GKO157S","3XUSYT70ITN3RRKBJPNBFGD6FGOD06","","<img src=""img/set1/S4.jpg"" width=""540"" height = ""360"" style=""border:16px solid orange"">","null","","","","","","","",""
"null","","html-keyboard-response","364","192215","0.0-293.0","3WQQ9FUS6BGUG3PORZEM2ORA3JZB8W","A3QSFE6GKO157S","3XUSYT70ITN3RRKBJPNBFGD6FGOD06","","","null","","","","","","","",""
"604.8000000119209","","image-keyboard-response","365","192821","0.0-294.0","3WQQ9FUS6BGUG3PORZEM2ORA3JZB8W","A3QSFE6GKO157S","3XUSYT70ITN3RRKBJPNBFGD6FGOD06","","img/set1/S1.jpg","83","1","structured_normal","83","true","structured_normal,structured_incentive,random","2,3,1,2","",""
"null","","html-keyboard-response","366","193173","0.0-295.0","3WQQ9FUS6BGUG3PORZEM2ORA3JZB8W","A3QSFE6GKO157S","3XUSYT70ITN3RRKBJPNBFGD6FGOD06","","<img src=""img/set1/S1.jpg"" width=""540"" height = ""360"" style=""border:16px solid orange"">","null","","","","","","","",""
"null","","html-keyboard-response","367","193175","0.0-296.0","3WQQ9FUS6BGUG3PORZEM2ORA3JZB8W","A3QSFE6GKO157S","3XUSYT70ITN3RRKBJPNBFGD6FGOD06","","","null","","","","","","","",""
"556.5","","image-keyboard-response","368","193733","0.0-297.0","3WQQ9FUS6BGUG3PORZEM2ORA3JZB8W","A3QSFE6GKO157S","3XUSYT70ITN3RRKBJPNBFGD6FGOD06","","img/set1/S2.jpg","68","2","structured_normal","68","true","structured_normal,structured_incentive,random","2,3,1,2","",""
"null","","html-keyboard-response","369","194084","0.0-298.0","3WQQ9FUS6BGUG3PORZEM2ORA3JZB8W","A3QSFE6GKO157S","3XUSYT70ITN3RRKBJPNBFGD6FGOD06","","<img src=""img/set1/S2.jpg"" width=""540"" height = ""360"" style=""border:16px solid orange"">","null","","","","","","","",""
"null","","html-keyboard-response","370","194087","0.0-299.0","3WQQ9FUS6BGUG3PORZEM2ORA3JZB8W","A3QSFE6GKO157S","3XUSYT70ITN3RRKBJPNBFGD6FGOD06","","","null","","","","","","","",""
"542.6000000238419","","image-keyboard-response","371","194630","0.0-300.0","3WQQ9FUS6BGUG3PORZEM2ORA3JZB8W","A3QSFE6GKO157S","3XUSYT70ITN3RRKBJPNBFGD6FGOD06","","img/set1/S3.jpg","72","3","structured_normal","72","true","structured_normal,structured_incentive,random","2,3,1,2","",""
"null","","html-keyboard-response","372","194982","0.0-301.0","3WQQ9FUS6BGUG3PORZEM2ORA3JZB8W","A3QSFE6GKO157S","3XUSYT70ITN3RRKBJPNBFGD6FGOD06","","<img src=""img/set1/S3.jpg"" width=""540"" height = ""360"" style=""border:16px solid orange"">","null","","","","","","","",""
"null","","html-keyboard-response","373","194985","0.0-302.0","3WQQ9FUS6BGUG3PORZEM2ORA3JZB8W","A3QSFE6GKO157S","3XUSYT70ITN3RRKBJPNBFGD6FGOD06","","","null","","","","","","","",""
"515.4000000357628","","image-keyboard-response","374","195501","0.0-303.0","3WQQ9FUS6BGUG3PORZEM2ORA3JZB8W","A3QSFE6GKO157S","3XUSYT70ITN3RRKBJPNBFGD6FGOD06","","img/set1/S2.jpg","68","2","structured_normal","68","true","structured_normal,structured_incentive,random","2,3,1,2","",""
"null","","html-keyboard-response","375","195853","0.0-304.0","3WQQ9FUS6BGUG3PORZEM2ORA3JZB8W","A3QSFE6GKO157S","3XUSYT70ITN3RRKBJPNBFGD6FGOD06","","<img src=""img/set1/S2.jpg"" width=""540"" height = ""360"" style=""border:16px solid orange"">","null","","","","","","","",""
"null","","html-keyboard-response","376","195855","0.0-305.0","3WQQ9FUS6BGUG3PORZEM2ORA3JZB8W","A3QSFE6GKO157S","3XUSYT70ITN3RRKBJPNBFGD6FGOD06","","","null","","","","","","","",""
"533","","image-keyboard-response","377","196389","0.0-306.0","3WQQ9FUS6BGUG3PORZEM2ORA3JZB8W","A3QSFE6GKO157S","3XUSYT70ITN3RRKBJPNBFGD6FGOD06","","img/set1/S3.jpg","72","3","structured_normal","72","true","structured_normal,structured_incentive,random","2,3,1,2","",""
"null","","html-keyboard-response","378","196741","0.0-307.0","3WQQ9FUS6BGUG3PORZEM2ORA3JZB8W","A3QSFE6GKO157S","3XUSYT70ITN3RRKBJPNBFGD6FGOD06","","<img src=""img/set1/S3.jpg"" width=""540"" height = ""360"" style=""border:16px solid orange"">","null","","","","","","","",""
"null","","html-keyboard-response","379","196743","0.0-308.0","3WQQ9FUS6BGUG3PORZEM2ORA3JZB8W","A3QSFE6GKO157S","3XUSYT70ITN3RRKBJPNBFGD6FGOD06","","","null","","","","","","","",""
"629.1999999880791","","image-keyboard-response","380","197373","0.0-309.0","3WQQ9FUS6BGUG3PORZEM2ORA3JZB8W","A3QSFE6GKO157S","3XUSYT70ITN3RRKBJPNBFGD6FGOD06","","img/set1/S1.jpg","83","1","structured_normal","83","true","structured_normal,structured_incentive,random","2,3,1,2","",""
"null","","html-keyboard-response","381","197725","0.0-310.0","3WQQ9FUS6BGUG3PORZEM2ORA3JZB8W","A3QSFE6GKO157S","3XUSYT70ITN3RRKBJPNBFGD6FGOD06","","<img src=""img/set1/S1.jpg"" width=""540"" height = ""360"" style=""border:16px solid orange"">","null","","","","","","","",""
"null","","html-keyboard-response","382","197727","0.0-311.0","3WQQ9FUS6BGUG3PORZEM2ORA3JZB8W","A3QSFE6GKO157S","3XUSYT70ITN3RRKBJPNBFGD6FGOD06","","","null","","","","","","","",""
"573.3999999761581","","image-keyboard-response","383","198301","0.0-312.0","3WQQ9FUS6BGUG3PORZEM2ORA3JZB8W","A3QSFE6GKO157S","3XUSYT70ITN3RRKBJPNBFGD6FGOD06","","img/set1/S4.jpg","74","4","structured_normal","74","true","structured_normal,structured_incentive,random","2,3,1,2","",""
"null","","html-keyboard-response","384","198653","0.0-313.0","3WQQ9FUS6BGUG3PORZEM2ORA3JZB8W","A3QSFE6GKO157S","3XUSYT70ITN3RRKBJPNBFGD6FGOD06","","<img src=""img/set1/S4.jpg"" width=""540"" height = ""360"" style=""border:16px solid orange"">","null","","","","","","","",""
"null","","html-keyboard-response","385","198655","0.0-314.0","3WQQ9FUS6BGUG3PORZEM2ORA3JZB8W","A3QSFE6GKO157S","3XUSYT70ITN3RRKBJPNBFGD6FGOD06","","","null","","","","","","","",""
"637.0999999642372","","image-keyboard-response","386","199293","0.0-315.0","3WQQ9FUS6BGUG3PORZEM2ORA3JZB8W","A3QSFE6GKO157S","3XUSYT70ITN3RRKBJPNBFGD6FGOD06","","img/set1/S1.jpg","83","1","structured_normal","83","true","structured_normal,structured_incentive,random","2,3,1,2","",""
"null","","html-keyboard-response","387","199645","0.0-316.0","3WQQ9FUS6BGUG3PORZEM2ORA3JZB8W","A3QSFE6GKO157S","3XUSYT70ITN3RRKBJPNBFGD6FGOD06","","<img src=""img/set1/S1.jpg"" width=""540"" height = ""360"" style=""border:16px solid orange"">","null","","","","","","","",""
"null","","html-keyboard-response","388","199647","0.0-317.0","3WQQ9FUS6BGUG3PORZEM2ORA3JZB8W","A3QSFE6GKO157S","3XUSYT70ITN3RRKBJPNBFGD6FGOD06","","","null","","","","","","","",""
"828.6999999880791","","image-keyboard-response","389","200477","0.0-318.0","3WQQ9FUS6BGUG3PORZEM2ORA3JZB8W","A3QSFE6GKO157S","3XUSYT70ITN3RRKBJPNBFGD6FGOD06","","img/set1/S4.jpg","74","4","structured_normal","74","true","structured_normal,structured_incentive,random","2,3,1,2","",""
"null","","html-keyboard-response","390","200829","0.0-319.0","3WQQ9FUS6BGUG3PORZEM2ORA3JZB8W","A3QSFE6GKO157S","3XUSYT70ITN3RRKBJPNBFGD6FGOD06","","<img src=""img/set1/S4.jpg"" width=""540"" height = ""360"" style=""border:16px solid orange"">","null","","","","","","","",""
"null","","html-keyboard-response","391","200831","0.0-320.0","3WQQ9FUS6BGUG3PORZEM2ORA3JZB8W","A3QSFE6GKO157S","3XUSYT70ITN3RRKBJPNBFGD6FGOD06","","","null","","","","","","","",""
"564.5999999642372","","image-keyboard-response","392","201397","0.0-321.0","3WQQ9FUS6BGUG3PORZEM2ORA3JZB8W","A3QSFE6GKO157S","3XUSYT70ITN3RRKBJPNBFGD6FGOD06","","img/set1/S2.jpg","68","2","structured_normal","68","true","structured_normal,structured_incentive,random","2,3,1,2","",""
"null","","html-keyboard-response","393","201749","0.0-322.0","3WQQ9FUS6BGUG3PORZEM2ORA3JZB8W","A3QSFE6GKO157S","3XUSYT70ITN3RRKBJPNBFGD6FGOD06","","<img src=""img/set1/S2.jpg"" width=""540"" height = ""360"" style=""border:16px solid orange"">","null","","","","","","","",""
"null","","html-keyboard-response","394","201751","0.0-323.0","3WQQ9FUS6BGUG3PORZEM2ORA3JZB8W","A3QSFE6GKO157S","3XUSYT70ITN3RRKBJPNBFGD6FGOD06","","","null","","","","","","","",""
"541","","image-keyboard-response","395","202293","0.0-324.0","3WQQ9FUS6BGUG3PORZEM2ORA3JZB8W","A3QSFE6GKO157S","3XUSYT70ITN3RRKBJPNBFGD6FGOD06","","img/set1/S3.jpg","72","3","structured_normal","72","true","structured_normal,structured_incentive,random","2,3,1,2","",""
"null","","html-keyboard-response","396","202645","0.0-325.0","3WQQ9FUS6BGUG3PORZEM2ORA3JZB8W","A3QSFE6GKO157S","3XUSYT70ITN3RRKBJPNBFGD6FGOD06","","<img src=""img/set1/S3.jpg"" width=""540"" height = ""360"" style=""border:16px solid orange"">","null","","","","","","","",""
"null","","html-keyboard-response","397","202647","0.0-326.0","3WQQ9FUS6BGUG3PORZEM2ORA3JZB8W","A3QSFE6GKO157S","3XUSYT70ITN3RRKBJPNBFGD6FGOD06","","","null","","","","","","","",""
"565.1999999880791","","image-keyboard-response","398","203213","0.0-327.0","3WQQ9FUS6BGUG3PORZEM2ORA3JZB8W","A3QSFE6GKO157S","3XUSYT70ITN3RRKBJPNBFGD6FGOD06","","img/set1/S2.jpg","68","2","structured_normal","68","true","structured_normal,structured_incentive,random","2,3,1,2","",""
"null","","html-keyboard-response","399","203565","0.0-328.0","3WQQ9FUS6BGUG3PORZEM2ORA3JZB8W","A3QSFE6GKO157S","3XUSYT70ITN3RRKBJPNBFGD6FGOD06","","<img src=""img/set1/S2.jpg"" width=""540"" height = ""360"" style=""border:16px solid orange"">","null","","","","","","","",""
"null","","html-keyboard-response","400","203567","0.0-329.0","3WQQ9FUS6BGUG3PORZEM2ORA3JZB8W","A3QSFE6GKO157S","3XUSYT70ITN3RRKBJPNBFGD6FGOD06","","","null","","","","","","","",""
"564.8999999761581","","image-keyboard-response","401","204133","0.0-330.0","3WQQ9FUS6BGUG3PORZEM2ORA3JZB8W","A3QSFE6GKO157S","3XUSYT70ITN3RRKBJPNBFGD6FGOD06","","img/set1/S4.jpg","74","4","structured_normal","74","true","structured_normal,structured_incentive,random","2,3,1,2","",""
"null","","html-keyboard-response","402","204485","0.0-331.0","3WQQ9FUS6BGUG3PORZEM2ORA3JZB8W","A3QSFE6GKO157S","3XUSYT70ITN3RRKBJPNBFGD6FGOD06","","<img src=""img/set1/S4.jpg"" width=""540"" height = ""360"" style=""border:16px solid orange"">","null","","","","","","","",""
"null","","html-keyboard-response","403","204488","0.0-332.0","3WQQ9FUS6BGUG3PORZEM2ORA3JZB8W","A3QSFE6GKO157S","3XUSYT70ITN3RRKBJPNBFGD6FGOD06","","","null","","","","","","","",""
"628","","image-keyboard-response","404","205117","0.0-333.0","3WQQ9FUS6BGUG3PORZEM2ORA3JZB8W","A3QSFE6GKO157S","3XUSYT70ITN3RRKBJPNBFGD6FGOD06","","img/set1/S2.jpg","68","2","structured_normal","68","true","structured_normal,structured_incentive,random","2,3,1,2","",""
"null","","html-keyboard-response","405","205468","0.0-334.0","3WQQ9FUS6BGUG3PORZEM2ORA3JZB8W","A3QSFE6GKO157S","3XUSYT70ITN3RRKBJPNBFGD6FGOD06","","<img src=""img/set1/S2.jpg"" width=""540"" height = ""360"" style=""border:16px solid orange"">","null","","","","","","","",""
"null","","html-keyboard-response","406","205471","0.0-335.0","3WQQ9FUS6BGUG3PORZEM2ORA3JZB8W","A3QSFE6GKO157S","3XUSYT70ITN3RRKBJPNBFGD6FGOD06","","","null","","","","","","","",""
"821.5999999642372","","image-keyboard-response","407","206293","0.0-336.0","3WQQ9FUS6BGUG3PORZEM2ORA3JZB8W","A3QSFE6GKO157S","3XUSYT70ITN3RRKBJPNBFGD6FGOD06","","img/set1/S4.jpg","74","4","structured_normal","74","true","structured_normal,structured_incentive,random","2,3,1,2","",""
"null","","html-keyboard-response","408","206653","0.0-337.0","3WQQ9FUS6BGUG3PORZEM2ORA3JZB8W","A3QSFE6GKO157S","3XUSYT70ITN3RRKBJPNBFGD6FGOD06","","<img src=""img/set1/S4.jpg"" width=""540"" height = ""360"" style=""border:16px solid orange"">","null","","","","","","","",""
