"rt","url","trial_type","trial_index","time_elapsed","internal_node_id","assignmentID","mturkID","hitID","view_history","stimulus","key_press","state","test_part","correct_response","correct","order_block","order_chunk","bonus","responses"
"11952","consent.html","external-html","0","12047","0.0-0.0","3ND9UOO81LOHJD7IGFJMU7Q1XKTWLW","A6HDSE80LQPR8","3XUSYT70ITN3RRKBJPNBFGD6FGOD06","","","","","","","","","","",""
"54772","","instructions","1","66821","0.0-1.0","3ND9UOO81LOHJD7IGFJMU7Q1XKTWLW","A6HDSE80LQPR8","3XUSYT70ITN3RRKBJPNBFGD6FGOD06","[{""page_index"":0,""viewing_time"":2247},{""page_index"":1,""viewing_time"":5798},{""page_index"":2,""viewing_time"":7821},{""page_index"":3,""viewing_time"":9895},{""page_index"":4,""viewing_time"":5501},{""page_index"":5,""viewing_time"":9608},{""page_index"":6,""viewing_time"":2346},{""page_index"":7,""viewing_time"":11556}]","","","","","","","","","",""
"2137","","image-keyboard-response","2","68960","0.0-2.0-0.0","3ND9UOO81LOHJD7IGFJMU7Q1XKTWLW","A6HDSE80LQPR8","3XUSYT70ITN3RRKBJPNBFGD6FGOD06","","img/practice/S3.jpg","83","3","practice","72","false","","","",""
"null","","html-keyboard-response","3","69283","0.0-2.0-1.0","3ND9UOO81LOHJD7IGFJMU7Q1XKTWLW","A6HDSE80LQPR8","3XUSYT70ITN3RRKBJPNBFGD6FGOD06","","<img src=""img/practice/S3.jpg"" width=""540"" height = ""360"">","null","","","","","","","",""
"null","","html-keyboard-response","4","69283","0.0-2.0-2.0","3ND9UOO81LOHJD7IGFJMU7Q1XKTWLW","A6HDSE80LQPR8","3XUSYT70ITN3RRKBJPNBFGD6FGOD06","","","null","","","","","","","",""
"1216","","image-keyboard-response","5","70500","0.0-2.0-0.1","3ND9UOO81LOHJD7IGFJMU7Q1XKTWLW","A6HDSE80LQPR8","3XUSYT70ITN3RRKBJPNBFGD6FGOD06","","img/practice/S1.jpg","68","1","practice","83","false","","","",""
"null","","html-keyboard-response","6","70802","0.0-2.0-1.1","3ND9UOO81LOHJD7IGFJMU7Q1XKTWLW","A6HDSE80LQPR8","3XUSYT70ITN3RRKBJPNBFGD6FGOD06","","<img src=""img/practice/S1.jpg"" width=""540"" height = ""360"">","null","","","","","","","",""
"null","","html-keyboard-response","7","70803","0.0-2.0-2.1","3ND9UOO81LOHJD7IGFJMU7Q1XKTWLW","A6HDSE80LQPR8","3XUSYT70ITN3RRKBJPNBFGD6FGOD06","","","null","","","","","","","",""
"887","","image-keyboard-response","8","71691","0.0-2.0-0.2","3ND9UOO81LOHJD7IGFJMU7Q1XKTWLW","A6HDSE80LQPR8","3XUSYT70ITN3RRKBJPNBFGD6FGOD06","","img/practice/S4.jpg","72","4","practice","74","false","","","",""
"null","","html-keyboard-response","9","72002","0.0-2.0-1.2","3ND9UOO81LOHJD7IGFJMU7Q1XKTWLW","A6HDSE80LQPR8","3XUSYT70ITN3RRKBJPNBFGD6FGOD06","","<img src=""img/practice/S4.jpg"" width=""540"" height = ""360"">","null","","","","","","","",""
"null","","html-keyboard-response","10","72003","0.0-2.0-2.2","3ND9UOO81LOHJD7IGFJMU7Q1XKTWLW","A6HDSE80LQPR8","3XUSYT70ITN3RRKBJPNBFGD6FGOD06","","","null","","","","","","","",""
"1218","","image-keyboard-response","11","73223","0.0-2.0-0.3","3ND9UOO81LOHJD7IGFJMU7Q1XKTWLW","A6HDSE80LQPR8","3XUSYT70ITN3RRKBJPNBFGD6FGOD06","","img/practice/S2.jpg","74","2","practice","68","false","","","",""
"null","","html-keyboard-response","12","73542","0.0-2.0-1.3","3ND9UOO81LOHJD7IGFJMU7Q1XKTWLW","A6HDSE80LQPR8","3XUSYT70ITN3RRKBJPNBFGD6FGOD06","","<img src=""img/practice/S2.jpg"" width=""540"" height = ""360"">","null","","","","","","","",""
"null","","html-keyboard-response","13","73543","0.0-2.0-2.3","3ND9UOO81LOHJD7IGFJMU7Q1XKTWLW","A6HDSE80LQPR8","3XUSYT70ITN3RRKBJPNBFGD6FGOD06","","","null","","","","","","","",""
"918","","image-keyboard-response","14","74462","0.0-2.0-0.4","3ND9UOO81LOHJD7IGFJMU7Q1XKTWLW","A6HDSE80LQPR8","3XUSYT70ITN3RRKBJPNBFGD6FGOD06","","img/practice/S3.jpg","83","3","practice","72","false","","","",""
"null","","html-keyboard-response","15","74771","0.0-2.0-1.4","3ND9UOO81LOHJD7IGFJMU7Q1XKTWLW","A6HDSE80LQPR8","3XUSYT70ITN3RRKBJPNBFGD6FGOD06","","<img src=""img/practice/S3.jpg"" width=""540"" height = ""360"">","null","","","","","","","",""
"null","","html-keyboard-response","16","74772","0.0-2.0-2.4","3ND9UOO81LOHJD7IGFJMU7Q1XKTWLW","A6HDSE80LQPR8","3XUSYT70ITN3RRKBJPNBFGD6FGOD06","","","null","","","","","","","",""
"333","","image-keyboard-response","17","75105","0.0-2.0-0.5","3ND9UOO81LOHJD7IGFJMU7Q1XKTWLW","A6HDSE80LQPR8","3XUSYT70ITN3RRKBJPNBFGD6FGOD06","","img/practice/S1.jpg","68","1","practice","83","false","","","",""
"null","","html-keyboard-response","18","75421","0.0-2.0-1.5","3ND9UOO81LOHJD7IGFJMU7Q1XKTWLW","A6HDSE80LQPR8","3XUSYT70ITN3RRKBJPNBFGD6FGOD06","","<img src=""img/practice/S1.jpg"" width=""540"" height = ""360"">","null","","","","","","","",""
"null","","html-keyboard-response","19","75422","0.0-2.0-2.5","3ND9UOO81LOHJD7IGFJMU7Q1XKTWLW","A6HDSE80LQPR8","3XUSYT70ITN3RRKBJPNBFGD6FGOD06","","","null","","","","","","","",""
"199","","image-keyboard-response","20","75621","0.0-2.0-0.6","3ND9UOO81LOHJD7IGFJMU7Q1XKTWLW","A6HDSE80LQPR8","3XUSYT70ITN3RRKBJPNBFGD6FGOD06","","img/practice/S4.jpg","72","4","practice","74","false","","","",""
"null","","html-keyboard-response","21","75932","0.0-2.0-1.6","3ND9UOO81LOHJD7IGFJMU7Q1XKTWLW","A6HDSE80LQPR8","3XUSYT70ITN3RRKBJPNBFGD6FGOD06","","<img src=""img/practice/S4.jpg"" width=""540"" height = ""360"">","null","","","","","","","",""
"null","","html-keyboard-response","22","75932","0.0-2.0-2.6","3ND9UOO81LOHJD7IGFJMU7Q1XKTWLW","A6HDSE80LQPR8","3XUSYT70ITN3RRKBJPNBFGD6FGOD06","","","null","","","","","","","",""
"208","","image-keyboard-response","23","76141","0.0-2.0-0.7","3ND9UOO81LOHJD7IGFJMU7Q1XKTWLW","A6HDSE80LQPR8","3XUSYT70ITN3RRKBJPNBFGD6FGOD06","","img/practice/S2.jpg","74","2","practice","68","false","","","",""
"null","","html-keyboard-response","24","76458","0.0-2.0-1.7","3ND9UOO81LOHJD7IGFJMU7Q1XKTWLW","A6HDSE80LQPR8","3XUSYT70ITN3RRKBJPNBFGD6FGOD06","","<img src=""img/practice/S2.jpg"" width=""540"" height = ""360"">","null","","","","","","","",""
"null","","html-keyboard-response","25","76459","0.0-2.0-2.7","3ND9UOO81LOHJD7IGFJMU7Q1XKTWLW","A6HDSE80LQPR8","3XUSYT70ITN3RRKBJPNBFGD6FGOD06","","","null","","","","","","","",""
"240","","image-keyboard-response","26","76699","0.0-2.0-0.8","3ND9UOO81LOHJD7IGFJMU7Q1XKTWLW","A6HDSE80LQPR8","3XUSYT70ITN3RRKBJPNBFGD6FGOD06","","img/practice/S3.jpg","83","3","practice","72","false","","","",""
"null","","html-keyboard-response","27","77002","0.0-2.0-1.8","3ND9UOO81LOHJD7IGFJMU7Q1XKTWLW","A6HDSE80LQPR8","3XUSYT70ITN3RRKBJPNBFGD6FGOD06","","<img src=""img/practice/S3.jpg"" width=""540"" height = ""360"">","null","","","","","","","",""
"null","","html-keyboard-response","28","77003","0.0-2.0-2.8","3ND9UOO81LOHJD7IGFJMU7Q1XKTWLW","A6HDSE80LQPR8","3XUSYT70ITN3RRKBJPNBFGD6FGOD06","","","null","","","","","","","",""
"88","","image-keyboard-response","29","77091","0.0-2.0-0.9","3ND9UOO81LOHJD7IGFJMU7Q1XKTWLW","A6HDSE80LQPR8","3XUSYT70ITN3RRKBJPNBFGD6FGOD06","","img/practice/S2.jpg","68","2","practice","68","true","","","",""
"null","","html-keyboard-response","30","77402","0.0-2.0-1.9","3ND9UOO81LOHJD7IGFJMU7Q1XKTWLW","A6HDSE80LQPR8","3XUSYT70ITN3RRKBJPNBFGD6FGOD06","","<img src=""img/practice/S2.jpg"" width=""540"" height = ""360"" style=""border:16px solid orange"">","null","","","","","","","",""
"null","","html-keyboard-response","31","77403","0.0-2.0-2.9","3ND9UOO81LOHJD7IGFJMU7Q1XKTWLW","A6HDSE80LQPR8","3XUSYT70ITN3RRKBJPNBFGD6FGOD06","","","null","","","","","","","",""
"1181","","image-keyboard-response","32","78585","0.0-2.0-0.10","3ND9UOO81LOHJD7IGFJMU7Q1XKTWLW","A6HDSE80LQPR8","3XUSYT70ITN3RRKBJPNBFGD6FGOD06","","img/practice/S4.jpg","72","4","practice","74","false","","","",""
"null","","html-keyboard-response","33","78902","0.0-2.0-1.10","3ND9UOO81LOHJD7IGFJMU7Q1XKTWLW","A6HDSE80LQPR8","3XUSYT70ITN3RRKBJPNBFGD6FGOD06","","<img src=""img/practice/S4.jpg"" width=""540"" height = ""360"">","null","","","","","","","",""
"null","","html-keyboard-response","34","78903","0.0-2.0-2.10","3ND9UOO81LOHJD7IGFJMU7Q1XKTWLW","A6HDSE80LQPR8","3XUSYT70ITN3RRKBJPNBFGD6FGOD06","","","null","","","","","","","",""
"567","","image-keyboard-response","35","79471","0.0-2.0-0.11","3ND9UOO81LOHJD7IGFJMU7Q1XKTWLW","A6HDSE80LQPR8","3XUSYT70ITN3RRKBJPNBFGD6FGOD06","","img/practice/S1.jpg","68","1","practice","83","false","","","",""
"null","","html-keyboard-response","36","79783","0.0-2.0-1.11","3ND9UOO81LOHJD7IGFJMU7Q1XKTWLW","A6HDSE80LQPR8","3XUSYT70ITN3RRKBJPNBFGD6FGOD06","","<img src=""img/practice/S1.jpg"" width=""540"" height = ""360"">","null","","","","","","","",""
"null","","html-keyboard-response","37","79783","0.0-2.0-2.11","3ND9UOO81LOHJD7IGFJMU7Q1XKTWLW","A6HDSE80LQPR8","3XUSYT70ITN3RRKBJPNBFGD6FGOD06","","","null","","","","","","","",""
"512","","image-keyboard-response","38","80295","0.0-2.0-0.12","3ND9UOO81LOHJD7IGFJMU7Q1XKTWLW","A6HDSE80LQPR8","3XUSYT70ITN3RRKBJPNBFGD6FGOD06","","img/practice/S4.jpg","74","4","practice","74","true","","","",""
"null","","html-keyboard-response","39","80611","0.0-2.0-1.12","3ND9UOO81LOHJD7IGFJMU7Q1XKTWLW","A6HDSE80LQPR8","3XUSYT70ITN3RRKBJPNBFGD6FGOD06","","<img src=""img/practice/S4.jpg"" width=""540"" height = ""360"" style=""border:16px solid orange"">","null","","","","","","","",""
"null","","html-keyboard-response","40","80612","0.0-2.0-2.12","3ND9UOO81LOHJD7IGFJMU7Q1XKTWLW","A6HDSE80LQPR8","3XUSYT70ITN3RRKBJPNBFGD6FGOD06","","","null","","","","","","","",""
"832","","image-keyboard-response","41","81445","0.0-2.0-0.13","3ND9UOO81LOHJD7IGFJMU7Q1XKTWLW","A6HDSE80LQPR8","3XUSYT70ITN3RRKBJPNBFGD6FGOD06","","img/practice/S3.jpg","83","3","practice","72","false","","","",""
"null","","html-keyboard-response","42","81752","0.0-2.0-1.13","3ND9UOO81LOHJD7IGFJMU7Q1XKTWLW","A6HDSE80LQPR8","3XUSYT70ITN3RRKBJPNBFGD6FGOD06","","<img src=""img/practice/S3.jpg"" width=""540"" height = ""360"">","null","","","","","","","",""
"null","","html-keyboard-response","43","81753","0.0-2.0-2.13","3ND9UOO81LOHJD7IGFJMU7Q1XKTWLW","A6HDSE80LQPR8","3XUSYT70ITN3RRKBJPNBFGD6FGOD06","","","null","","","","","","","",""
"1103","","image-keyboard-response","44","82857","0.0-2.0-0.14","3ND9UOO81LOHJD7IGFJMU7Q1XKTWLW","A6HDSE80LQPR8","3XUSYT70ITN3RRKBJPNBFGD6FGOD06","","img/practice/S1.jpg","74","1","practice","83","false","","","",""
"null","","html-keyboard-response","45","83172","0.0-2.0-1.14","3ND9UOO81LOHJD7IGFJMU7Q1XKTWLW","A6HDSE80LQPR8","3XUSYT70ITN3RRKBJPNBFGD6FGOD06","","<img src=""img/practice/S1.jpg"" width=""540"" height = ""360"">","null","","","","","","","",""
"null","","html-keyboard-response","46","83173","0.0-2.0-2.14","3ND9UOO81LOHJD7IGFJMU7Q1XKTWLW","A6HDSE80LQPR8","3XUSYT70ITN3RRKBJPNBFGD6FGOD06","","","null","","","","","","","",""
"554","","image-keyboard-response","47","83727","0.0-2.0-0.15","3ND9UOO81LOHJD7IGFJMU7Q1XKTWLW","A6HDSE80LQPR8","3XUSYT70ITN3RRKBJPNBFGD6FGOD06","","img/practice/S2.jpg","68","2","practice","68","true","","","",""
"null","","html-keyboard-response","48","84042","0.0-2.0-1.15","3ND9UOO81LOHJD7IGFJMU7Q1XKTWLW","A6HDSE80LQPR8","3XUSYT70ITN3RRKBJPNBFGD6FGOD06","","<img src=""img/practice/S2.jpg"" width=""540"" height = ""360"" style=""border:16px solid orange"">","null","","","","","","","",""
"null","","html-keyboard-response","49","84043","0.0-2.0-2.15","3ND9UOO81LOHJD7IGFJMU7Q1XKTWLW","A6HDSE80LQPR8","3XUSYT70ITN3RRKBJPNBFGD6FGOD06","","","null","","","","","","","",""
"1018","","image-keyboard-response","50","85061","0.0-2.0-0.16","3ND9UOO81LOHJD7IGFJMU7Q1XKTWLW","A6HDSE80LQPR8","3XUSYT70ITN3RRKBJPNBFGD6FGOD06","","img/practice/S4.jpg","74","4","practice","74","true","","","",""
"null","","html-keyboard-response","51","85368","0.0-2.0-1.16","3ND9UOO81LOHJD7IGFJMU7Q1XKTWLW","A6HDSE80LQPR8","3XUSYT70ITN3RRKBJPNBFGD6FGOD06","","<img src=""img/practice/S4.jpg"" width=""540"" height = ""360"" style=""border:16px solid orange"">","null","","","","","","","",""
"null","","html-keyboard-response","52","85368","0.0-2.0-2.16","3ND9UOO81LOHJD7IGFJMU7Q1XKTWLW","A6HDSE80LQPR8","3XUSYT70ITN3RRKBJPNBFGD6FGOD06","","","null","","","","","","","",""
"674","","image-keyboard-response","53","86043","0.0-2.0-0.17","3ND9UOO81LOHJD7IGFJMU7Q1XKTWLW","A6HDSE80LQPR8","3XUSYT70ITN3RRKBJPNBFGD6FGOD06","","img/practice/S1.jpg","83","1","practice","83","true","","","",""
"null","","html-keyboard-response","54","86363","0.0-2.0-1.17","3ND9UOO81LOHJD7IGFJMU7Q1XKTWLW","A6HDSE80LQPR8","3XUSYT70ITN3RRKBJPNBFGD6FGOD06","","<img src=""img/practice/S1.jpg"" width=""540"" height = ""360"" style=""border:16px solid orange"">","null","","","","","","","",""
"null","","html-keyboard-response","55","86363","0.0-2.0-2.17","3ND9UOO81LOHJD7IGFJMU7Q1XKTWLW","A6HDSE80LQPR8","3XUSYT70ITN3RRKBJPNBFGD6FGOD06","","","null","","","","","","","",""
"621","","image-keyboard-response","56","86985","0.0-2.0-0.18","3ND9UOO81LOHJD7IGFJMU7Q1XKTWLW","A6HDSE80LQPR8","3XUSYT70ITN3RRKBJPNBFGD6FGOD06","","img/practice/S3.jpg","68","3","practice","72","false","","","",""
"null","","html-keyboard-response","57","87294","0.0-2.0-1.18","3ND9UOO81LOHJD7IGFJMU7Q1XKTWLW","A6HDSE80LQPR8","3XUSYT70ITN3RRKBJPNBFGD6FGOD06","","<img src=""img/practice/S3.jpg"" width=""540"" height = ""360"">","null","","","","","","","",""
"null","","html-keyboard-response","58","87294","0.0-2.0-2.18","3ND9UOO81LOHJD7IGFJMU7Q1XKTWLW","A6HDSE80LQPR8","3XUSYT70ITN3RRKBJPNBFGD6FGOD06","","","null","","","","","","","",""
"1120","","image-keyboard-response","59","88414","0.0-2.0-0.19","3ND9UOO81LOHJD7IGFJMU7Q1XKTWLW","A6HDSE80LQPR8","3XUSYT70ITN3RRKBJPNBFGD6FGOD06","","img/practice/S2.jpg","72","2","practice","68","false","","","",""
"null","","html-keyboard-response","60","88722","0.0-2.0-1.19","3ND9UOO81LOHJD7IGFJMU7Q1XKTWLW","A6HDSE80LQPR8","3XUSYT70ITN3RRKBJPNBFGD6FGOD06","","<img src=""img/practice/S2.jpg"" width=""540"" height = ""360"">","null","","","","","","","",""
"null","","html-keyboard-response","61","88723","0.0-2.0-2.19","3ND9UOO81LOHJD7IGFJMU7Q1XKTWLW","A6HDSE80LQPR8","3XUSYT70ITN3RRKBJPNBFGD6FGOD06","","","null","","","","","","","",""
"801","","image-keyboard-response","62","89525","0.0-2.0-0.20","3ND9UOO81LOHJD7IGFJMU7Q1XKTWLW","A6HDSE80LQPR8","3XUSYT70ITN3RRKBJPNBFGD6FGOD06","","img/practice/S4.jpg","74","4","practice","74","true","","","",""
"null","","html-keyboard-response","63","89842","0.0-2.0-1.20","3ND9UOO81LOHJD7IGFJMU7Q1XKTWLW","A6HDSE80LQPR8","3XUSYT70ITN3RRKBJPNBFGD6FGOD06","","<img src=""img/practice/S4.jpg"" width=""540"" height = ""360"" style=""border:16px solid orange"">","null","","","","","","","",""
"null","","html-keyboard-response","64","89843","0.0-2.0-2.20","3ND9UOO81LOHJD7IGFJMU7Q1XKTWLW","A6HDSE80LQPR8","3XUSYT70ITN3RRKBJPNBFGD6FGOD06","","","null","","","","","","","",""
"733","","image-keyboard-response","65","90577","0.0-2.0-0.21","3ND9UOO81LOHJD7IGFJMU7Q1XKTWLW","A6HDSE80LQPR8","3XUSYT70ITN3RRKBJPNBFGD6FGOD06","","img/practice/S1.jpg","68","1","practice","83","false","","","",""
"null","","html-keyboard-response","66","90893","0.0-2.0-1.21","3ND9UOO81LOHJD7IGFJMU7Q1XKTWLW","A6HDSE80LQPR8","3XUSYT70ITN3RRKBJPNBFGD6FGOD06","","<img src=""img/practice/S1.jpg"" width=""540"" height = ""360"">","null","","","","","","","",""
"null","","html-keyboard-response","67","90893","0.0-2.0-2.21","3ND9UOO81LOHJD7IGFJMU7Q1XKTWLW","A6HDSE80LQPR8","3XUSYT70ITN3RRKBJPNBFGD6FGOD06","","","null","","","","","","","",""
"960","","image-keyboard-response","68","91854","0.0-2.0-0.22","3ND9UOO81LOHJD7IGFJMU7Q1XKTWLW","A6HDSE80LQPR8","3XUSYT70ITN3RRKBJPNBFGD6FGOD06","","img/practice/S3.jpg","68","3","practice","72","false","","","",""
"null","","html-keyboard-response","69","92173","0.0-2.0-1.22","3ND9UOO81LOHJD7IGFJMU7Q1XKTWLW","A6HDSE80LQPR8","3XUSYT70ITN3RRKBJPNBFGD6FGOD06","","<img src=""img/practice/S3.jpg"" width=""540"" height = ""360"">","null","","","","","","","",""
"null","","html-keyboard-response","70","92174","0.0-2.0-2.22","3ND9UOO81LOHJD7IGFJMU7Q1XKTWLW","A6HDSE80LQPR8","3XUSYT70ITN3RRKBJPNBFGD6FGOD06","","","null","","","","","","","",""
"702","","image-keyboard-response","71","92877","0.0-2.0-0.23","3ND9UOO81LOHJD7IGFJMU7Q1XKTWLW","A6HDSE80LQPR8","3XUSYT70ITN3RRKBJPNBFGD6FGOD06","","img/practice/S2.jpg","72","2","practice","68","false","","","",""
"null","","html-keyboard-response","72","93183","0.0-2.0-1.23","3ND9UOO81LOHJD7IGFJMU7Q1XKTWLW","A6HDSE80LQPR8","3XUSYT70ITN3RRKBJPNBFGD6FGOD06","","<img src=""img/practice/S2.jpg"" width=""540"" height = ""360"">","null","","","","","","","",""
"null","","html-keyboard-response","73","93183","0.0-2.0-2.23","3ND9UOO81LOHJD7IGFJMU7Q1XKTWLW","A6HDSE80LQPR8","3XUSYT70ITN3RRKBJPNBFGD6FGOD06","","","null","","","","","","","",""
"2288","","instructions","74","95471","0.0-3.0","3ND9UOO81LOHJD7IGFJMU7Q1XKTWLW","A6HDSE80LQPR8","3XUSYT70ITN3RRKBJPNBFGD6FGOD06","[{""page_index"":0,""viewing_time"":2288}]","","","","","","","","","",""
"9158","","instructions","75","104629","0.0-4.0","3ND9UOO81LOHJD7IGFJMU7Q1XKTWLW","A6HDSE80LQPR8","3XUSYT70ITN3RRKBJPNBFGD6FGOD06","[{""page_index"":0,""viewing_time"":9158}]","","","","","","","","","",""
"1045","","instructions","76","105674","0.0-5.0","3ND9UOO81LOHJD7IGFJMU7Q1XKTWLW","A6HDSE80LQPR8","3XUSYT70ITN3RRKBJPNBFGD6FGOD06","[{""page_index"":0,""viewing_time"":1045}]","","","","","","","","","",""
"1980","","image-keyboard-response","77","107657","0.0-6.0","3ND9UOO81LOHJD7IGFJMU7Q1XKTWLW","A6HDSE80LQPR8","3XUSYT70ITN3RRKBJPNBFGD6FGOD06","","img/set1/S4.jpg","68","4","structured_normal","74","false","structured_normal,structured_incentive,random","1,2,2,3","",""
"null","","html-keyboard-response","78","108013","0.0-7.0","3ND9UOO81LOHJD7IGFJMU7Q1XKTWLW","A6HDSE80LQPR8","3XUSYT70ITN3RRKBJPNBFGD6FGOD06","","<img src=""img/set1/S4.jpg"" width=""540"" height = ""360"">","null","","","","","","","",""
"null","","html-keyboard-response","79","108014","0.0-8.0","3ND9UOO81LOHJD7IGFJMU7Q1XKTWLW","A6HDSE80LQPR8","3XUSYT70ITN3RRKBJPNBFGD6FGOD06","","","null","","","","","","","",""
"732","","image-keyboard-response","80","108747","0.0-9.0","3ND9UOO81LOHJD7IGFJMU7Q1XKTWLW","A6HDSE80LQPR8","3XUSYT70ITN3RRKBJPNBFGD6FGOD06","","img/set1/S1.jpg","83","1","structured_normal","83","true","structured_normal,structured_incentive,random","1,2,2,3","",""
"null","","html-keyboard-response","81","109109","0.0-10.0","3ND9UOO81LOHJD7IGFJMU7Q1XKTWLW","A6HDSE80LQPR8","3XUSYT70ITN3RRKBJPNBFGD6FGOD06","","<img src=""img/set1/S1.jpg"" width=""540"" height = ""360"" style=""border:16px solid orange"">","null","","","","","","","",""
"null","","html-keyboard-response","82","109110","0.0-11.0","3ND9UOO81LOHJD7IGFJMU7Q1XKTWLW","A6HDSE80LQPR8","3XUSYT70ITN3RRKBJPNBFGD6FGOD06","","","null","","","","","","","",""
"743","","image-keyboard-response","83","109854","0.0-12.0","3ND9UOO81LOHJD7IGFJMU7Q1XKTWLW","A6HDSE80LQPR8","3XUSYT70ITN3RRKBJPNBFGD6FGOD06","","img/set1/S3.jpg","68","3","structured_normal","72","false","structured_normal,structured_incentive,random","1,2,2,3","",""
"null","","html-keyboard-response","84","110214","0.0-13.0","3ND9UOO81LOHJD7IGFJMU7Q1XKTWLW","A6HDSE80LQPR8","3XUSYT70ITN3RRKBJPNBFGD6FGOD06","","<img src=""img/set1/S3.jpg"" width=""540"" height = ""360"">","null","","","","","","","",""
"null","","html-keyboard-response","85","110214","0.0-14.0","3ND9UOO81LOHJD7IGFJMU7Q1XKTWLW","A6HDSE80LQPR8","3XUSYT70ITN3RRKBJPNBFGD6FGOD06","","","null","","","","","","","",""
"875","","image-keyboard-response","86","111091","0.0-15.0","3ND9UOO81LOHJD7IGFJMU7Q1XKTWLW","A6HDSE80LQPR8","3XUSYT70ITN3RRKBJPNBFGD6FGOD06","","img/set1/S4.jpg","72","4","structured_normal","74","false","structured_normal,structured_incentive,random","1,2,2,3","",""
"null","","html-keyboard-response","87","111443","0.0-16.0","3ND9UOO81LOHJD7IGFJMU7Q1XKTWLW","A6HDSE80LQPR8","3XUSYT70ITN3RRKBJPNBFGD6FGOD06","","<img src=""img/set1/S4.jpg"" width=""540"" height = ""360"">","null","","","","","","","",""
"null","","html-keyboard-response","88","111444","0.0-17.0","3ND9UOO81LOHJD7IGFJMU7Q1XKTWLW","A6HDSE80LQPR8","3XUSYT70ITN3RRKBJPNBFGD6FGOD06","","","null","","","","","","","",""
"805","","image-keyboard-response","89","112250","0.0-18.0","3ND9UOO81LOHJD7IGFJMU7Q1XKTWLW","A6HDSE80LQPR8","3XUSYT70ITN3RRKBJPNBFGD6FGOD06","","img/set1/S1.jpg","83","1","structured_normal","83","true","structured_normal,structured_incentive,random","1,2,2,3","",""
"null","","html-keyboard-response","90","112604","0.0-19.0","3ND9UOO81LOHJD7IGFJMU7Q1XKTWLW","A6HDSE80LQPR8","3XUSYT70ITN3RRKBJPNBFGD6FGOD06","","<img src=""img/set1/S1.jpg"" width=""540"" height = ""360"" style=""border:16px solid orange"">","null","","","","","","","",""
"null","","html-keyboard-response","91","112604","0.0-20.0","3ND9UOO81LOHJD7IGFJMU7Q1XKTWLW","A6HDSE80LQPR8","3XUSYT70ITN3RRKBJPNBFGD6FGOD06","","","null","","","","","","","",""
"563","","image-keyboard-response","92","113168","0.0-21.0","3ND9UOO81LOHJD7IGFJMU7Q1XKTWLW","A6HDSE80LQPR8","3XUSYT70ITN3RRKBJPNBFGD6FGOD06","","img/set1/S2.jpg","74","2","structured_normal","68","false","structured_normal,structured_incentive,random","1,2,2,3","",""
"null","","html-keyboard-response","93","113533","0.0-22.0","3ND9UOO81LOHJD7IGFJMU7Q1XKTWLW","A6HDSE80LQPR8","3XUSYT70ITN3RRKBJPNBFGD6FGOD06","","<img src=""img/set1/S2.jpg"" width=""540"" height = ""360"">","null","","","","","","","",""
"null","","html-keyboard-response","94","113534","0.0-23.0","3ND9UOO81LOHJD7IGFJMU7Q1XKTWLW","A6HDSE80LQPR8","3XUSYT70ITN3RRKBJPNBFGD6FGOD06","","","null","","","","","","","",""
"1293","","image-keyboard-response","95","114828","0.0-24.0","3ND9UOO81LOHJD7IGFJMU7Q1XKTWLW","A6HDSE80LQPR8","3XUSYT70ITN3RRKBJPNBFGD6FGOD06","","img/set1/S4.jpg","72","4","structured_normal","74","false","structured_normal,structured_incentive,random","1,2,2,3","",""
"null","","html-keyboard-response","96","115193","0.0-25.0","3ND9UOO81LOHJD7IGFJMU7Q1XKTWLW","A6HDSE80LQPR8","3XUSYT70ITN3RRKBJPNBFGD6FGOD06","","<img src=""img/set1/S4.jpg"" width=""540"" height = ""360"">","null","","","","","","","",""
"null","","html-keyboard-response","97","115193","0.0-26.0","3ND9UOO81LOHJD7IGFJMU7Q1XKTWLW","A6HDSE80LQPR8","3XUSYT70ITN3RRKBJPNBFGD6FGOD06","","","null","","","","","","","",""
"1068","","image-keyboard-response","98","116262","0.0-27.0","3ND9UOO81LOHJD7IGFJMU7Q1XKTWLW","A6HDSE80LQPR8","3XUSYT70ITN3RRKBJPNBFGD6FGOD06","","img/set1/S1.jpg","74","1","structured_normal","83","false","structured_normal,structured_incentive,random","1,2,2,3","",""
"null","","html-keyboard-response","99","116624","0.0-28.0","3ND9UOO81LOHJD7IGFJMU7Q1XKTWLW","A6HDSE80LQPR8","3XUSYT70ITN3RRKBJPNBFGD6FGOD06","","<img src=""img/set1/S1.jpg"" width=""540"" height = ""360"">","null","","","","","","","",""
"null","","html-keyboard-response","100","116625","0.0-29.0","3ND9UOO81LOHJD7IGFJMU7Q1XKTWLW","A6HDSE80LQPR8","3XUSYT70ITN3RRKBJPNBFGD6FGOD06","","","null","","","","","","","",""
"938","","image-keyboard-response","101","117564","0.0-30.0","3ND9UOO81LOHJD7IGFJMU7Q1XKTWLW","A6HDSE80LQPR8","3XUSYT70ITN3RRKBJPNBFGD6FGOD06","","img/set1/S3.jpg","83","3","structured_normal","72","false","structured_normal,structured_incentive,random","1,2,2,3","",""
"null","","html-keyboard-response","102","117934","0.0-31.0","3ND9UOO81LOHJD7IGFJMU7Q1XKTWLW","A6HDSE80LQPR8","3XUSYT70ITN3RRKBJPNBFGD6FGOD06","","<img src=""img/set1/S3.jpg"" width=""540"" height = ""360"">","null","","","","","","","",""
"null","","html-keyboard-response","103","117934","0.0-32.0","3ND9UOO81LOHJD7IGFJMU7Q1XKTWLW","A6HDSE80LQPR8","3XUSYT70ITN3RRKBJPNBFGD6FGOD06","","","null","","","","","","","",""
"1317","","image-keyboard-response","104","119252","0.0-33.0","3ND9UOO81LOHJD7IGFJMU7Q1XKTWLW","A6HDSE80LQPR8","3XUSYT70ITN3RRKBJPNBFGD6FGOD06","","img/set1/S3.jpg","72","3","structured_normal","72","true","structured_normal,structured_incentive,random","1,2,2,3","",""
"null","","html-keyboard-response","105","119612","0.0-34.0","3ND9UOO81LOHJD7IGFJMU7Q1XKTWLW","A6HDSE80LQPR8","3XUSYT70ITN3RRKBJPNBFGD6FGOD06","","<img src=""img/set1/S3.jpg"" width=""540"" height = ""360"" style=""border:16px solid orange"">","null","","","","","","","",""
"null","","html-keyboard-response","106","119613","0.0-35.0","3ND9UOO81LOHJD7IGFJMU7Q1XKTWLW","A6HDSE80LQPR8","3XUSYT70ITN3RRKBJPNBFGD6FGOD06","","","null","","","","","","","",""
"1146","","image-keyboard-response","107","120760","0.0-36.0","3ND9UOO81LOHJD7IGFJMU7Q1XKTWLW","A6HDSE80LQPR8","3XUSYT70ITN3RRKBJPNBFGD6FGOD06","","img/set1/S4.jpg","74","4","structured_normal","74","true","structured_normal,structured_incentive,random","1,2,2,3","",""
"null","","html-keyboard-response","108","121113","0.0-37.0","3ND9UOO81LOHJD7IGFJMU7Q1XKTWLW","A6HDSE80LQPR8","3XUSYT70ITN3RRKBJPNBFGD6FGOD06","","<img src=""img/set1/S4.jpg"" width=""540"" height = ""360"" style=""border:16px solid orange"">","null","","","","","","","",""
"null","","html-keyboard-response","109","121114","0.0-38.0","3ND9UOO81LOHJD7IGFJMU7Q1XKTWLW","A6HDSE80LQPR8","3XUSYT70ITN3RRKBJPNBFGD6FGOD06","","","null","","","","","","","",""
"1481","","image-keyboard-response","110","122595","0.0-39.0","3ND9UOO81LOHJD7IGFJMU7Q1XKTWLW","A6HDSE80LQPR8","3XUSYT70ITN3RRKBJPNBFGD6FGOD06","","img/set1/S1.jpg","72","1","structured_normal","83","false","structured_normal,structured_incentive,random","1,2,2,3","",""
"null","","html-keyboard-response","111","122951","0.0-40.0","3ND9UOO81LOHJD7IGFJMU7Q1XKTWLW","A6HDSE80LQPR8","3XUSYT70ITN3RRKBJPNBFGD6FGOD06","","<img src=""img/set1/S1.jpg"" width=""540"" height = ""360"">","null","","","","","","","",""
"null","","html-keyboard-response","112","122952","0.0-41.0","3ND9UOO81LOHJD7IGFJMU7Q1XKTWLW","A6HDSE80LQPR8","3XUSYT70ITN3RRKBJPNBFGD6FGOD06","","","null","","","","","","","",""
"839","","image-keyboard-response","113","123791","0.0-42.0","3ND9UOO81LOHJD7IGFJMU7Q1XKTWLW","A6HDSE80LQPR8","3XUSYT70ITN3RRKBJPNBFGD6FGOD06","","img/set1/S2.jpg","68","2","structured_normal","68","true","structured_normal,structured_incentive,random","1,2,2,3","",""
"null","","html-keyboard-response","114","124155","0.0-43.0","3ND9UOO81LOHJD7IGFJMU7Q1XKTWLW","A6HDSE80LQPR8","3XUSYT70ITN3RRKBJPNBFGD6FGOD06","","<img src=""img/set1/S2.jpg"" width=""540"" height = ""360"" style=""border:16px solid orange"">","null","","","","","","","",""
"null","","html-keyboard-response","115","124155","0.0-44.0","3ND9UOO81LOHJD7IGFJMU7Q1XKTWLW","A6HDSE80LQPR8","3XUSYT70ITN3RRKBJPNBFGD6FGOD06","","","null","","","","","","","",""
"952","","image-keyboard-response","116","125106","0.0-45.0","3ND9UOO81LOHJD7IGFJMU7Q1XKTWLW","A6HDSE80LQPR8","3XUSYT70ITN3RRKBJPNBFGD6FGOD06","","img/set1/S4.jpg","74","4","structured_normal","74","true","structured_normal,structured_incentive,random","1,2,2,3","",""
"null","","html-keyboard-response","117","125463","0.0-46.0","3ND9UOO81LOHJD7IGFJMU7Q1XKTWLW","A6HDSE80LQPR8","3XUSYT70ITN3RRKBJPNBFGD6FGOD06","","<img src=""img/set1/S4.jpg"" width=""540"" height = ""360"" style=""border:16px solid orange"">","null","","","","","","","",""
"null","","html-keyboard-response","118","125464","0.0-47.0","3ND9UOO81LOHJD7IGFJMU7Q1XKTWLW","A6HDSE80LQPR8","3XUSYT70ITN3RRKBJPNBFGD6FGOD06","","","null","","","","","","","",""
"625","","image-keyboard-response","119","126089","0.0-48.0","3ND9UOO81LOHJD7IGFJMU7Q1XKTWLW","A6HDSE80LQPR8","3XUSYT70ITN3RRKBJPNBFGD6FGOD06","","img/set1/S3.jpg","83","3","structured_normal","72","false","structured_normal,structured_incentive,random","1,2,2,3","",""
"null","","html-keyboard-response","120","126444","0.0-49.0","3ND9UOO81LOHJD7IGFJMU7Q1XKTWLW","A6HDSE80LQPR8","3XUSYT70ITN3RRKBJPNBFGD6FGOD06","","<img src=""img/set1/S3.jpg"" width=""540"" height = ""360"">","null","","","","","","","",""
"null","","html-keyboard-response","121","126445","0.0-50.0","3ND9UOO81LOHJD7IGFJMU7Q1XKTWLW","A6HDSE80LQPR8","3XUSYT70ITN3RRKBJPNBFGD6FGOD06","","","null","","","","","","","",""
"989","","image-keyboard-response","122","127435","0.0-51.0","3ND9UOO81LOHJD7IGFJMU7Q1XKTWLW","A6HDSE80LQPR8","3XUSYT70ITN3RRKBJPNBFGD6FGOD06","","img/set1/S1.jpg","83","1","structured_normal","83","true","structured_normal,structured_incentive,random","1,2,2,3","",""
"null","","html-keyboard-response","123","127805","0.0-52.0","3ND9UOO81LOHJD7IGFJMU7Q1XKTWLW","A6HDSE80LQPR8","3XUSYT70ITN3RRKBJPNBFGD6FGOD06","","<img src=""img/set1/S1.jpg"" width=""540"" height = ""360"" style=""border:16px solid orange"">","null","","","","","","","",""
"null","","html-keyboard-response","124","127805","0.0-53.0","3ND9UOO81LOHJD7IGFJMU7Q1XKTWLW","A6HDSE80LQPR8","3XUSYT70ITN3RRKBJPNBFGD6FGOD06","","","null","","","","","","","",""
"1095","","image-keyboard-response","125","128901","0.0-54.0","3ND9UOO81LOHJD7IGFJMU7Q1XKTWLW","A6HDSE80LQPR8","3XUSYT70ITN3RRKBJPNBFGD6FGOD06","","img/set1/S2.jpg","72","2","structured_normal","68","false","structured_normal,structured_incentive,random","1,2,2,3","",""
"null","","html-keyboard-response","126","129264","0.0-55.0","3ND9UOO81LOHJD7IGFJMU7Q1XKTWLW","A6HDSE80LQPR8","3XUSYT70ITN3RRKBJPNBFGD6FGOD06","","<img src=""img/set1/S2.jpg"" width=""540"" height = ""360"">","null","","","","","","","",""
"null","","html-keyboard-response","127","129265","0.0-56.0","3ND9UOO81LOHJD7IGFJMU7Q1XKTWLW","A6HDSE80LQPR8","3XUSYT70ITN3RRKBJPNBFGD6FGOD06","","","null","","","","","","","",""
"559","","image-keyboard-response","128","129825","0.0-57.0","3ND9UOO81LOHJD7IGFJMU7Q1XKTWLW","A6HDSE80LQPR8","3XUSYT70ITN3RRKBJPNBFGD6FGOD06","","img/set1/S3.jpg","74","3","structured_normal","72","false","structured_normal,structured_incentive,random","1,2,2,3","",""
"null","","html-keyboard-response","129","130184","0.0-58.0","3ND9UOO81LOHJD7IGFJMU7Q1XKTWLW","A6HDSE80LQPR8","3XUSYT70ITN3RRKBJPNBFGD6FGOD06","","<img src=""img/set1/S3.jpg"" width=""540"" height = ""360"">","null","","","","","","","",""
"null","","html-keyboard-response","130","130185","0.0-59.0","3ND9UOO81LOHJD7IGFJMU7Q1XKTWLW","A6HDSE80LQPR8","3XUSYT70ITN3RRKBJPNBFGD6FGOD06","","","null","","","","","","","",""
"894","","image-keyboard-response","131","131079","0.0-60.0","3ND9UOO81LOHJD7IGFJMU7Q1XKTWLW","A6HDSE80LQPR8","3XUSYT70ITN3RRKBJPNBFGD6FGOD06","","img/set1/S4.jpg","74","4","structured_normal","74","true","structured_normal,structured_incentive,random","1,2,2,3","",""
"null","","html-keyboard-response","132","131444","0.0-61.0","3ND9UOO81LOHJD7IGFJMU7Q1XKTWLW","A6HDSE80LQPR8","3XUSYT70ITN3RRKBJPNBFGD6FGOD06","","<img src=""img/set1/S4.jpg"" width=""540"" height = ""360"" style=""border:16px solid orange"">","null","","","","","","","",""
"null","","html-keyboard-response","133","131445","0.0-62.0","3ND9UOO81LOHJD7IGFJMU7Q1XKTWLW","A6HDSE80LQPR8","3XUSYT70ITN3RRKBJPNBFGD6FGOD06","","","null","","","","","","","",""
"704","","image-keyboard-response","134","132149","0.0-63.0","3ND9UOO81LOHJD7IGFJMU7Q1XKTWLW","A6HDSE80LQPR8","3XUSYT70ITN3RRKBJPNBFGD6FGOD06","","img/set1/S4.jpg","74","4","structured_normal","74","true","structured_normal,structured_incentive,random","1,2,2,3","",""
"null","","html-keyboard-response","135","132504","0.0-64.0","3ND9UOO81LOHJD7IGFJMU7Q1XKTWLW","A6HDSE80LQPR8","3XUSYT70ITN3RRKBJPNBFGD6FGOD06","","<img src=""img/set1/S4.jpg"" width=""540"" height = ""360"" style=""border:16px solid orange"">","null","","","","","","","",""
"null","","html-keyboard-response","136","132505","0.0-65.0","3ND9UOO81LOHJD7IGFJMU7Q1XKTWLW","A6HDSE80LQPR8","3XUSYT70ITN3RRKBJPNBFGD6FGOD06","","","null","","","","","","","",""
"865","","image-keyboard-response","137","133371","0.0-66.0","3ND9UOO81LOHJD7IGFJMU7Q1XKTWLW","A6HDSE80LQPR8","3XUSYT70ITN3RRKBJPNBFGD6FGOD06","","img/set1/S3.jpg","68","3","structured_normal","72","false","structured_normal,structured_incentive,random","1,2,2,3","",""
"null","","html-keyboard-response","138","133724","0.0-67.0","3ND9UOO81LOHJD7IGFJMU7Q1XKTWLW","A6HDSE80LQPR8","3XUSYT70ITN3RRKBJPNBFGD6FGOD06","","<img src=""img/set1/S3.jpg"" width=""540"" height = ""360"">","null","","","","","","","",""
"null","","html-keyboard-response","139","133725","0.0-68.0","3ND9UOO81LOHJD7IGFJMU7Q1XKTWLW","A6HDSE80LQPR8","3XUSYT70ITN3RRKBJPNBFGD6FGOD06","","","null","","","","","","","",""
"576","","image-keyboard-response","140","134302","0.0-69.0","3ND9UOO81LOHJD7IGFJMU7Q1XKTWLW","A6HDSE80LQPR8","3XUSYT70ITN3RRKBJPNBFGD6FGOD06","","img/set1/S3.jpg","72","3","structured_normal","72","true","structured_normal,structured_incentive,random","1,2,2,3","",""
"null","","html-keyboard-response","141","134664","0.0-70.0","3ND9UOO81LOHJD7IGFJMU7Q1XKTWLW","A6HDSE80LQPR8","3XUSYT70ITN3RRKBJPNBFGD6FGOD06","","<img src=""img/set1/S3.jpg"" width=""540"" height = ""360"" style=""border:16px solid orange"">","null","","","","","","","",""
"null","","html-keyboard-response","142","134665","0.0-71.0","3ND9UOO81LOHJD7IGFJMU7Q1XKTWLW","A6HDSE80LQPR8","3XUSYT70ITN3RRKBJPNBFGD6FGOD06","","","null","","","","","","","",""
"491","","image-keyboard-response","143","135157","0.0-72.0","3ND9UOO81LOHJD7IGFJMU7Q1XKTWLW","A6HDSE80LQPR8","3XUSYT70ITN3RRKBJPNBFGD6FGOD06","","img/set1/S3.jpg","72","3","structured_normal","72","true","structured_normal,structured_incentive,random","1,2,2,3","",""
"null","","html-keyboard-response","144","135521","0.0-73.0","3ND9UOO81LOHJD7IGFJMU7Q1XKTWLW","A6HDSE80LQPR8","3XUSYT70ITN3RRKBJPNBFGD6FGOD06","","<img src=""img/set1/S3.jpg"" width=""540"" height = ""360"" style=""border:16px solid orange"">","null","","","","","","","",""
"null","","html-keyboard-response","145","135522","0.0-74.0","3ND9UOO81LOHJD7IGFJMU7Q1XKTWLW","A6HDSE80LQPR8","3XUSYT70ITN3RRKBJPNBFGD6FGOD06","","","null","","","","","","","",""
"836","","image-keyboard-response","146","136358","0.0-75.0","3ND9UOO81LOHJD7IGFJMU7Q1XKTWLW","A6HDSE80LQPR8","3XUSYT70ITN3RRKBJPNBFGD6FGOD06","","img/set1/S1.jpg","68","1","structured_normal","83","false","structured_normal,structured_incentive,random","1,2,2,3","",""
"null","","html-keyboard-response","147","136724","0.0-76.0","3ND9UOO81LOHJD7IGFJMU7Q1XKTWLW","A6HDSE80LQPR8","3XUSYT70ITN3RRKBJPNBFGD6FGOD06","","<img src=""img/set1/S1.jpg"" width=""540"" height = ""360"">","null","","","","","","","",""
"null","","html-keyboard-response","148","136725","0.0-77.0","3ND9UOO81LOHJD7IGFJMU7Q1XKTWLW","A6HDSE80LQPR8","3XUSYT70ITN3RRKBJPNBFGD6FGOD06","","","null","","","","","","","",""
"1377","","image-keyboard-response","149","138102","0.0-78.0","3ND9UOO81LOHJD7IGFJMU7Q1XKTWLW","A6HDSE80LQPR8","3XUSYT70ITN3RRKBJPNBFGD6FGOD06","","img/set1/S2.jpg","68","2","structured_normal","68","true","structured_normal,structured_incentive,random","1,2,2,3","",""
"null","","html-keyboard-response","150","138464","0.0-79.0","3ND9UOO81LOHJD7IGFJMU7Q1XKTWLW","A6HDSE80LQPR8","3XUSYT70ITN3RRKBJPNBFGD6FGOD06","","<img src=""img/set1/S2.jpg"" width=""540"" height = ""360"" style=""border:16px solid orange"">","null","","","","","","","",""
"null","","html-keyboard-response","151","138465","0.0-80.0","3ND9UOO81LOHJD7IGFJMU7Q1XKTWLW","A6HDSE80LQPR8","3XUSYT70ITN3RRKBJPNBFGD6FGOD06","","","null","","","","","","","",""
"878","","image-keyboard-response","152","139343","0.0-81.0","3ND9UOO81LOHJD7IGFJMU7Q1XKTWLW","A6HDSE80LQPR8","3XUSYT70ITN3RRKBJPNBFGD6FGOD06","","img/set1/S4.jpg","74","4","structured_normal","74","true","structured_normal,structured_incentive,random","1,2,2,3","",""
"null","","html-keyboard-response","153","139704","0.0-82.0","3ND9UOO81LOHJD7IGFJMU7Q1XKTWLW","A6HDSE80LQPR8","3XUSYT70ITN3RRKBJPNBFGD6FGOD06","","<img src=""img/set1/S4.jpg"" width=""540"" height = ""360"" style=""border:16px solid orange"">","null","","","","","","","",""
"null","","html-keyboard-response","154","139705","0.0-83.0","3ND9UOO81LOHJD7IGFJMU7Q1XKTWLW","A6HDSE80LQPR8","3XUSYT70ITN3RRKBJPNBFGD6FGOD06","","","null","","","","","","","",""
"590","","image-keyboard-response","155","140295","0.0-84.0","3ND9UOO81LOHJD7IGFJMU7Q1XKTWLW","A6HDSE80LQPR8","3XUSYT70ITN3RRKBJPNBFGD6FGOD06","","img/set1/S4.jpg","74","4","structured_normal","74","true","structured_normal,structured_incentive,random","1,2,2,3","",""
"null","","html-keyboard-response","156","140655","0.0-85.0","3ND9UOO81LOHJD7IGFJMU7Q1XKTWLW","A6HDSE80LQPR8","3XUSYT70ITN3RRKBJPNBFGD6FGOD06","","<img src=""img/set1/S4.jpg"" width=""540"" height = ""360"" style=""border:16px solid orange"">","null","","","","","","","",""
"null","","html-keyboard-response","157","140656","0.0-86.0","3ND9UOO81LOHJD7IGFJMU7Q1XKTWLW","A6HDSE80LQPR8","3XUSYT70ITN3RRKBJPNBFGD6FGOD06","","","null","","","","","","","",""
"468","","image-keyboard-response","158","141124","0.0-87.0","3ND9UOO81LOHJD7IGFJMU7Q1XKTWLW","A6HDSE80LQPR8","3XUSYT70ITN3RRKBJPNBFGD6FGOD06","","img/set1/S4.jpg","74","4","structured_normal","74","true","structured_normal,structured_incentive,random","1,2,2,3","",""
"null","","html-keyboard-response","159","141494","0.0-88.0","3ND9UOO81LOHJD7IGFJMU7Q1XKTWLW","A6HDSE80LQPR8","3XUSYT70ITN3RRKBJPNBFGD6FGOD06","","<img src=""img/set1/S4.jpg"" width=""540"" height = ""360"" style=""border:16px solid orange"">","null","","","","","","","",""
"null","","html-keyboard-response","160","141495","0.0-89.0","3ND9UOO81LOHJD7IGFJMU7Q1XKTWLW","A6HDSE80LQPR8","3XUSYT70ITN3RRKBJPNBFGD6FGOD06","","","null","","","","","","","",""
"440","","image-keyboard-response","161","141935","0.0-90.0","3ND9UOO81LOHJD7IGFJMU7Q1XKTWLW","A6HDSE80LQPR8","3XUSYT70ITN3RRKBJPNBFGD6FGOD06","","img/set1/S4.jpg","74","4","structured_normal","74","true","structured_normal,structured_incentive,random","1,2,2,3","",""
"null","","html-keyboard-response","162","142291","0.0-91.0","3ND9UOO81LOHJD7IGFJMU7Q1XKTWLW","A6HDSE80LQPR8","3XUSYT70ITN3RRKBJPNBFGD6FGOD06","","<img src=""img/set1/S4.jpg"" width=""540"" height = ""360"" style=""border:16px solid orange"">","null","","","","","","","",""
"null","","html-keyboard-response","163","142292","0.0-92.0","3ND9UOO81LOHJD7IGFJMU7Q1XKTWLW","A6HDSE80LQPR8","3XUSYT70ITN3RRKBJPNBFGD6FGOD06","","","null","","","","","","","",""
"1651","","image-keyboard-response","164","143943","0.0-93.0","3ND9UOO81LOHJD7IGFJMU7Q1XKTWLW","A6HDSE80LQPR8","3XUSYT70ITN3RRKBJPNBFGD6FGOD06","","img/set1/S1.jpg","72","1","structured_normal","83","false","structured_normal,structured_incentive,random","1,2,2,3","",""
"null","","html-keyboard-response","165","144299","0.0-94.0","3ND9UOO81LOHJD7IGFJMU7Q1XKTWLW","A6HDSE80LQPR8","3XUSYT70ITN3RRKBJPNBFGD6FGOD06","","<img src=""img/set1/S1.jpg"" width=""540"" height = ""360"">","null","","","","","","","",""
"null","","html-keyboard-response","166","144300","0.0-95.0","3ND9UOO81LOHJD7IGFJMU7Q1XKTWLW","A6HDSE80LQPR8","3XUSYT70ITN3RRKBJPNBFGD6FGOD06","","","null","","","","","","","",""
"696","","image-keyboard-response","167","144996","0.0-96.0","3ND9UOO81LOHJD7IGFJMU7Q1XKTWLW","A6HDSE80LQPR8","3XUSYT70ITN3RRKBJPNBFGD6FGOD06","","img/set1/S3.jpg","83","3","structured_normal","72","false","structured_normal,structured_incentive,random","1,2,2,3","",""
"null","","html-keyboard-response","168","145365","0.0-97.0","3ND9UOO81LOHJD7IGFJMU7Q1XKTWLW","A6HDSE80LQPR8","3XUSYT70ITN3RRKBJPNBFGD6FGOD06","","<img src=""img/set1/S3.jpg"" width=""540"" height = ""360"">","null","","","","","","","",""
"null","","html-keyboard-response","169","145366","0.0-98.0","3ND9UOO81LOHJD7IGFJMU7Q1XKTWLW","A6HDSE80LQPR8","3XUSYT70ITN3RRKBJPNBFGD6FGOD06","","","null","","","","","","","",""
"760","","image-keyboard-response","170","146127","0.0-99.0","3ND9UOO81LOHJD7IGFJMU7Q1XKTWLW","A6HDSE80LQPR8","3XUSYT70ITN3RRKBJPNBFGD6FGOD06","","img/set1/S2.jpg","68","2","structured_normal","68","true","structured_normal,structured_incentive,random","1,2,2,3","",""
"null","","html-keyboard-response","171","146485","0.0-100.0","3ND9UOO81LOHJD7IGFJMU7Q1XKTWLW","A6HDSE80LQPR8","3XUSYT70ITN3RRKBJPNBFGD6FGOD06","","<img src=""img/set1/S2.jpg"" width=""540"" height = ""360"" style=""border:16px solid orange"">","null","","","","","","","",""
"null","","html-keyboard-response","172","146485","0.0-101.0","3ND9UOO81LOHJD7IGFJMU7Q1XKTWLW","A6HDSE80LQPR8","3XUSYT70ITN3RRKBJPNBFGD6FGOD06","","","null","","","","","","","",""
"1050","","image-keyboard-response","173","147536","0.0-102.0","3ND9UOO81LOHJD7IGFJMU7Q1XKTWLW","A6HDSE80LQPR8","3XUSYT70ITN3RRKBJPNBFGD6FGOD06","","img/set1/S3.jpg","72","3","structured_normal","72","true","structured_normal,structured_incentive,random","1,2,2,3","",""
"null","","html-keyboard-response","174","147905","0.0-103.0","3ND9UOO81LOHJD7IGFJMU7Q1XKTWLW","A6HDSE80LQPR8","3XUSYT70ITN3RRKBJPNBFGD6FGOD06","","<img src=""img/set1/S3.jpg"" width=""540"" height = ""360"" style=""border:16px solid orange"">","null","","","","","","","",""
"null","","html-keyboard-response","175","147906","0.0-104.0","3ND9UOO81LOHJD7IGFJMU7Q1XKTWLW","A6HDSE80LQPR8","3XUSYT70ITN3RRKBJPNBFGD6FGOD06","","","null","","","","","","","",""
"528","","image-keyboard-response","176","148435","0.0-105.0","3ND9UOO81LOHJD7IGFJMU7Q1XKTWLW","A6HDSE80LQPR8","3XUSYT70ITN3RRKBJPNBFGD6FGOD06","","img/set1/S3.jpg","72","3","structured_normal","72","true","structured_normal,structured_incentive,random","1,2,2,3","",""
"null","","html-keyboard-response","177","148795","0.0-106.0","3ND9UOO81LOHJD7IGFJMU7Q1XKTWLW","A6HDSE80LQPR8","3XUSYT70ITN3RRKBJPNBFGD6FGOD06","","<img src=""img/set1/S3.jpg"" width=""540"" height = ""360"" style=""border:16px solid orange"">","null","","","","","","","",""
"null","","html-keyboard-response","178","148796","0.0-107.0","3ND9UOO81LOHJD7IGFJMU7Q1XKTWLW","A6HDSE80LQPR8","3XUSYT70ITN3RRKBJPNBFGD6FGOD06","","","null","","","","","","","",""
"670","","image-keyboard-response","179","149465","0.0-108.0","3ND9UOO81LOHJD7IGFJMU7Q1XKTWLW","A6HDSE80LQPR8","3XUSYT70ITN3RRKBJPNBFGD6FGOD06","","img/set1/S1.jpg","83","1","structured_normal","83","true","structured_normal,structured_incentive,random","1,2,2,3","",""
"null","","html-keyboard-response","180","149825","0.0-109.0","3ND9UOO81LOHJD7IGFJMU7Q1XKTWLW","A6HDSE80LQPR8","3XUSYT70ITN3RRKBJPNBFGD6FGOD06","","<img src=""img/set1/S1.jpg"" width=""540"" height = ""360"" style=""border:16px solid orange"">","null","","","","","","","",""
"null","","html-keyboard-response","181","149825","0.0-110.0","3ND9UOO81LOHJD7IGFJMU7Q1XKTWLW","A6HDSE80LQPR8","3XUSYT70ITN3RRKBJPNBFGD6FGOD06","","","null","","","","","","","",""
"877","","image-keyboard-response","182","150703","0.0-111.0","3ND9UOO81LOHJD7IGFJMU7Q1XKTWLW","A6HDSE80LQPR8","3XUSYT70ITN3RRKBJPNBFGD6FGOD06","","img/set1/S2.jpg","68","2","structured_normal","68","true","structured_normal,structured_incentive,random","1,2,2,3","",""
"null","","html-keyboard-response","183","151055","0.0-112.0","3ND9UOO81LOHJD7IGFJMU7Q1XKTWLW","A6HDSE80LQPR8","3XUSYT70ITN3RRKBJPNBFGD6FGOD06","","<img src=""img/set1/S2.jpg"" width=""540"" height = ""360"" style=""border:16px solid orange"">","null","","","","","","","",""
"null","","html-keyboard-response","184","151056","0.0-113.0","3ND9UOO81LOHJD7IGFJMU7Q1XKTWLW","A6HDSE80LQPR8","3XUSYT70ITN3RRKBJPNBFGD6FGOD06","","","null","","","","","","","",""
"654","","image-keyboard-response","185","151710","0.0-114.0","3ND9UOO81LOHJD7IGFJMU7Q1XKTWLW","A6HDSE80LQPR8","3XUSYT70ITN3RRKBJPNBFGD6FGOD06","","img/set1/S4.jpg","74","4","structured_normal","74","true","structured_normal,structured_incentive,random","1,2,2,3","",""
"null","","html-keyboard-response","186","152065","0.0-115.0","3ND9UOO81LOHJD7IGFJMU7Q1XKTWLW","A6HDSE80LQPR8","3XUSYT70ITN3RRKBJPNBFGD6FGOD06","","<img src=""img/set1/S4.jpg"" width=""540"" height = ""360"" style=""border:16px solid orange"">","null","","","","","","","",""
"null","","html-keyboard-response","187","152065","0.0-116.0","3ND9UOO81LOHJD7IGFJMU7Q1XKTWLW","A6HDSE80LQPR8","3XUSYT70ITN3RRKBJPNBFGD6FGOD06","","","null","","","","","","","",""
"1094","","image-keyboard-response","188","153161","0.0-117.0","3ND9UOO81LOHJD7IGFJMU7Q1XKTWLW","A6HDSE80LQPR8","3XUSYT70ITN3RRKBJPNBFGD6FGOD06","","img/set1/S3.jpg","72","3","structured_normal","72","true","structured_normal,structured_incentive,random","1,2,2,3","",""
"null","","html-keyboard-response","189","153525","0.0-118.0","3ND9UOO81LOHJD7IGFJMU7Q1XKTWLW","A6HDSE80LQPR8","3XUSYT70ITN3RRKBJPNBFGD6FGOD06","","<img src=""img/set1/S3.jpg"" width=""540"" height = ""360"" style=""border:16px solid orange"">","null","","","","","","","",""
"null","","html-keyboard-response","190","153526","0.0-119.0","3ND9UOO81LOHJD7IGFJMU7Q1XKTWLW","A6HDSE80LQPR8","3XUSYT70ITN3RRKBJPNBFGD6FGOD06","","","null","","","","","","","",""
"706","","image-keyboard-response","191","154232","0.0-120.0","3ND9UOO81LOHJD7IGFJMU7Q1XKTWLW","A6HDSE80LQPR8","3XUSYT70ITN3RRKBJPNBFGD6FGOD06","","img/set1/S1.jpg","83","1","structured_normal","83","true","structured_normal,structured_incentive,random","1,2,2,3","",""
"null","","html-keyboard-response","192","154605","0.0-121.0","3ND9UOO81LOHJD7IGFJMU7Q1XKTWLW","A6HDSE80LQPR8","3XUSYT70ITN3RRKBJPNBFGD6FGOD06","","<img src=""img/set1/S1.jpg"" width=""540"" height = ""360"" style=""border:16px solid orange"">","null","","","","","","","",""
"null","","html-keyboard-response","193","154606","0.0-122.0","3ND9UOO81LOHJD7IGFJMU7Q1XKTWLW","A6HDSE80LQPR8","3XUSYT70ITN3RRKBJPNBFGD6FGOD06","","","null","","","","","","","",""
"723","","image-keyboard-response","194","155330","0.0-123.0","3ND9UOO81LOHJD7IGFJMU7Q1XKTWLW","A6HDSE80LQPR8","3XUSYT70ITN3RRKBJPNBFGD6FGOD06","","img/set1/S2.jpg","68","2","structured_normal","68","true","structured_normal,structured_incentive,random","1,2,2,3","",""
"null","","html-keyboard-response","195","155696","0.0-124.0","3ND9UOO81LOHJD7IGFJMU7Q1XKTWLW","A6HDSE80LQPR8","3XUSYT70ITN3RRKBJPNBFGD6FGOD06","","<img src=""img/set1/S2.jpg"" width=""540"" height = ""360"" style=""border:16px solid orange"">","null","","","","","","","",""
"null","","html-keyboard-response","196","155696","0.0-125.0","3ND9UOO81LOHJD7IGFJMU7Q1XKTWLW","A6HDSE80LQPR8","3XUSYT70ITN3RRKBJPNBFGD6FGOD06","","","null","","","","","","","",""
"673","","image-keyboard-response","197","156370","0.0-126.0","3ND9UOO81LOHJD7IGFJMU7Q1XKTWLW","A6HDSE80LQPR8","3XUSYT70ITN3RRKBJPNBFGD6FGOD06","","img/set1/S4.jpg","74","4","structured_normal","74","true","structured_normal,structured_incentive,random","1,2,2,3","",""
"null","","html-keyboard-response","198","156725","0.0-127.0","3ND9UOO81LOHJD7IGFJMU7Q1XKTWLW","A6HDSE80LQPR8","3XUSYT70ITN3RRKBJPNBFGD6FGOD06","","<img src=""img/set1/S4.jpg"" width=""540"" height = ""360"" style=""border:16px solid orange"">","null","","","","","","","",""
"null","","html-keyboard-response","199","156726","0.0-128.0","3ND9UOO81LOHJD7IGFJMU7Q1XKTWLW","A6HDSE80LQPR8","3XUSYT70ITN3RRKBJPNBFGD6FGOD06","","","null","","","","","","","",""
"692","","image-keyboard-response","200","157418","0.0-129.0","3ND9UOO81LOHJD7IGFJMU7Q1XKTWLW","A6HDSE80LQPR8","3XUSYT70ITN3RRKBJPNBFGD6FGOD06","","img/set1/S2.jpg","72","2","structured_normal","68","false","structured_normal,structured_incentive,random","1,2,2,3","",""
"null","","html-keyboard-response","201","157784","0.0-130.0","3ND9UOO81LOHJD7IGFJMU7Q1XKTWLW","A6HDSE80LQPR8","3XUSYT70ITN3RRKBJPNBFGD6FGOD06","","<img src=""img/set1/S2.jpg"" width=""540"" height = ""360"">","null","","","","","","","",""
"null","","html-keyboard-response","202","157786","0.0-131.0","3ND9UOO81LOHJD7IGFJMU7Q1XKTWLW","A6HDSE80LQPR8","3XUSYT70ITN3RRKBJPNBFGD6FGOD06","","","null","","","","","","","",""
"601","","image-keyboard-response","203","158386","0.0-132.0","3ND9UOO81LOHJD7IGFJMU7Q1XKTWLW","A6HDSE80LQPR8","3XUSYT70ITN3RRKBJPNBFGD6FGOD06","","img/set1/S4.jpg","74","4","structured_normal","74","true","structured_normal,structured_incentive,random","1,2,2,3","",""
"null","","html-keyboard-response","204","158746","0.0-133.0","3ND9UOO81LOHJD7IGFJMU7Q1XKTWLW","A6HDSE80LQPR8","3XUSYT70ITN3RRKBJPNBFGD6FGOD06","","<img src=""img/set1/S4.jpg"" width=""540"" height = ""360"" style=""border:16px solid orange"">","null","","","","","","","",""
"null","","html-keyboard-response","205","158746","0.0-134.0","3ND9UOO81LOHJD7IGFJMU7Q1XKTWLW","A6HDSE80LQPR8","3XUSYT70ITN3RRKBJPNBFGD6FGOD06","","","null","","","","","","","",""
"541","","image-keyboard-response","206","159288","0.0-135.0","3ND9UOO81LOHJD7IGFJMU7Q1XKTWLW","A6HDSE80LQPR8","3XUSYT70ITN3RRKBJPNBFGD6FGOD06","","img/set1/S2.jpg","68","2","structured_normal","68","true","structured_normal,structured_incentive,random","1,2,2,3","",""
"null","","html-keyboard-response","207","159645","0.0-136.0","3ND9UOO81LOHJD7IGFJMU7Q1XKTWLW","A6HDSE80LQPR8","3XUSYT70ITN3RRKBJPNBFGD6FGOD06","","<img src=""img/set1/S2.jpg"" width=""540"" height = ""360"" style=""border:16px solid orange"">","null","","","","","","","",""
"null","","html-keyboard-response","208","159645","0.0-137.0","3ND9UOO81LOHJD7IGFJMU7Q1XKTWLW","A6HDSE80LQPR8","3XUSYT70ITN3RRKBJPNBFGD6FGOD06","","","null","","","","","","","",""
"627","","image-keyboard-response","209","160274","0.0-138.0","3ND9UOO81LOHJD7IGFJMU7Q1XKTWLW","A6HDSE80LQPR8","3XUSYT70ITN3RRKBJPNBFGD6FGOD06","","img/set1/S4.jpg","74","4","structured_normal","74","true","structured_normal,structured_incentive,random","1,2,2,3","",""
"null","","html-keyboard-response","210","160636","0.0-139.0","3ND9UOO81LOHJD7IGFJMU7Q1XKTWLW","A6HDSE80LQPR8","3XUSYT70ITN3RRKBJPNBFGD6FGOD06","","<img src=""img/set1/S4.jpg"" width=""540"" height = ""360"" style=""border:16px solid orange"">","null","","","","","","","",""
"null","","html-keyboard-response","211","160636","0.0-140.0","3ND9UOO81LOHJD7IGFJMU7Q1XKTWLW","A6HDSE80LQPR8","3XUSYT70ITN3RRKBJPNBFGD6FGOD06","","","null","","","","","","","",""
"568","","image-keyboard-response","212","161204","0.0-141.0","3ND9UOO81LOHJD7IGFJMU7Q1XKTWLW","A6HDSE80LQPR8","3XUSYT70ITN3RRKBJPNBFGD6FGOD06","","img/set1/S4.jpg","74","4","structured_normal","74","true","structured_normal,structured_incentive,random","1,2,2,3","",""
"null","","html-keyboard-response","213","161566","0.0-142.0","3ND9UOO81LOHJD7IGFJMU7Q1XKTWLW","A6HDSE80LQPR8","3XUSYT70ITN3RRKBJPNBFGD6FGOD06","","<img src=""img/set1/S4.jpg"" width=""540"" height = ""360"" style=""border:16px solid orange"">","null","","","","","","","",""
"null","","html-keyboard-response","214","161567","0.0-143.0","3ND9UOO81LOHJD7IGFJMU7Q1XKTWLW","A6HDSE80LQPR8","3XUSYT70ITN3RRKBJPNBFGD6FGOD06","","","null","","","","","","","",""
"1020","","image-keyboard-response","215","162588","0.0-144.0","3ND9UOO81LOHJD7IGFJMU7Q1XKTWLW","A6HDSE80LQPR8","3XUSYT70ITN3RRKBJPNBFGD6FGOD06","","img/set1/S3.jpg","72","3","structured_normal","72","true","structured_normal,structured_incentive,random","1,2,2,3","",""
"null","","html-keyboard-response","216","162945","0.0-145.0","3ND9UOO81LOHJD7IGFJMU7Q1XKTWLW","A6HDSE80LQPR8","3XUSYT70ITN3RRKBJPNBFGD6FGOD06","","<img src=""img/set1/S3.jpg"" width=""540"" height = ""360"" style=""border:16px solid orange"">","null","","","","","","","",""
"null","","html-keyboard-response","217","162946","0.0-146.0","3ND9UOO81LOHJD7IGFJMU7Q1XKTWLW","A6HDSE80LQPR8","3XUSYT70ITN3RRKBJPNBFGD6FGOD06","","","null","","","","","","","",""
"524","","image-keyboard-response","218","163470","0.0-147.0","3ND9UOO81LOHJD7IGFJMU7Q1XKTWLW","A6HDSE80LQPR8","3XUSYT70ITN3RRKBJPNBFGD6FGOD06","","img/set1/S3.jpg","72","3","structured_normal","72","true","structured_normal,structured_incentive,random","1,2,2,3","",""
"null","","html-keyboard-response","219","163826","0.0-148.0","3ND9UOO81LOHJD7IGFJMU7Q1XKTWLW","A6HDSE80LQPR8","3XUSYT70ITN3RRKBJPNBFGD6FGOD06","","<img src=""img/set1/S3.jpg"" width=""540"" height = ""360"" style=""border:16px solid orange"">","null","","","","","","","",""
"null","","html-keyboard-response","220","163826","0.0-149.0","3ND9UOO81LOHJD7IGFJMU7Q1XKTWLW","A6HDSE80LQPR8","3XUSYT70ITN3RRKBJPNBFGD6FGOD06","","","null","","","","","","","",""
"576","","image-keyboard-response","221","164404","0.0-150.0","3ND9UOO81LOHJD7IGFJMU7Q1XKTWLW","A6HDSE80LQPR8","3XUSYT70ITN3RRKBJPNBFGD6FGOD06","","img/set1/S4.jpg","74","4","structured_normal","74","true","structured_normal,structured_incentive,random","1,2,2,3","",""
"null","","html-keyboard-response","222","164761","0.0-151.0","3ND9UOO81LOHJD7IGFJMU7Q1XKTWLW","A6HDSE80LQPR8","3XUSYT70ITN3RRKBJPNBFGD6FGOD06","","<img src=""img/set1/S4.jpg"" width=""540"" height = ""360"" style=""border:16px solid orange"">","null","","","","","","","",""
"null","","html-keyboard-response","223","164762","0.0-152.0","3ND9UOO81LOHJD7IGFJMU7Q1XKTWLW","A6HDSE80LQPR8","3XUSYT70ITN3RRKBJPNBFGD6FGOD06","","","null","","","","","","","",""
"847","","image-keyboard-response","224","165609","0.0-153.0","3ND9UOO81LOHJD7IGFJMU7Q1XKTWLW","A6HDSE80LQPR8","3XUSYT70ITN3RRKBJPNBFGD6FGOD06","","img/set1/S2.jpg","68","2","structured_normal","68","true","structured_normal,structured_incentive,random","1,2,2,3","",""
"null","","html-keyboard-response","225","165975","0.0-154.0","3ND9UOO81LOHJD7IGFJMU7Q1XKTWLW","A6HDSE80LQPR8","3XUSYT70ITN3RRKBJPNBFGD6FGOD06","","<img src=""img/set1/S2.jpg"" width=""540"" height = ""360"" style=""border:16px solid orange"">","null","","","","","","","",""
"null","","html-keyboard-response","226","165976","0.0-155.0","3ND9UOO81LOHJD7IGFJMU7Q1XKTWLW","A6HDSE80LQPR8","3XUSYT70ITN3RRKBJPNBFGD6FGOD06","","","null","","","","","","","",""
"2117","","image-keyboard-response","227","168095","0.0-156.0","3ND9UOO81LOHJD7IGFJMU7Q1XKTWLW","A6HDSE80LQPR8","3XUSYT70ITN3RRKBJPNBFGD6FGOD06","","img/set1/S3.jpg","72","3","structured_normal","72","true","structured_normal,structured_incentive,random","1,2,2,3","",""
"null","","html-keyboard-response","228","168456","0.0-157.0","3ND9UOO81LOHJD7IGFJMU7Q1XKTWLW","A6HDSE80LQPR8","3XUSYT70ITN3RRKBJPNBFGD6FGOD06","","<img src=""img/set1/S3.jpg"" width=""540"" height = ""360"" style=""border:16px solid orange"">","null","","","","","","","",""
"null","","html-keyboard-response","229","168456","0.0-158.0","3ND9UOO81LOHJD7IGFJMU7Q1XKTWLW","A6HDSE80LQPR8","3XUSYT70ITN3RRKBJPNBFGD6FGOD06","","","null","","","","","","","",""
"635","","image-keyboard-response","230","169092","0.0-159.0","3ND9UOO81LOHJD7IGFJMU7Q1XKTWLW","A6HDSE80LQPR8","3XUSYT70ITN3RRKBJPNBFGD6FGOD06","","img/set1/S4.jpg","74","4","structured_normal","74","true","structured_normal,structured_incentive,random","1,2,2,3","",""
"null","","html-keyboard-response","231","169456","0.0-160.0","3ND9UOO81LOHJD7IGFJMU7Q1XKTWLW","A6HDSE80LQPR8","3XUSYT70ITN3RRKBJPNBFGD6FGOD06","","<img src=""img/set1/S4.jpg"" width=""540"" height = ""360"" style=""border:16px solid orange"">","null","","","","","","","",""
"null","","html-keyboard-response","232","169457","0.0-161.0","3ND9UOO81LOHJD7IGFJMU7Q1XKTWLW","A6HDSE80LQPR8","3XUSYT70ITN3RRKBJPNBFGD6FGOD06","","","null","","","","","","","",""
"524","","image-keyboard-response","233","169980","0.0-162.0","3ND9UOO81LOHJD7IGFJMU7Q1XKTWLW","A6HDSE80LQPR8","3XUSYT70ITN3RRKBJPNBFGD6FGOD06","","img/set1/S4.jpg","74","4","structured_normal","74","true","structured_normal,structured_incentive,random","1,2,2,3","",""
"null","","html-keyboard-response","234","170345","0.0-163.0","3ND9UOO81LOHJD7IGFJMU7Q1XKTWLW","A6HDSE80LQPR8","3XUSYT70ITN3RRKBJPNBFGD6FGOD06","","<img src=""img/set1/S4.jpg"" width=""540"" height = ""360"" style=""border:16px solid orange"">","null","","","","","","","",""
"null","","html-keyboard-response","235","170346","0.0-164.0","3ND9UOO81LOHJD7IGFJMU7Q1XKTWLW","A6HDSE80LQPR8","3XUSYT70ITN3RRKBJPNBFGD6FGOD06","","","null","","","","","","","",""
"636","","image-keyboard-response","236","170983","0.0-165.0","3ND9UOO81LOHJD7IGFJMU7Q1XKTWLW","A6HDSE80LQPR8","3XUSYT70ITN3RRKBJPNBFGD6FGOD06","","img/set1/S1.jpg","83","1","structured_normal","83","true","structured_normal,structured_incentive,random","1,2,2,3","",""
"null","","html-keyboard-response","237","171346","0.0-166.0","3ND9UOO81LOHJD7IGFJMU7Q1XKTWLW","A6HDSE80LQPR8","3XUSYT70ITN3RRKBJPNBFGD6FGOD06","","<img src=""img/set1/S1.jpg"" width=""540"" height = ""360"" style=""border:16px solid orange"">","null","","","","","","","",""
"null","","html-keyboard-response","238","171346","0.0-167.0","3ND9UOO81LOHJD7IGFJMU7Q1XKTWLW","A6HDSE80LQPR8","3XUSYT70ITN3RRKBJPNBFGD6FGOD06","","","null","","","","","","","",""
"870","","image-keyboard-response","239","172217","0.0-168.0","3ND9UOO81LOHJD7IGFJMU7Q1XKTWLW","A6HDSE80LQPR8","3XUSYT70ITN3RRKBJPNBFGD6FGOD06","","img/set1/S2.jpg","68","2","structured_normal","68","true","structured_normal,structured_incentive,random","1,2,2,3","",""
"null","","html-keyboard-response","240","172576","0.0-169.0","3ND9UOO81LOHJD7IGFJMU7Q1XKTWLW","A6HDSE80LQPR8","3XUSYT70ITN3RRKBJPNBFGD6FGOD06","","<img src=""img/set1/S2.jpg"" width=""540"" height = ""360"" style=""border:16px solid orange"">","null","","","","","","","",""
"null","","html-keyboard-response","241","172577","0.0-170.0","3ND9UOO81LOHJD7IGFJMU7Q1XKTWLW","A6HDSE80LQPR8","3XUSYT70ITN3RRKBJPNBFGD6FGOD06","","","null","","","","","","","",""
"780","","image-keyboard-response","242","173358","0.0-171.0","3ND9UOO81LOHJD7IGFJMU7Q1XKTWLW","A6HDSE80LQPR8","3XUSYT70ITN3RRKBJPNBFGD6FGOD06","","img/set1/S1.jpg","83","1","structured_normal","83","true","structured_normal,structured_incentive,random","1,2,2,3","",""
"null","","html-keyboard-response","243","173716","0.0-172.0","3ND9UOO81LOHJD7IGFJMU7Q1XKTWLW","A6HDSE80LQPR8","3XUSYT70ITN3RRKBJPNBFGD6FGOD06","","<img src=""img/set1/S1.jpg"" width=""540"" height = ""360"" style=""border:16px solid orange"">","null","","","","","","","",""
"null","","html-keyboard-response","244","173716","0.0-173.0","3ND9UOO81LOHJD7IGFJMU7Q1XKTWLW","A6HDSE80LQPR8","3XUSYT70ITN3RRKBJPNBFGD6FGOD06","","","null","","","","","","","",""
"2098","","image-keyboard-response","245","175816","0.0-174.0","3ND9UOO81LOHJD7IGFJMU7Q1XKTWLW","A6HDSE80LQPR8","3XUSYT70ITN3RRKBJPNBFGD6FGOD06","","img/set1/S2.jpg","68","2","structured_normal","68","true","structured_normal,structured_incentive,random","1,2,2,3","",""
"null","","html-keyboard-response","246","176176","0.0-175.0","3ND9UOO81LOHJD7IGFJMU7Q1XKTWLW","A6HDSE80LQPR8","3XUSYT70ITN3RRKBJPNBFGD6FGOD06","","<img src=""img/set1/S2.jpg"" width=""540"" height = ""360"" style=""border:16px solid orange"">","null","","","","","","","",""
"null","","html-keyboard-response","247","176176","0.0-176.0","3ND9UOO81LOHJD7IGFJMU7Q1XKTWLW","A6HDSE80LQPR8","3XUSYT70ITN3RRKBJPNBFGD6FGOD06","","","null","","","","","","","",""
"680","","image-keyboard-response","248","176857","0.0-177.0","3ND9UOO81LOHJD7IGFJMU7Q1XKTWLW","A6HDSE80LQPR8","3XUSYT70ITN3RRKBJPNBFGD6FGOD06","","img/set1/S1.jpg","83","1","structured_normal","83","true","structured_normal,structured_incentive,random","1,2,2,3","",""
"null","","html-keyboard-response","249","177226","0.0-178.0","3ND9UOO81LOHJD7IGFJMU7Q1XKTWLW","A6HDSE80LQPR8","3XUSYT70ITN3RRKBJPNBFGD6FGOD06","","<img src=""img/set1/S1.jpg"" width=""540"" height = ""360"" style=""border:16px solid orange"">","null","","","","","","","",""
"null","","html-keyboard-response","250","177227","0.0-179.0","3ND9UOO81LOHJD7IGFJMU7Q1XKTWLW","A6HDSE80LQPR8","3XUSYT70ITN3RRKBJPNBFGD6FGOD06","","","null","","","","","","","",""
"863","","image-keyboard-response","251","178092","0.0-180.0","3ND9UOO81LOHJD7IGFJMU7Q1XKTWLW","A6HDSE80LQPR8","3XUSYT70ITN3RRKBJPNBFGD6FGOD06","","img/set1/S3.jpg","72","3","structured_normal","72","true","structured_normal,structured_incentive,random","1,2,2,3","",""
"null","","html-keyboard-response","252","178456","0.0-181.0","3ND9UOO81LOHJD7IGFJMU7Q1XKTWLW","A6HDSE80LQPR8","3XUSYT70ITN3RRKBJPNBFGD6FGOD06","","<img src=""img/set1/S3.jpg"" width=""540"" height = ""360"" style=""border:16px solid orange"">","null","","","","","","","",""
"null","","html-keyboard-response","253","178456","0.0-182.0","3ND9UOO81LOHJD7IGFJMU7Q1XKTWLW","A6HDSE80LQPR8","3XUSYT70ITN3RRKBJPNBFGD6FGOD06","","","null","","","","","","","",""
"427","","image-keyboard-response","254","178885","0.0-183.0","3ND9UOO81LOHJD7IGFJMU7Q1XKTWLW","A6HDSE80LQPR8","3XUSYT70ITN3RRKBJPNBFGD6FGOD06","","img/set1/S3.jpg","72","3","structured_normal","72","true","structured_normal,structured_incentive,random","1,2,2,3","",""
"null","","html-keyboard-response","255","179236","0.0-184.0","3ND9UOO81LOHJD7IGFJMU7Q1XKTWLW","A6HDSE80LQPR8","3XUSYT70ITN3RRKBJPNBFGD6FGOD06","","<img src=""img/set1/S3.jpg"" width=""540"" height = ""360"" style=""border:16px solid orange"">","null","","","","","","","",""
"null","","html-keyboard-response","256","179237","0.0-185.0","3ND9UOO81LOHJD7IGFJMU7Q1XKTWLW","A6HDSE80LQPR8","3XUSYT70ITN3RRKBJPNBFGD6FGOD06","","","null","","","","","","","",""
"353","","image-keyboard-response","257","179591","0.0-186.0","3ND9UOO81LOHJD7IGFJMU7Q1XKTWLW","A6HDSE80LQPR8","3XUSYT70ITN3RRKBJPNBFGD6FGOD06","","img/set1/S3.jpg","72","3","structured_normal","72","true","structured_normal,structured_incentive,random","1,2,2,3","",""
"null","","html-keyboard-response","258","179946","0.0-187.0","3ND9UOO81LOHJD7IGFJMU7Q1XKTWLW","A6HDSE80LQPR8","3XUSYT70ITN3RRKBJPNBFGD6FGOD06","","<img src=""img/set1/S3.jpg"" width=""540"" height = ""360"" style=""border:16px solid orange"">","null","","","","","","","",""
"null","","html-keyboard-response","259","179947","0.0-188.0","3ND9UOO81LOHJD7IGFJMU7Q1XKTWLW","A6HDSE80LQPR8","3XUSYT70ITN3RRKBJPNBFGD6FGOD06","","","null","","","","","","","",""
"649","","image-keyboard-response","260","180597","0.0-189.0","3ND9UOO81LOHJD7IGFJMU7Q1XKTWLW","A6HDSE80LQPR8","3XUSYT70ITN3RRKBJPNBFGD6FGOD06","","img/set1/S1.jpg","83","1","structured_normal","83","true","structured_normal,structured_incentive,random","1,2,2,3","",""
"null","","html-keyboard-response","261","180966","0.0-190.0","3ND9UOO81LOHJD7IGFJMU7Q1XKTWLW","A6HDSE80LQPR8","3XUSYT70ITN3RRKBJPNBFGD6FGOD06","","<img src=""img/set1/S1.jpg"" width=""540"" height = ""360"" style=""border:16px solid orange"">","null","","","","","","","",""
"null","","html-keyboard-response","262","180967","0.0-191.0","3ND9UOO81LOHJD7IGFJMU7Q1XKTWLW","A6HDSE80LQPR8","3XUSYT70ITN3RRKBJPNBFGD6FGOD06","","","null","","","","","","","",""
"744","","image-keyboard-response","263","181712","0.0-192.0","3ND9UOO81LOHJD7IGFJMU7Q1XKTWLW","A6HDSE80LQPR8","3XUSYT70ITN3RRKBJPNBFGD6FGOD06","","img/set1/S2.jpg","68","2","structured_normal","68","true","structured_normal,structured_incentive,random","1,2,2,3","",""
"null","","html-keyboard-response","264","182066","0.0-193.0","3ND9UOO81LOHJD7IGFJMU7Q1XKTWLW","A6HDSE80LQPR8","3XUSYT70ITN3RRKBJPNBFGD6FGOD06","","<img src=""img/set1/S2.jpg"" width=""540"" height = ""360"" style=""border:16px solid orange"">","null","","","","","","","",""
"null","","html-keyboard-response","265","182067","0.0-194.0","3ND9UOO81LOHJD7IGFJMU7Q1XKTWLW","A6HDSE80LQPR8","3XUSYT70ITN3RRKBJPNBFGD6FGOD06","","","null","","","","","","","",""
"629","","image-keyboard-response","266","182697","0.0-195.0","3ND9UOO81LOHJD7IGFJMU7Q1XKTWLW","A6HDSE80LQPR8","3XUSYT70ITN3RRKBJPNBFGD6FGOD06","","img/set1/S4.jpg","74","4","structured_normal","74","true","structured_normal,structured_incentive,random","1,2,2,3","",""
"null","","html-keyboard-response","267","183066","0.0-196.0","3ND9UOO81LOHJD7IGFJMU7Q1XKTWLW","A6HDSE80LQPR8","3XUSYT70ITN3RRKBJPNBFGD6FGOD06","","<img src=""img/set1/S4.jpg"" width=""540"" height = ""360"" style=""border:16px solid orange"">","null","","","","","","","",""
"null","","html-keyboard-response","268","183066","0.0-197.0","3ND9UOO81LOHJD7IGFJMU7Q1XKTWLW","A6HDSE80LQPR8","3XUSYT70ITN3RRKBJPNBFGD6FGOD06","","","null","","","","","","","",""
"620","","image-keyboard-response","269","183687","0.0-198.0","3ND9UOO81LOHJD7IGFJMU7Q1XKTWLW","A6HDSE80LQPR8","3XUSYT70ITN3RRKBJPNBFGD6FGOD06","","img/set1/S3.jpg","83","3","structured_normal","72","false","structured_normal,structured_incentive,random","1,2,2,3","",""
"null","","html-keyboard-response","270","184056","0.0-199.0","3ND9UOO81LOHJD7IGFJMU7Q1XKTWLW","A6HDSE80LQPR8","3XUSYT70ITN3RRKBJPNBFGD6FGOD06","","<img src=""img/set1/S3.jpg"" width=""540"" height = ""360"">","null","","","","","","","",""
"null","","html-keyboard-response","271","184058","0.0-200.0","3ND9UOO81LOHJD7IGFJMU7Q1XKTWLW","A6HDSE80LQPR8","3XUSYT70ITN3RRKBJPNBFGD6FGOD06","","","null","","","","","","","",""
"21","","image-keyboard-response","272","184080","0.0-201.0","3ND9UOO81LOHJD7IGFJMU7Q1XKTWLW","A6HDSE80LQPR8","3XUSYT70ITN3RRKBJPNBFGD6FGOD06","","img/set1/S4.jpg","72","4","structured_normal","74","false","structured_normal,structured_incentive,random","1,2,2,3","",""
"null","","html-keyboard-response","273","184445","0.0-202.0","3ND9UOO81LOHJD7IGFJMU7Q1XKTWLW","A6HDSE80LQPR8","3XUSYT70ITN3RRKBJPNBFGD6FGOD06","","<img src=""img/set1/S4.jpg"" width=""540"" height = ""360"">","null","","","","","","","",""
"null","","html-keyboard-response","274","184446","0.0-203.0","3ND9UOO81LOHJD7IGFJMU7Q1XKTWLW","A6HDSE80LQPR8","3XUSYT70ITN3RRKBJPNBFGD6FGOD06","","","null","","","","","","","",""
"454","","image-keyboard-response","275","184901","0.0-204.0","3ND9UOO81LOHJD7IGFJMU7Q1XKTWLW","A6HDSE80LQPR8","3XUSYT70ITN3RRKBJPNBFGD6FGOD06","","img/set1/S4.jpg","74","4","structured_normal","74","true","structured_normal,structured_incentive,random","1,2,2,3","",""
"null","","html-keyboard-response","276","185266","0.0-205.0","3ND9UOO81LOHJD7IGFJMU7Q1XKTWLW","A6HDSE80LQPR8","3XUSYT70ITN3RRKBJPNBFGD6FGOD06","","<img src=""img/set1/S4.jpg"" width=""540"" height = ""360"" style=""border:16px solid orange"">","null","","","","","","","",""
"null","","html-keyboard-response","277","185267","0.0-206.0","3ND9UOO81LOHJD7IGFJMU7Q1XKTWLW","A6HDSE80LQPR8","3XUSYT70ITN3RRKBJPNBFGD6FGOD06","","","null","","","","","","","",""
"1248","","image-keyboard-response","278","186515","0.0-207.0","3ND9UOO81LOHJD7IGFJMU7Q1XKTWLW","A6HDSE80LQPR8","3XUSYT70ITN3RRKBJPNBFGD6FGOD06","","img/set1/S3.jpg","72","3","structured_normal","72","true","structured_normal,structured_incentive,random","1,2,2,3","",""
"null","","html-keyboard-response","279","186877","0.0-208.0","3ND9UOO81LOHJD7IGFJMU7Q1XKTWLW","A6HDSE80LQPR8","3XUSYT70ITN3RRKBJPNBFGD6FGOD06","","<img src=""img/set1/S3.jpg"" width=""540"" height = ""360"" style=""border:16px solid orange"">","null","","","","","","","",""
"null","","html-keyboard-response","280","186877","0.0-209.0","3ND9UOO81LOHJD7IGFJMU7Q1XKTWLW","A6HDSE80LQPR8","3XUSYT70ITN3RRKBJPNBFGD6FGOD06","","","null","","","","","","","",""
"588","","image-keyboard-response","281","187464","0.0-210.0","3ND9UOO81LOHJD7IGFJMU7Q1XKTWLW","A6HDSE80LQPR8","3XUSYT70ITN3RRKBJPNBFGD6FGOD06","","img/set1/S1.jpg","83","1","structured_normal","83","true","structured_normal,structured_incentive,random","1,2,2,3","",""
"null","","html-keyboard-response","282","187817","0.0-211.0","3ND9UOO81LOHJD7IGFJMU7Q1XKTWLW","A6HDSE80LQPR8","3XUSYT70ITN3RRKBJPNBFGD6FGOD06","","<img src=""img/set1/S1.jpg"" width=""540"" height = ""360"" style=""border:16px solid orange"">","null","","","","","","","",""
"null","","html-keyboard-response","283","187817","0.0-212.0","3ND9UOO81LOHJD7IGFJMU7Q1XKTWLW","A6HDSE80LQPR8","3XUSYT70ITN3RRKBJPNBFGD6FGOD06","","","null","","","","","","","",""
"767","","image-keyboard-response","284","188584","0.0-213.0","3ND9UOO81LOHJD7IGFJMU7Q1XKTWLW","A6HDSE80LQPR8","3XUSYT70ITN3RRKBJPNBFGD6FGOD06","","img/set1/S3.jpg","72","3","structured_normal","72","true","structured_normal,structured_incentive,random","1,2,2,3","",""
"null","","html-keyboard-response","285","188947","0.0-214.0","3ND9UOO81LOHJD7IGFJMU7Q1XKTWLW","A6HDSE80LQPR8","3XUSYT70ITN3RRKBJPNBFGD6FGOD06","","<img src=""img/set1/S3.jpg"" width=""540"" height = ""360"" style=""border:16px solid orange"">","null","","","","","","","",""
"null","","html-keyboard-response","286","188947","0.0-215.0","3ND9UOO81LOHJD7IGFJMU7Q1XKTWLW","A6HDSE80LQPR8","3XUSYT70ITN3RRKBJPNBFGD6FGOD06","","","null","","","","","","","",""
"720","","image-keyboard-response","287","189669","0.0-216.0","3ND9UOO81LOHJD7IGFJMU7Q1XKTWLW","A6HDSE80LQPR8","3XUSYT70ITN3RRKBJPNBFGD6FGOD06","","img/set1/S2.jpg","68","2","structured_normal","68","true","structured_normal,structured_incentive,random","1,2,2,3","",""
"null","","html-keyboard-response","288","190037","0.0-217.0","3ND9UOO81LOHJD7IGFJMU7Q1XKTWLW","A6HDSE80LQPR8","3XUSYT70ITN3RRKBJPNBFGD6FGOD06","","<img src=""img/set1/S2.jpg"" width=""540"" height = ""360"" style=""border:16px solid orange"">","null","","","","","","","",""
"null","","html-keyboard-response","289","190037","0.0-218.0","3ND9UOO81LOHJD7IGFJMU7Q1XKTWLW","A6HDSE80LQPR8","3XUSYT70ITN3RRKBJPNBFGD6FGOD06","","","null","","","","","","","",""
"639","","image-keyboard-response","290","190678","0.0-219.0","3ND9UOO81LOHJD7IGFJMU7Q1XKTWLW","A6HDSE80LQPR8","3XUSYT70ITN3RRKBJPNBFGD6FGOD06","","img/set1/S3.jpg","72","3","structured_normal","72","true","structured_normal,structured_incentive,random","1,2,2,3","",""
"null","","html-keyboard-response","291","191037","0.0-220.0","3ND9UOO81LOHJD7IGFJMU7Q1XKTWLW","A6HDSE80LQPR8","3XUSYT70ITN3RRKBJPNBFGD6FGOD06","","<img src=""img/set1/S3.jpg"" width=""540"" height = ""360"" style=""border:16px solid orange"">","null","","","","","","","",""
"null","","html-keyboard-response","292","191037","0.0-221.0","3ND9UOO81LOHJD7IGFJMU7Q1XKTWLW","A6HDSE80LQPR8","3XUSYT70ITN3RRKBJPNBFGD6FGOD06","","","null","","","","","","","",""
"463","","image-keyboard-response","293","191501","0.0-222.0","3ND9UOO81LOHJD7IGFJMU7Q1XKTWLW","A6HDSE80LQPR8","3XUSYT70ITN3RRKBJPNBFGD6FGOD06","","img/set1/S3.jpg","72","3","structured_normal","72","true","structured_normal,structured_incentive,random","1,2,2,3","",""
"null","","html-keyboard-response","294","191857","0.0-223.0","3ND9UOO81LOHJD7IGFJMU7Q1XKTWLW","A6HDSE80LQPR8","3XUSYT70ITN3RRKBJPNBFGD6FGOD06","","<img src=""img/set1/S3.jpg"" width=""540"" height = ""360"" style=""border:16px solid orange"">","null","","","","","","","",""
"null","","html-keyboard-response","295","191857","0.0-224.0","3ND9UOO81LOHJD7IGFJMU7Q1XKTWLW","A6HDSE80LQPR8","3XUSYT70ITN3RRKBJPNBFGD6FGOD06","","","null","","","","","","","",""
"620","","image-keyboard-response","296","192478","0.0-225.0","3ND9UOO81LOHJD7IGFJMU7Q1XKTWLW","A6HDSE80LQPR8","3XUSYT70ITN3RRKBJPNBFGD6FGOD06","","img/set1/S1.jpg","83","1","structured_normal","83","true","structured_normal,structured_incentive,random","1,2,2,3","",""
"null","","html-keyboard-response","297","192847","0.0-226.0","3ND9UOO81LOHJD7IGFJMU7Q1XKTWLW","A6HDSE80LQPR8","3XUSYT70ITN3RRKBJPNBFGD6FGOD06","","<img src=""img/set1/S1.jpg"" width=""540"" height = ""360"" style=""border:16px solid orange"">","null","","","","","","","",""
"null","","html-keyboard-response","298","192847","0.0-227.0","3ND9UOO81LOHJD7IGFJMU7Q1XKTWLW","A6HDSE80LQPR8","3XUSYT70ITN3RRKBJPNBFGD6FGOD06","","","null","","","","","","","",""
"721","","image-keyboard-response","299","193568","0.0-228.0","3ND9UOO81LOHJD7IGFJMU7Q1XKTWLW","A6HDSE80LQPR8","3XUSYT70ITN3RRKBJPNBFGD6FGOD06","","img/set1/S2.jpg","68","2","structured_normal","68","true","structured_normal,structured_incentive,random","1,2,2,3","",""
"null","","html-keyboard-response","300","193927","0.0-229.0","3ND9UOO81LOHJD7IGFJMU7Q1XKTWLW","A6HDSE80LQPR8","3XUSYT70ITN3RRKBJPNBFGD6FGOD06","","<img src=""img/set1/S2.jpg"" width=""540"" height = ""360"" style=""border:16px solid orange"">","null","","","","","","","",""
"null","","html-keyboard-response","301","193928","0.0-230.0","3ND9UOO81LOHJD7IGFJMU7Q1XKTWLW","A6HDSE80LQPR8","3XUSYT70ITN3RRKBJPNBFGD6FGOD06","","","null","","","","","","","",""
"699","","image-keyboard-response","302","194627","0.0-231.0","3ND9UOO81LOHJD7IGFJMU7Q1XKTWLW","A6HDSE80LQPR8","3XUSYT70ITN3RRKBJPNBFGD6FGOD06","","img/set1/S3.jpg","72","3","structured_normal","72","true","structured_normal,structured_incentive,random","1,2,2,3","",""
"null","","html-keyboard-response","303","194997","0.0-232.0","3ND9UOO81LOHJD7IGFJMU7Q1XKTWLW","A6HDSE80LQPR8","3XUSYT70ITN3RRKBJPNBFGD6FGOD06","","<img src=""img/set1/S3.jpg"" width=""540"" height = ""360"" style=""border:16px solid orange"">","null","","","","","","","",""
"null","","html-keyboard-response","304","194997","0.0-233.0","3ND9UOO81LOHJD7IGFJMU7Q1XKTWLW","A6HDSE80LQPR8","3XUSYT70ITN3RRKBJPNBFGD6FGOD06","","","null","","","","","","","",""
"491","","image-keyboard-response","305","195489","0.0-234.0","3ND9UOO81LOHJD7IGFJMU7Q1XKTWLW","A6HDSE80LQPR8","3XUSYT70ITN3RRKBJPNBFGD6FGOD06","","img/set1/S4.jpg","74","4","structured_normal","74","true","structured_normal,structured_incentive,random","1,2,2,3","",""
"null","","html-keyboard-response","306","195857","0.0-235.0","3ND9UOO81LOHJD7IGFJMU7Q1XKTWLW","A6HDSE80LQPR8","3XUSYT70ITN3RRKBJPNBFGD6FGOD06","","<img src=""img/set1/S4.jpg"" width=""540"" height = ""360"" style=""border:16px solid orange"">","null","","","","","","","",""
"null","","html-keyboard-response","307","195858","0.0-236.0","3ND9UOO81LOHJD7IGFJMU7Q1XKTWLW","A6HDSE80LQPR8","3XUSYT70ITN3RRKBJPNBFGD6FGOD06","","","null","","","","","","","",""
"581","","image-keyboard-response","308","196439","0.0-237.0","3ND9UOO81LOHJD7IGFJMU7Q1XKTWLW","A6HDSE80LQPR8","3XUSYT70ITN3RRKBJPNBFGD6FGOD06","","img/set1/S1.jpg","83","1","structured_normal","83","true","structured_normal,structured_incentive,random","1,2,2,3","",""
"null","","html-keyboard-response","309","196797","0.0-238.0","3ND9UOO81LOHJD7IGFJMU7Q1XKTWLW","A6HDSE80LQPR8","3XUSYT70ITN3RRKBJPNBFGD6FGOD06","","<img src=""img/set1/S1.jpg"" width=""540"" height = ""360"" style=""border:16px solid orange"">","null","","","","","","","",""
"null","","html-keyboard-response","310","196798","0.0-239.0","3ND9UOO81LOHJD7IGFJMU7Q1XKTWLW","A6HDSE80LQPR8","3XUSYT70ITN3RRKBJPNBFGD6FGOD06","","","null","","","","","","","",""
"474","","image-keyboard-response","311","197273","0.0-240.0","3ND9UOO81LOHJD7IGFJMU7Q1XKTWLW","A6HDSE80LQPR8","3XUSYT70ITN3RRKBJPNBFGD6FGOD06","","img/set1/S2.jpg","68","2","structured_normal","68","true","structured_normal,structured_incentive,random","1,2,2,3","",""
"null","","html-keyboard-response","312","197637","0.0-241.0","3ND9UOO81LOHJD7IGFJMU7Q1XKTWLW","A6HDSE80LQPR8","3XUSYT70ITN3RRKBJPNBFGD6FGOD06","","<img src=""img/set1/S2.jpg"" width=""540"" height = ""360"" style=""border:16px solid orange"">","null","","","","","","","",""
"null","","html-keyboard-response","313","197638","0.0-242.0","3ND9UOO81LOHJD7IGFJMU7Q1XKTWLW","A6HDSE80LQPR8","3XUSYT70ITN3RRKBJPNBFGD6FGOD06","","","null","","","","","","","",""
"601","","image-keyboard-response","314","198238","0.0-243.0","3ND9UOO81LOHJD7IGFJMU7Q1XKTWLW","A6HDSE80LQPR8","3XUSYT70ITN3RRKBJPNBFGD6FGOD06","","img/set1/S4.jpg","74","4","structured_normal","74","true","structured_normal,structured_incentive,random","1,2,2,3","",""
"null","","html-keyboard-response","315","198607","0.0-244.0","3ND9UOO81LOHJD7IGFJMU7Q1XKTWLW","A6HDSE80LQPR8","3XUSYT70ITN3RRKBJPNBFGD6FGOD06","","<img src=""img/set1/S4.jpg"" width=""540"" height = ""360"" style=""border:16px solid orange"">","null","","","","","","","",""
"null","","html-keyboard-response","316","198607","0.0-245.0","3ND9UOO81LOHJD7IGFJMU7Q1XKTWLW","A6HDSE80LQPR8","3XUSYT70ITN3RRKBJPNBFGD6FGOD06","","","null","","","","","","","",""
"706","","image-keyboard-response","317","199313","0.0-246.0","3ND9UOO81LOHJD7IGFJMU7Q1XKTWLW","A6HDSE80LQPR8","3XUSYT70ITN3RRKBJPNBFGD6FGOD06","","img/set1/S2.jpg","68","2","structured_normal","68","true","structured_normal,structured_incentive,random","1,2,2,3","",""
"null","","html-keyboard-response","318","199678","0.0-247.0","3ND9UOO81LOHJD7IGFJMU7Q1XKTWLW","A6HDSE80LQPR8","3XUSYT70ITN3RRKBJPNBFGD6FGOD06","","<img src=""img/set1/S2.jpg"" width=""540"" height = ""360"" style=""border:16px solid orange"">","null","","","","","","","",""
"null","","html-keyboard-response","319","199678","0.0-248.0","3ND9UOO81LOHJD7IGFJMU7Q1XKTWLW","A6HDSE80LQPR8","3XUSYT70ITN3RRKBJPNBFGD6FGOD06","","","null","","","","","","","",""
"654","","image-keyboard-response","320","200333","0.0-249.0","3ND9UOO81LOHJD7IGFJMU7Q1XKTWLW","A6HDSE80LQPR8","3XUSYT70ITN3RRKBJPNBFGD6FGOD06","","img/set1/S4.jpg","74","4","structured_normal","74","true","structured_normal,structured_incentive,random","1,2,2,3","",""
"null","","html-keyboard-response","321","200697","0.0-250.0","3ND9UOO81LOHJD7IGFJMU7Q1XKTWLW","A6HDSE80LQPR8","3XUSYT70ITN3RRKBJPNBFGD6FGOD06","","<img src=""img/set1/S4.jpg"" width=""540"" height = ""360"" style=""border:16px solid orange"">","null","","","","","","","",""
"null","","html-keyboard-response","322","200698","0.0-251.0","3ND9UOO81LOHJD7IGFJMU7Q1XKTWLW","A6HDSE80LQPR8","3XUSYT70ITN3RRKBJPNBFGD6FGOD06","","","null","","","","","","","",""
"637","","image-keyboard-response","323","201336","0.0-252.0","3ND9UOO81LOHJD7IGFJMU7Q1XKTWLW","A6HDSE80LQPR8","3XUSYT70ITN3RRKBJPNBFGD6FGOD06","","img/set1/S2.jpg","68","2","structured_normal","68","true","structured_normal,structured_incentive,random","1,2,2,3","",""
"null","","html-keyboard-response","324","201697","0.0-253.0","3ND9UOO81LOHJD7IGFJMU7Q1XKTWLW","A6HDSE80LQPR8","3XUSYT70ITN3RRKBJPNBFGD6FGOD06","","<img src=""img/set1/S2.jpg"" width=""540"" height = ""360"" style=""border:16px solid orange"">","null","","","","","","","",""
"null","","html-keyboard-response","325","201698","0.0-254.0","3ND9UOO81LOHJD7IGFJMU7Q1XKTWLW","A6HDSE80LQPR8","3XUSYT70ITN3RRKBJPNBFGD6FGOD06","","","null","","","","","","","",""
"609","","image-keyboard-response","326","202307","0.0-255.0","3ND9UOO81LOHJD7IGFJMU7Q1XKTWLW","A6HDSE80LQPR8","3XUSYT70ITN3RRKBJPNBFGD6FGOD06","","img/set1/S4.jpg","74","4","structured_normal","74","true","structured_normal,structured_incentive,random","1,2,2,3","",""
"null","","html-keyboard-response","327","202677","0.0-256.0","3ND9UOO81LOHJD7IGFJMU7Q1XKTWLW","A6HDSE80LQPR8","3XUSYT70ITN3RRKBJPNBFGD6FGOD06","","<img src=""img/set1/S4.jpg"" width=""540"" height = ""360"" style=""border:16px solid orange"">","null","","","","","","","",""
"null","","html-keyboard-response","328","202678","0.0-257.0","3ND9UOO81LOHJD7IGFJMU7Q1XKTWLW","A6HDSE80LQPR8","3XUSYT70ITN3RRKBJPNBFGD6FGOD06","","","null","","","","","","","",""
"754","","image-keyboard-response","329","203433","0.0-258.0","3ND9UOO81LOHJD7IGFJMU7Q1XKTWLW","A6HDSE80LQPR8","3XUSYT70ITN3RRKBJPNBFGD6FGOD06","","img/set1/S2.jpg","68","2","structured_normal","68","true","structured_normal,structured_incentive,random","1,2,2,3","",""
"null","","html-keyboard-response","330","203787","0.0-259.0","3ND9UOO81LOHJD7IGFJMU7Q1XKTWLW","A6HDSE80LQPR8","3XUSYT70ITN3RRKBJPNBFGD6FGOD06","","<img src=""img/set1/S2.jpg"" width=""540"" height = ""360"" style=""border:16px solid orange"">","null","","","","","","","",""
"null","","html-keyboard-response","331","203788","0.0-260.0","3ND9UOO81LOHJD7IGFJMU7Q1XKTWLW","A6HDSE80LQPR8","3XUSYT70ITN3RRKBJPNBFGD6FGOD06","","","null","","","","","","","",""
"504","","image-keyboard-response","332","204292","0.0-261.0","3ND9UOO81LOHJD7IGFJMU7Q1XKTWLW","A6HDSE80LQPR8","3XUSYT70ITN3RRKBJPNBFGD6FGOD06","","img/set1/S4.jpg","74","4","structured_normal","74","true","structured_normal,structured_incentive,random","1,2,2,3","",""
"null","","html-keyboard-response","333","204658","0.0-262.0","3ND9UOO81LOHJD7IGFJMU7Q1XKTWLW","A6HDSE80LQPR8","3XUSYT70ITN3RRKBJPNBFGD6FGOD06","","<img src=""img/set1/S4.jpg"" width=""540"" height = ""360"" style=""border:16px solid orange"">","null","","","","","","","",""
"null","","html-keyboard-response","334","204658","0.0-263.0","3ND9UOO81LOHJD7IGFJMU7Q1XKTWLW","A6HDSE80LQPR8","3XUSYT70ITN3RRKBJPNBFGD6FGOD06","","","null","","","","","","","",""
"1188","","image-keyboard-response","335","205846","0.0-264.0","3ND9UOO81LOHJD7IGFJMU7Q1XKTWLW","A6HDSE80LQPR8","3XUSYT70ITN3RRKBJPNBFGD6FGOD06","","img/set1/S3.jpg","72","3","structured_normal","72","true","structured_normal,structured_incentive,random","1,2,2,3","",""
"null","","html-keyboard-response","336","206204","0.0-265.0","3ND9UOO81LOHJD7IGFJMU7Q1XKTWLW","A6HDSE80LQPR8","3XUSYT70ITN3RRKBJPNBFGD6FGOD06","","<img src=""img/set1/S3.jpg"" width=""540"" height = ""360"" style=""border:16px solid orange"">","null","","","","","","","",""
"null","","html-keyboard-response","337","206204","0.0-266.0","3ND9UOO81LOHJD7IGFJMU7Q1XKTWLW","A6HDSE80LQPR8","3XUSYT70ITN3RRKBJPNBFGD6FGOD06","","","null","","","","","","","",""
"564","","image-keyboard-response","338","206768","0.0-267.0","3ND9UOO81LOHJD7IGFJMU7Q1XKTWLW","A6HDSE80LQPR8","3XUSYT70ITN3RRKBJPNBFGD6FGOD06","","img/set1/S1.jpg","83","1","structured_normal","83","true","structured_normal,structured_incentive,random","1,2,2,3","",""
"null","","html-keyboard-response","339","207137","0.0-268.0","3ND9UOO81LOHJD7IGFJMU7Q1XKTWLW","A6HDSE80LQPR8","3XUSYT70ITN3RRKBJPNBFGD6FGOD06","","<img src=""img/set1/S1.jpg"" width=""540"" height = ""360"" style=""border:16px solid orange"">","null","","","","","","","",""
"null","","html-keyboard-response","340","207137","0.0-269.0","3ND9UOO81LOHJD7IGFJMU7Q1XKTWLW","A6HDSE80LQPR8","3XUSYT70ITN3RRKBJPNBFGD6FGOD06","","","null","","","","","","","",""
"635","","image-keyboard-response","341","207772","0.0-270.0","3ND9UOO81LOHJD7IGFJMU7Q1XKTWLW","A6HDSE80LQPR8","3XUSYT70ITN3RRKBJPNBFGD6FGOD06","","img/set1/S2.jpg","68","2","structured_normal","68","true","structured_normal,structured_incentive,random","1,2,2,3","",""
"null","","html-keyboard-response","342","208128","0.0-271.0","3ND9UOO81LOHJD7IGFJMU7Q1XKTWLW","A6HDSE80LQPR8","3XUSYT70ITN3RRKBJPNBFGD6FGOD06","","<img src=""img/set1/S2.jpg"" width=""540"" height = ""360"" style=""border:16px solid orange"">","null","","","","","","","",""
"null","","html-keyboard-response","343","208129","0.0-272.0","3ND9UOO81LOHJD7IGFJMU7Q1XKTWLW","A6HDSE80LQPR8","3XUSYT70ITN3RRKBJPNBFGD6FGOD06","","","null","","","","","","","",""
"912","","image-keyboard-response","344","209042","0.0-273.0","3ND9UOO81LOHJD7IGFJMU7Q1XKTWLW","A6HDSE80LQPR8","3XUSYT70ITN3RRKBJPNBFGD6FGOD06","","img/set1/S3.jpg","72","3","structured_normal","72","true","structured_normal,structured_incentive,random","1,2,2,3","",""
"null","","html-keyboard-response","345","209408","0.0-274.0","3ND9UOO81LOHJD7IGFJMU7Q1XKTWLW","A6HDSE80LQPR8","3XUSYT70ITN3RRKBJPNBFGD6FGOD06","","<img src=""img/set1/S3.jpg"" width=""540"" height = ""360"" style=""border:16px solid orange"">","null","","","","","","","",""
"null","","html-keyboard-response","346","209409","0.0-275.0","3ND9UOO81LOHJD7IGFJMU7Q1XKTWLW","A6HDSE80LQPR8","3XUSYT70ITN3RRKBJPNBFGD6FGOD06","","","null","","","","","","","",""
"650","","image-keyboard-response","347","210060","0.0-276.0","3ND9UOO81LOHJD7IGFJMU7Q1XKTWLW","A6HDSE80LQPR8","3XUSYT70ITN3RRKBJPNBFGD6FGOD06","","img/set1/S1.jpg","83","1","structured_normal","83","true","structured_normal,structured_incentive,random","1,2,2,3","",""
"null","","html-keyboard-response","348","210417","0.0-277.0","3ND9UOO81LOHJD7IGFJMU7Q1XKTWLW","A6HDSE80LQPR8","3XUSYT70ITN3RRKBJPNBFGD6FGOD06","","<img src=""img/set1/S1.jpg"" width=""540"" height = ""360"" style=""border:16px solid orange"">","null","","","","","","","",""
"null","","html-keyboard-response","349","210418","0.0-278.0","3ND9UOO81LOHJD7IGFJMU7Q1XKTWLW","A6HDSE80LQPR8","3XUSYT70ITN3RRKBJPNBFGD6FGOD06","","","null","","","","","","","",""
"1834","","image-keyboard-response","350","212253","0.0-279.0","3ND9UOO81LOHJD7IGFJMU7Q1XKTWLW","A6HDSE80LQPR8","3XUSYT70ITN3RRKBJPNBFGD6FGOD06","","img/set1/S2.jpg","68","2","structured_normal","68","true","structured_normal,structured_incentive,random","1,2,2,3","",""
"null","","html-keyboard-response","351","212619","0.0-280.0","3ND9UOO81LOHJD7IGFJMU7Q1XKTWLW","A6HDSE80LQPR8","3XUSYT70ITN3RRKBJPNBFGD6FGOD06","","<img src=""img/set1/S2.jpg"" width=""540"" height = ""360"" style=""border:16px solid orange"">","null","","","","","","","",""
"null","","html-keyboard-response","352","212619","0.0-281.0","3ND9UOO81LOHJD7IGFJMU7Q1XKTWLW","A6HDSE80LQPR8","3XUSYT70ITN3RRKBJPNBFGD6FGOD06","","","null","","","","","","","",""
"1466","","image-keyboard-response","353","214085","0.0-282.0","3ND9UOO81LOHJD7IGFJMU7Q1XKTWLW","A6HDSE80LQPR8","3XUSYT70ITN3RRKBJPNBFGD6FGOD06","","img/set1/S1.jpg","83","1","structured_normal","83","true","structured_normal,structured_incentive,random","1,2,2,3","",""
"null","","html-keyboard-response","354","214438","0.0-283.0","3ND9UOO81LOHJD7IGFJMU7Q1XKTWLW","A6HDSE80LQPR8","3XUSYT70ITN3RRKBJPNBFGD6FGOD06","","<img src=""img/set1/S1.jpg"" width=""540"" height = ""360"" style=""border:16px solid orange"">","null","","","","","","","",""
"null","","html-keyboard-response","355","214439","0.0-284.0","3ND9UOO81LOHJD7IGFJMU7Q1XKTWLW","A6HDSE80LQPR8","3XUSYT70ITN3RRKBJPNBFGD6FGOD06","","","null","","","","","","","",""
"570","","image-keyboard-response","356","215009","0.0-285.0","3ND9UOO81LOHJD7IGFJMU7Q1XKTWLW","A6HDSE80LQPR8","3XUSYT70ITN3RRKBJPNBFGD6FGOD06","","img/set1/S2.jpg","68","2","structured_normal","68","true","structured_normal,structured_incentive,random","1,2,2,3","",""
"null","","html-keyboard-response","357","215377","0.0-286.0","3ND9UOO81LOHJD7IGFJMU7Q1XKTWLW","A6HDSE80LQPR8","3XUSYT70ITN3RRKBJPNBFGD6FGOD06","","<img src=""img/set1/S2.jpg"" width=""540"" height = ""360"" style=""border:16px solid orange"">","null","","","","","","","",""
"null","","html-keyboard-response","358","215378","0.0-287.0","3ND9UOO81LOHJD7IGFJMU7Q1XKTWLW","A6HDSE80LQPR8","3XUSYT70ITN3RRKBJPNBFGD6FGOD06","","","null","","","","","","","",""
"574","","image-keyboard-response","359","215953","0.0-288.0","3ND9UOO81LOHJD7IGFJMU7Q1XKTWLW","A6HDSE80LQPR8","3XUSYT70ITN3RRKBJPNBFGD6FGOD06","","img/set1/S4.jpg","74","4","structured_normal","74","true","structured_normal,structured_incentive,random","1,2,2,3","",""
"null","","html-keyboard-response","360","216318","0.0-289.0","3ND9UOO81LOHJD7IGFJMU7Q1XKTWLW","A6HDSE80LQPR8","3XUSYT70ITN3RRKBJPNBFGD6FGOD06","","<img src=""img/set1/S4.jpg"" width=""540"" height = ""360"" style=""border:16px solid orange"">","null","","","","","","","",""
"null","","html-keyboard-response","361","216318","0.0-290.0","3ND9UOO81LOHJD7IGFJMU7Q1XKTWLW","A6HDSE80LQPR8","3XUSYT70ITN3RRKBJPNBFGD6FGOD06","","","null","","","","","","","",""
"883","","image-keyboard-response","362","217202","0.0-291.0","3ND9UOO81LOHJD7IGFJMU7Q1XKTWLW","A6HDSE80LQPR8","3XUSYT70ITN3RRKBJPNBFGD6FGOD06","","img/set1/S3.jpg","72","3","structured_normal","72","true","structured_normal,structured_incentive,random","1,2,2,3","",""
"null","","html-keyboard-response","363","217568","0.0-292.0","3ND9UOO81LOHJD7IGFJMU7Q1XKTWLW","A6HDSE80LQPR8","3XUSYT70ITN3RRKBJPNBFGD6FGOD06","","<img src=""img/set1/S3.jpg"" width=""540"" height = ""360"" style=""border:16px solid orange"">","null","","","","","","","",""
"null","","html-keyboard-response","364","217568","0.0-293.0","3ND9UOO81LOHJD7IGFJMU7Q1XKTWLW","A6HDSE80LQPR8","3XUSYT70ITN3RRKBJPNBFGD6FGOD06","","","null","","","","","","","",""
"922","","image-keyboard-response","365","218491","0.0-294.0","3ND9UOO81LOHJD7IGFJMU7Q1XKTWLW","A6HDSE80LQPR8","3XUSYT70ITN3RRKBJPNBFGD6FGOD06","","img/set1/S2.jpg","68","2","structured_normal","68","true","structured_normal,structured_incentive,random","1,2,2,3","",""
"null","","html-keyboard-response","366","218848","0.0-295.0","3ND9UOO81LOHJD7IGFJMU7Q1XKTWLW","A6HDSE80LQPR8","3XUSYT70ITN3RRKBJPNBFGD6FGOD06","","<img src=""img/set1/S2.jpg"" width=""540"" height = ""360"" style=""border:16px solid orange"">","null","","","","","","","",""
"null","","html-keyboard-response","367","218849","0.0-296.0","3ND9UOO81LOHJD7IGFJMU7Q1XKTWLW","A6HDSE80LQPR8","3XUSYT70ITN3RRKBJPNBFGD6FGOD06","","","null","","","","","","","",""
"683","","image-keyboard-response","368","219533","0.0-297.0","3ND9UOO81LOHJD7IGFJMU7Q1XKTWLW","A6HDSE80LQPR8","3XUSYT70ITN3RRKBJPNBFGD6FGOD06","","img/set1/S3.jpg","74","3","structured_normal","72","false","structured_normal,structured_incentive,random","1,2,2,3","",""
"null","","html-keyboard-response","369","219888","0.0-298.0","3ND9UOO81LOHJD7IGFJMU7Q1XKTWLW","A6HDSE80LQPR8","3XUSYT70ITN3RRKBJPNBFGD6FGOD06","","<img src=""img/set1/S3.jpg"" width=""540"" height = ""360"">","null","","","","","","","",""
"null","","html-keyboard-response","370","219889","0.0-299.0","3ND9UOO81LOHJD7IGFJMU7Q1XKTWLW","A6HDSE80LQPR8","3XUSYT70ITN3RRKBJPNBFGD6FGOD06","","","null","","","","","","","",""
"567","","image-keyboard-response","371","220456","0.0-300.0","3ND9UOO81LOHJD7IGFJMU7Q1XKTWLW","A6HDSE80LQPR8","3XUSYT70ITN3RRKBJPNBFGD6FGOD06","","img/set1/S1.jpg","83","1","structured_normal","83","true","structured_normal,structured_incentive,random","1,2,2,3","",""
"null","","html-keyboard-response","372","220807","0.0-301.0","3ND9UOO81LOHJD7IGFJMU7Q1XKTWLW","A6HDSE80LQPR8","3XUSYT70ITN3RRKBJPNBFGD6FGOD06","","<img src=""img/set1/S1.jpg"" width=""540"" height = ""360"" style=""border:16px solid orange"">","null","","","","","","","",""
"null","","html-keyboard-response","373","220808","0.0-302.0","3ND9UOO81LOHJD7IGFJMU7Q1XKTWLW","A6HDSE80LQPR8","3XUSYT70ITN3RRKBJPNBFGD6FGOD06","","","null","","","","","","","",""
"473","","image-keyboard-response","374","221282","0.0-303.0","3ND9UOO81LOHJD7IGFJMU7Q1XKTWLW","A6HDSE80LQPR8","3XUSYT70ITN3RRKBJPNBFGD6FGOD06","","img/set1/S3.jpg","72","3","structured_normal","72","true","structured_normal,structured_incentive,random","1,2,2,3","",""
"null","","html-keyboard-response","375","221647","0.0-304.0","3ND9UOO81LOHJD7IGFJMU7Q1XKTWLW","A6HDSE80LQPR8","3XUSYT70ITN3RRKBJPNBFGD6FGOD06","","<img src=""img/set1/S3.jpg"" width=""540"" height = ""360"" style=""border:16px solid orange"">","null","","","","","","","",""
"null","","html-keyboard-response","376","221648","0.0-305.0","3ND9UOO81LOHJD7IGFJMU7Q1XKTWLW","A6HDSE80LQPR8","3XUSYT70ITN3RRKBJPNBFGD6FGOD06","","","null","","","","","","","",""
"530","","image-keyboard-response","377","222179","0.0-306.0","3ND9UOO81LOHJD7IGFJMU7Q1XKTWLW","A6HDSE80LQPR8","3XUSYT70ITN3RRKBJPNBFGD6FGOD06","","img/set1/S4.jpg","74","4","structured_normal","74","true","structured_normal,structured_incentive,random","1,2,2,3","",""
"null","","html-keyboard-response","378","222537","0.0-307.0","3ND9UOO81LOHJD7IGFJMU7Q1XKTWLW","A6HDSE80LQPR8","3XUSYT70ITN3RRKBJPNBFGD6FGOD06","","<img src=""img/set1/S4.jpg"" width=""540"" height = ""360"" style=""border:16px solid orange"">","null","","","","","","","",""
"null","","html-keyboard-response","379","222538","0.0-308.0","3ND9UOO81LOHJD7IGFJMU7Q1XKTWLW","A6HDSE80LQPR8","3XUSYT70ITN3RRKBJPNBFGD6FGOD06","","","null","","","","","","","",""
"607","","image-keyboard-response","380","223146","0.0-309.0","3ND9UOO81LOHJD7IGFJMU7Q1XKTWLW","A6HDSE80LQPR8","3XUSYT70ITN3RRKBJPNBFGD6FGOD06","","img/set1/S1.jpg","83","1","structured_normal","83","true","structured_normal,structured_incentive,random","1,2,2,3","",""
"null","","html-keyboard-response","381","223498","0.0-310.0","3ND9UOO81LOHJD7IGFJMU7Q1XKTWLW","A6HDSE80LQPR8","3XUSYT70ITN3RRKBJPNBFGD6FGOD06","","<img src=""img/set1/S1.jpg"" width=""540"" height = ""360"" style=""border:16px solid orange"">","null","","","","","","","",""
"null","","html-keyboard-response","382","223499","0.0-311.0","3ND9UOO81LOHJD7IGFJMU7Q1XKTWLW","A6HDSE80LQPR8","3XUSYT70ITN3RRKBJPNBFGD6FGOD06","","","null","","","","","","","",""
"704","","image-keyboard-response","383","224204","0.0-312.0","3ND9UOO81LOHJD7IGFJMU7Q1XKTWLW","A6HDSE80LQPR8","3XUSYT70ITN3RRKBJPNBFGD6FGOD06","","img/set1/S2.jpg","68","2","structured_normal","68","true","structured_normal,structured_incentive,random","1,2,2,3","",""
"null","","html-keyboard-response","384","224558","0.0-313.0","3ND9UOO81LOHJD7IGFJMU7Q1XKTWLW","A6HDSE80LQPR8","3XUSYT70ITN3RRKBJPNBFGD6FGOD06","","<img src=""img/set1/S2.jpg"" width=""540"" height = ""360"" style=""border:16px solid orange"">","null","","","","","","","",""
"null","","html-keyboard-response","385","224558","0.0-314.0","3ND9UOO81LOHJD7IGFJMU7Q1XKTWLW","A6HDSE80LQPR8","3XUSYT70ITN3RRKBJPNBFGD6FGOD06","","","null","","","","","","","",""
"528","","image-keyboard-response","386","225086","0.0-315.0","3ND9UOO81LOHJD7IGFJMU7Q1XKTWLW","A6HDSE80LQPR8","3XUSYT70ITN3RRKBJPNBFGD6FGOD06","","img/set1/S4.jpg","74","4","structured_normal","74","true","structured_normal,structured_incentive,random","1,2,2,3","",""
"null","","html-keyboard-response","387","225438","0.0-316.0","3ND9UOO81LOHJD7IGFJMU7Q1XKTWLW","A6HDSE80LQPR8","3XUSYT70ITN3RRKBJPNBFGD6FGOD06","","<img src=""img/set1/S4.jpg"" width=""540"" height = ""360"" style=""border:16px solid orange"">","null","","","","","","","",""
"null","","html-keyboard-response","388","225438","0.0-317.0","3ND9UOO81LOHJD7IGFJMU7Q1XKTWLW","A6HDSE80LQPR8","3XUSYT70ITN3RRKBJPNBFGD6FGOD06","","","null","","","","","","","",""
"704","","image-keyboard-response","389","226145","0.0-318.0","3ND9UOO81LOHJD7IGFJMU7Q1XKTWLW","A6HDSE80LQPR8","3XUSYT70ITN3RRKBJPNBFGD6FGOD06","","img/set1/S3.jpg","72","3","structured_normal","72","true","structured_normal,structured_incentive,random","1,2,2,3","",""
"null","","html-keyboard-response","390","226498","0.0-319.0","3ND9UOO81LOHJD7IGFJMU7Q1XKTWLW","A6HDSE80LQPR8","3XUSYT70ITN3RRKBJPNBFGD6FGOD06","","<img src=""img/set1/S3.jpg"" width=""540"" height = ""360"" style=""border:16px solid orange"">","null","","","","","","","",""
"null","","html-keyboard-response","391","226499","0.0-320.0","3ND9UOO81LOHJD7IGFJMU7Q1XKTWLW","A6HDSE80LQPR8","3XUSYT70ITN3RRKBJPNBFGD6FGOD06","","","null","","","","","","","",""
"410","","image-keyboard-response","392","226910","0.0-321.0","3ND9UOO81LOHJD7IGFJMU7Q1XKTWLW","A6HDSE80LQPR8","3XUSYT70ITN3RRKBJPNBFGD6FGOD06","","img/set1/S3.jpg","72","3","structured_normal","72","true","structured_normal,structured_incentive,random","1,2,2,3","",""
"null","","html-keyboard-response","393","227268","0.0-322.0","3ND9UOO81LOHJD7IGFJMU7Q1XKTWLW","A6HDSE80LQPR8","3XUSYT70ITN3RRKBJPNBFGD6FGOD06","","<img src=""img/set1/S3.jpg"" width=""540"" height = ""360"" style=""border:16px solid orange"">","null","","","","","","","",""
"null","","html-keyboard-response","394","227269","0.0-323.0","3ND9UOO81LOHJD7IGFJMU7Q1XKTWLW","A6HDSE80LQPR8","3XUSYT70ITN3RRKBJPNBFGD6FGOD06","","","null","","","","","","","",""
"493","","image-keyboard-response","395","227764","0.0-324.0","3ND9UOO81LOHJD7IGFJMU7Q1XKTWLW","A6HDSE80LQPR8","3XUSYT70ITN3RRKBJPNBFGD6FGOD06","","img/set1/S1.jpg","83","1","structured_normal","83","true","structured_normal,structured_incentive,random","1,2,2,3","",""
"null","","html-keyboard-response","396","228118","0.0-325.0","3ND9UOO81LOHJD7IGFJMU7Q1XKTWLW","A6HDSE80LQPR8","3XUSYT70ITN3RRKBJPNBFGD6FGOD06","","<img src=""img/set1/S1.jpg"" width=""540"" height = ""360"" style=""border:16px solid orange"">","null","","","","","","","",""
"null","","html-keyboard-response","397","228119","0.0-326.0","3ND9UOO81LOHJD7IGFJMU7Q1XKTWLW","A6HDSE80LQPR8","3XUSYT70ITN3RRKBJPNBFGD6FGOD06","","","null","","","","","","","",""
"602","","image-keyboard-response","398","228722","0.0-327.0","3ND9UOO81LOHJD7IGFJMU7Q1XKTWLW","A6HDSE80LQPR8","3XUSYT70ITN3RRKBJPNBFGD6FGOD06","","img/set1/S3.jpg","72","3","structured_normal","72","true","structured_normal,structured_incentive,random","1,2,2,3","",""
"null","","html-keyboard-response","399","229088","0.0-328.0","3ND9UOO81LOHJD7IGFJMU7Q1XKTWLW","A6HDSE80LQPR8","3XUSYT70ITN3RRKBJPNBFGD6FGOD06","","<img src=""img/set1/S3.jpg"" width=""540"" height = ""360"" style=""border:16px solid orange"">","null","","","","","","","",""
"null","","html-keyboard-response","400","229089","0.0-329.0","3ND9UOO81LOHJD7IGFJMU7Q1XKTWLW","A6HDSE80LQPR8","3XUSYT70ITN3RRKBJPNBFGD6FGOD06","","","null","","","","","","","",""
"370","","image-keyboard-response","401","229460","0.0-330.0","3ND9UOO81LOHJD7IGFJMU7Q1XKTWLW","A6HDSE80LQPR8","3XUSYT70ITN3RRKBJPNBFGD6FGOD06","","img/set1/S4.jpg","74","4","structured_normal","74","true","structured_normal,structured_incentive,random","1,2,2,3","",""
"null","","html-keyboard-response","402","229818","0.0-331.0","3ND9UOO81LOHJD7IGFJMU7Q1XKTWLW","A6HDSE80LQPR8","3XUSYT70ITN3RRKBJPNBFGD6FGOD06","","<img src=""img/set1/S4.jpg"" width=""540"" height = ""360"" style=""border:16px solid orange"">","null","","","","","","","",""
"null","","html-keyboard-response","403","229819","0.0-332.0","3ND9UOO81LOHJD7IGFJMU7Q1XKTWLW","A6HDSE80LQPR8","3XUSYT70ITN3RRKBJPNBFGD6FGOD06","","","null","","","","","","","",""
"390","","image-keyboard-response","404","230209","0.0-333.0","3ND9UOO81LOHJD7IGFJMU7Q1XKTWLW","A6HDSE80LQPR8","3XUSYT70ITN3RRKBJPNBFGD6FGOD06","","img/set1/S2.jpg","68","2","structured_normal","68","true","structured_normal,structured_incentive,random","1,2,2,3","",""
"null","","html-keyboard-response","405","230578","0.0-334.0","3ND9UOO81LOHJD7IGFJMU7Q1XKTWLW","A6HDSE80LQPR8","3XUSYT70ITN3RRKBJPNBFGD6FGOD06","","<img src=""img/set1/S2.jpg"" width=""540"" height = ""360"" style=""border:16px solid orange"">","null","","","","","","","",""
"null","","html-keyboard-response","406","230579","0.0-335.0","3ND9UOO81LOHJD7IGFJMU7Q1XKTWLW","A6HDSE80LQPR8","3XUSYT70ITN3RRKBJPNBFGD6FGOD06","","","null","","","","","","","",""
"467","","image-keyboard-response","407","231046","0.0-336.0","3ND9UOO81LOHJD7IGFJMU7Q1XKTWLW","A6HDSE80LQPR8","3XUSYT70ITN3RRKBJPNBFGD6FGOD06","","img/set1/S1.jpg","83","1","structured_normal","83","true","structured_normal,structured_incentive,random","1,2,2,3","",""
"null","","html-keyboard-response","408","231398","0.0-337.0","3ND9UOO81LOHJD7IGFJMU7Q1XKTWLW","A6HDSE80LQPR8","3XUSYT70ITN3RRKBJPNBFGD6FGOD06","","<img src=""img/set1/S1.jpg"" width=""540"" height = ""360"" style=""border:16px solid orange"">","null","","","","","","","",""
"null","","html-keyboard-response","409","231399","0.0-338.0","3ND9UOO81LOHJD7IGFJMU7Q1XKTWLW","A6HDSE80LQPR8","3XUSYT70ITN3RRKBJPNBFGD6FGOD06","","","null","","","","","","","",""
"629","","image-keyboard-response","410","232029","0.0-339.0","3ND9UOO81LOHJD7IGFJMU7Q1XKTWLW","A6HDSE80LQPR8","3XUSYT70ITN3RRKBJPNBFGD6FGOD06","","img/set1/S2.jpg","68","2","structured_normal","68","true","structured_normal,structured_incentive,random","1,2,2,3","",""
"null","","html-keyboard-response","411","232399","0.0-340.0","3ND9UOO81LOHJD7IGFJMU7Q1XKTWLW","A6HDSE80LQPR8","3XUSYT70ITN3RRKBJPNBFGD6FGOD06","","<img src=""img/set1/S2.jpg"" width=""540"" height = ""360"" style=""border:16px solid orange"">","null","","","","","","","",""
"null","","html-keyboard-response","412","232399","0.0-341.0","3ND9UOO81LOHJD7IGFJMU7Q1XKTWLW","A6HDSE80LQPR8","3XUSYT70ITN3RRKBJPNBFGD6FGOD06","","","null","","","","","","","",""
"342","","image-keyboard-response","413","232741","0.0-342.0","3ND9UOO81LOHJD7IGFJMU7Q1XKTWLW","A6HDSE80LQPR8","3XUSYT70ITN3RRKBJPNBFGD6FGOD06","","img/set1/S3.jpg","72","3","structured_normal","72","true","structured_normal,structured_incentive,random","1,2,2,3","",""
"null","","html-keyboard-response","414","233108","0.0-343.0","3ND9UOO81LOHJD7IGFJMU7Q1XKTWLW","A6HDSE80LQPR8","3XUSYT70ITN3RRKBJPNBFGD6FGOD06","","<img src=""img/set1/S3.jpg"" width=""540"" height = ""360"" style=""border:16px solid orange"">","null","","","","","","","",""
"null","","html-keyboard-response","415","233109","0.0-344.0","3ND9UOO81LOHJD7IGFJMU7Q1XKTWLW","A6HDSE80LQPR8","3XUSYT70ITN3RRKBJPNBFGD6FGOD06","","","null","","","","","","","",""
"773","","image-keyboard-response","416","233883","0.0-345.0","3ND9UOO81LOHJD7IGFJMU7Q1XKTWLW","A6HDSE80LQPR8","3XUSYT70ITN3RRKBJPNBFGD6FGOD06","","img/set1/S1.jpg","83","1","structured_normal","83","true","structured_normal,structured_incentive,random","1,2,2,3","",""
"null","","html-keyboard-response","417","234238","0.0-346.0","3ND9UOO81LOHJD7IGFJMU7Q1XKTWLW","A6HDSE80LQPR8","3XUSYT70ITN3RRKBJPNBFGD6FGOD06","","<img src=""img/set1/S1.jpg"" width=""540"" height = ""360"" style=""border:16px solid orange"">","null","","","","","","","",""
"null","","html-keyboard-response","418","234239","0.0-347.0","3ND9UOO81LOHJD7IGFJMU7Q1XKTWLW","A6HDSE80LQPR8","3XUSYT70ITN3RRKBJPNBFGD6FGOD06","","","null","","","","","","","",""
"568","","image-keyboard-response","419","234808","0.0-348.0","3ND9UOO81LOHJD7IGFJMU7Q1XKTWLW","A6HDSE80LQPR8","3XUSYT70ITN3RRKBJPNBFGD6FGOD06","","img/set1/S2.jpg","68","2","structured_normal","68","true","structured_normal,structured_incentive,random","1,2,2,3","",""
