"rt","url","trial_type","trial_index","time_elapsed","internal_node_id","assignmentID","mturkID","hitID","view_history","stimulus","key_press","state","test_part","correct_response","correct","order_block","order_chunk","bonus","responses"
"6870.399999976158","consent.html","external-html","0","6922","0.0-0.0","3H8DHMCCWAX7Q1P9EK2VNJO1145DKO","ADJ9I7ZBFYFH7","3DFYDSXB2WMWAZWJRSN67LWQ0PPJUT","","","","","","","","","","",""
"81078.80000007153","","instructions","1","88002","0.0-1.0","3H8DHMCCWAX7Q1P9EK2VNJO1145DKO","ADJ9I7ZBFYFH7","3DFYDSXB2WMWAZWJRSN67LWQ0PPJUT","[{""page_index"":0,""viewing_time"":2901.5},{""page_index"":1,""viewing_time"":9120},{""page_index"":2,""viewing_time"":8559.600000023842},{""page_index"":3,""viewing_time"":8008},{""page_index"":4,""viewing_time"":9952.399999976158},{""page_index"":5,""viewing_time"":10168},{""page_index"":6,""viewing_time"":6784.300000071526},{""page_index"":7,""viewing_time"":25583.600000023842}]","","","","","","","","","",""
"2089.100000023842","","image-keyboard-response","2","90094","0.0-2.0-0.0","3H8DHMCCWAX7Q1P9EK2VNJO1145DKO","ADJ9I7ZBFYFH7","3DFYDSXB2WMWAZWJRSN67LWQ0PPJUT","","img/practice/S3.jpg","68","3","practice","72","false","","","",""
"null","","html-keyboard-response","3","90398","0.0-2.0-1.0","3H8DHMCCWAX7Q1P9EK2VNJO1145DKO","ADJ9I7ZBFYFH7","3DFYDSXB2WMWAZWJRSN67LWQ0PPJUT","","<img src=""img/practice/S3.jpg"" width=""540"" height = ""360"">","null","","","","","","","",""
"null","","html-keyboard-response","4","90401","0.0-2.0-2.0","3H8DHMCCWAX7Q1P9EK2VNJO1145DKO","ADJ9I7ZBFYFH7","3DFYDSXB2WMWAZWJRSN67LWQ0PPJUT","","","null","","","","","","","",""
"1696.7999999523163","","image-keyboard-response","5","92101","0.0-2.0-0.1","3H8DHMCCWAX7Q1P9EK2VNJO1145DKO","ADJ9I7ZBFYFH7","3DFYDSXB2WMWAZWJRSN67LWQ0PPJUT","","img/practice/S1.jpg","83","1","practice","83","true","","","",""
"null","","html-keyboard-response","6","92405","0.0-2.0-1.1","3H8DHMCCWAX7Q1P9EK2VNJO1145DKO","ADJ9I7ZBFYFH7","3DFYDSXB2WMWAZWJRSN67LWQ0PPJUT","","<img src=""img/practice/S1.jpg"" width=""540"" height = ""360"" style=""border:16px solid orange"">","null","","","","","","","",""
"null","","html-keyboard-response","7","92407","0.0-2.0-2.1","3H8DHMCCWAX7Q1P9EK2VNJO1145DKO","ADJ9I7ZBFYFH7","3DFYDSXB2WMWAZWJRSN67LWQ0PPJUT","","","null","","","","","","","",""
"1128.2999999523163","","image-keyboard-response","8","93537","0.0-2.0-0.2","3H8DHMCCWAX7Q1P9EK2VNJO1145DKO","ADJ9I7ZBFYFH7","3DFYDSXB2WMWAZWJRSN67LWQ0PPJUT","","img/practice/S4.jpg","83","4","practice","74","false","","","",""
"null","","html-keyboard-response","9","93839","0.0-2.0-1.2","3H8DHMCCWAX7Q1P9EK2VNJO1145DKO","ADJ9I7ZBFYFH7","3DFYDSXB2WMWAZWJRSN67LWQ0PPJUT","","<img src=""img/practice/S4.jpg"" width=""540"" height = ""360"">","null","","","","","","","",""
"null","","html-keyboard-response","10","93841","0.0-2.0-2.2","3H8DHMCCWAX7Q1P9EK2VNJO1145DKO","ADJ9I7ZBFYFH7","3DFYDSXB2WMWAZWJRSN67LWQ0PPJUT","","","null","","","","","","","",""
"1414.2000000476837","","image-keyboard-response","11","95257","0.0-2.0-0.3","3H8DHMCCWAX7Q1P9EK2VNJO1145DKO","ADJ9I7ZBFYFH7","3DFYDSXB2WMWAZWJRSN67LWQ0PPJUT","","img/practice/S2.jpg","72","2","practice","68","false","","","",""
"null","","html-keyboard-response","12","95559","0.0-2.0-1.3","3H8DHMCCWAX7Q1P9EK2VNJO1145DKO","ADJ9I7ZBFYFH7","3DFYDSXB2WMWAZWJRSN67LWQ0PPJUT","","<img src=""img/practice/S2.jpg"" width=""540"" height = ""360"">","null","","","","","","","",""
"null","","html-keyboard-response","13","95561","0.0-2.0-2.3","3H8DHMCCWAX7Q1P9EK2VNJO1145DKO","ADJ9I7ZBFYFH7","3DFYDSXB2WMWAZWJRSN67LWQ0PPJUT","","","null","","","","","","","",""
"741.5999999046326","","image-keyboard-response","14","96304","0.0-2.0-0.4","3H8DHMCCWAX7Q1P9EK2VNJO1145DKO","ADJ9I7ZBFYFH7","3DFYDSXB2WMWAZWJRSN67LWQ0PPJUT","","img/practice/S1.jpg","83","1","practice","83","true","","","",""
"null","","html-keyboard-response","15","96606","0.0-2.0-1.4","3H8DHMCCWAX7Q1P9EK2VNJO1145DKO","ADJ9I7ZBFYFH7","3DFYDSXB2WMWAZWJRSN67LWQ0PPJUT","","<img src=""img/practice/S1.jpg"" width=""540"" height = ""360"" style=""border:16px solid orange"">","null","","","","","","","",""
"null","","html-keyboard-response","16","96608","0.0-2.0-2.4","3H8DHMCCWAX7Q1P9EK2VNJO1145DKO","ADJ9I7ZBFYFH7","3DFYDSXB2WMWAZWJRSN67LWQ0PPJUT","","","null","","","","","","","",""
"684.2999999523163","","image-keyboard-response","17","97293","0.0-2.0-0.5","3H8DHMCCWAX7Q1P9EK2VNJO1145DKO","ADJ9I7ZBFYFH7","3DFYDSXB2WMWAZWJRSN67LWQ0PPJUT","","img/practice/S3.jpg","74","3","practice","72","false","","","",""
"null","","html-keyboard-response","18","97595","0.0-2.0-1.5","3H8DHMCCWAX7Q1P9EK2VNJO1145DKO","ADJ9I7ZBFYFH7","3DFYDSXB2WMWAZWJRSN67LWQ0PPJUT","","<img src=""img/practice/S3.jpg"" width=""540"" height = ""360"">","null","","","","","","","",""
"null","","html-keyboard-response","19","97598","0.0-2.0-2.5","3H8DHMCCWAX7Q1P9EK2VNJO1145DKO","ADJ9I7ZBFYFH7","3DFYDSXB2WMWAZWJRSN67LWQ0PPJUT","","","null","","","","","","","",""
"1160.6999999284744","","image-keyboard-response","20","98759","0.0-2.0-0.6","3H8DHMCCWAX7Q1P9EK2VNJO1145DKO","ADJ9I7ZBFYFH7","3DFYDSXB2WMWAZWJRSN67LWQ0PPJUT","","img/practice/S4.jpg","72","4","practice","74","false","","","",""
"null","","html-keyboard-response","21","99060","0.0-2.0-1.6","3H8DHMCCWAX7Q1P9EK2VNJO1145DKO","ADJ9I7ZBFYFH7","3DFYDSXB2WMWAZWJRSN67LWQ0PPJUT","","<img src=""img/practice/S4.jpg"" width=""540"" height = ""360"">","null","","","","","","","",""
"null","","html-keyboard-response","22","99062","0.0-2.0-2.6","3H8DHMCCWAX7Q1P9EK2VNJO1145DKO","ADJ9I7ZBFYFH7","3DFYDSXB2WMWAZWJRSN67LWQ0PPJUT","","","null","","","","","","","",""
"1481.7000000476837","","image-keyboard-response","23","100544","0.0-2.0-0.7","3H8DHMCCWAX7Q1P9EK2VNJO1145DKO","ADJ9I7ZBFYFH7","3DFYDSXB2WMWAZWJRSN67LWQ0PPJUT","","img/practice/S2.jpg","72","2","practice","68","false","","","",""
"null","","html-keyboard-response","24","100846","0.0-2.0-1.7","3H8DHMCCWAX7Q1P9EK2VNJO1145DKO","ADJ9I7ZBFYFH7","3DFYDSXB2WMWAZWJRSN67LWQ0PPJUT","","<img src=""img/practice/S2.jpg"" width=""540"" height = ""360"">","null","","","","","","","",""
"null","","html-keyboard-response","25","100848","0.0-2.0-2.7","3H8DHMCCWAX7Q1P9EK2VNJO1145DKO","ADJ9I7ZBFYFH7","3DFYDSXB2WMWAZWJRSN67LWQ0PPJUT","","","null","","","","","","","",""
"753.3000000715256","","image-keyboard-response","26","101602","0.0-2.0-0.8","3H8DHMCCWAX7Q1P9EK2VNJO1145DKO","ADJ9I7ZBFYFH7","3DFYDSXB2WMWAZWJRSN67LWQ0PPJUT","","img/practice/S1.jpg","83","1","practice","83","true","","","",""
"null","","html-keyboard-response","27","101904","0.0-2.0-1.8","3H8DHMCCWAX7Q1P9EK2VNJO1145DKO","ADJ9I7ZBFYFH7","3DFYDSXB2WMWAZWJRSN67LWQ0PPJUT","","<img src=""img/practice/S1.jpg"" width=""540"" height = ""360"" style=""border:16px solid orange"">","null","","","","","","","",""
"null","","html-keyboard-response","28","101906","0.0-2.0-2.8","3H8DHMCCWAX7Q1P9EK2VNJO1145DKO","ADJ9I7ZBFYFH7","3DFYDSXB2WMWAZWJRSN67LWQ0PPJUT","","","null","","","","","","","",""
"777.2000000476837","","image-keyboard-response","29","102684","0.0-2.0-0.9","3H8DHMCCWAX7Q1P9EK2VNJO1145DKO","ADJ9I7ZBFYFH7","3DFYDSXB2WMWAZWJRSN67LWQ0PPJUT","","img/practice/S2.jpg","74","2","practice","68","false","","","",""
"null","","html-keyboard-response","30","102985","0.0-2.0-1.9","3H8DHMCCWAX7Q1P9EK2VNJO1145DKO","ADJ9I7ZBFYFH7","3DFYDSXB2WMWAZWJRSN67LWQ0PPJUT","","<img src=""img/practice/S2.jpg"" width=""540"" height = ""360"">","null","","","","","","","",""
"null","","html-keyboard-response","31","102987","0.0-2.0-2.9","3H8DHMCCWAX7Q1P9EK2VNJO1145DKO","ADJ9I7ZBFYFH7","3DFYDSXB2WMWAZWJRSN67LWQ0PPJUT","","","null","","","","","","","",""
"1996.1000000238419","","image-keyboard-response","32","104984","0.0-2.0-0.10","3H8DHMCCWAX7Q1P9EK2VNJO1145DKO","ADJ9I7ZBFYFH7","3DFYDSXB2WMWAZWJRSN67LWQ0PPJUT","","img/practice/S4.jpg","68","4","practice","74","false","","","",""
"null","","html-keyboard-response","33","105286","0.0-2.0-1.10","3H8DHMCCWAX7Q1P9EK2VNJO1145DKO","ADJ9I7ZBFYFH7","3DFYDSXB2WMWAZWJRSN67LWQ0PPJUT","","<img src=""img/practice/S4.jpg"" width=""540"" height = ""360"">","null","","","","","","","",""
"null","","html-keyboard-response","34","105288","0.0-2.0-2.10","3H8DHMCCWAX7Q1P9EK2VNJO1145DKO","ADJ9I7ZBFYFH7","3DFYDSXB2WMWAZWJRSN67LWQ0PPJUT","","","null","","","","","","","",""
"1081.8000000715256","","image-keyboard-response","35","106371","0.0-2.0-0.11","3H8DHMCCWAX7Q1P9EK2VNJO1145DKO","ADJ9I7ZBFYFH7","3DFYDSXB2WMWAZWJRSN67LWQ0PPJUT","","img/practice/S3.jpg","72","3","practice","72","true","","","",""
"null","","html-keyboard-response","36","106672","0.0-2.0-1.11","3H8DHMCCWAX7Q1P9EK2VNJO1145DKO","ADJ9I7ZBFYFH7","3DFYDSXB2WMWAZWJRSN67LWQ0PPJUT","","<img src=""img/practice/S3.jpg"" width=""540"" height = ""360"" style=""border:16px solid orange"">","null","","","","","","","",""
"null","","html-keyboard-response","37","106675","0.0-2.0-2.11","3H8DHMCCWAX7Q1P9EK2VNJO1145DKO","ADJ9I7ZBFYFH7","3DFYDSXB2WMWAZWJRSN67LWQ0PPJUT","","","null","","","","","","","",""
"765.8000000715256","","image-keyboard-response","38","107441","0.0-2.0-0.12","3H8DHMCCWAX7Q1P9EK2VNJO1145DKO","ADJ9I7ZBFYFH7","3DFYDSXB2WMWAZWJRSN67LWQ0PPJUT","","img/practice/S3.jpg","72","3","practice","72","true","","","",""
"null","","html-keyboard-response","39","107743","0.0-2.0-1.12","3H8DHMCCWAX7Q1P9EK2VNJO1145DKO","ADJ9I7ZBFYFH7","3DFYDSXB2WMWAZWJRSN67LWQ0PPJUT","","<img src=""img/practice/S3.jpg"" width=""540"" height = ""360"" style=""border:16px solid orange"">","null","","","","","","","",""
"null","","html-keyboard-response","40","107745","0.0-2.0-2.12","3H8DHMCCWAX7Q1P9EK2VNJO1145DKO","ADJ9I7ZBFYFH7","3DFYDSXB2WMWAZWJRSN67LWQ0PPJUT","","","null","","","","","","","",""
"1133.4000000953674","","image-keyboard-response","41","108880","0.0-2.0-0.13","3H8DHMCCWAX7Q1P9EK2VNJO1145DKO","ADJ9I7ZBFYFH7","3DFYDSXB2WMWAZWJRSN67LWQ0PPJUT","","img/practice/S4.jpg","74","4","practice","74","true","","","",""
"null","","html-keyboard-response","42","109181","0.0-2.0-1.13","3H8DHMCCWAX7Q1P9EK2VNJO1145DKO","ADJ9I7ZBFYFH7","3DFYDSXB2WMWAZWJRSN67LWQ0PPJUT","","<img src=""img/practice/S4.jpg"" width=""540"" height = ""360"" style=""border:16px solid orange"">","null","","","","","","","",""
"null","","html-keyboard-response","43","109183","0.0-2.0-2.13","3H8DHMCCWAX7Q1P9EK2VNJO1145DKO","ADJ9I7ZBFYFH7","3DFYDSXB2WMWAZWJRSN67LWQ0PPJUT","","","null","","","","","","","",""
"968.6000000238419","","image-keyboard-response","44","110152","0.0-2.0-0.14","3H8DHMCCWAX7Q1P9EK2VNJO1145DKO","ADJ9I7ZBFYFH7","3DFYDSXB2WMWAZWJRSN67LWQ0PPJUT","","img/practice/S2.jpg","68","2","practice","68","true","","","",""
"null","","html-keyboard-response","45","110454","0.0-2.0-1.14","3H8DHMCCWAX7Q1P9EK2VNJO1145DKO","ADJ9I7ZBFYFH7","3DFYDSXB2WMWAZWJRSN67LWQ0PPJUT","","<img src=""img/practice/S2.jpg"" width=""540"" height = ""360"" style=""border:16px solid orange"">","null","","","","","","","",""
"null","","html-keyboard-response","46","110456","0.0-2.0-2.14","3H8DHMCCWAX7Q1P9EK2VNJO1145DKO","ADJ9I7ZBFYFH7","3DFYDSXB2WMWAZWJRSN67LWQ0PPJUT","","","null","","","","","","","",""
"601.2000000476837","","image-keyboard-response","47","111058","0.0-2.0-0.15","3H8DHMCCWAX7Q1P9EK2VNJO1145DKO","ADJ9I7ZBFYFH7","3DFYDSXB2WMWAZWJRSN67LWQ0PPJUT","","img/practice/S1.jpg","83","1","practice","83","true","","","",""
"null","","html-keyboard-response","48","111359","0.0-2.0-1.15","3H8DHMCCWAX7Q1P9EK2VNJO1145DKO","ADJ9I7ZBFYFH7","3DFYDSXB2WMWAZWJRSN67LWQ0PPJUT","","<img src=""img/practice/S1.jpg"" width=""540"" height = ""360"" style=""border:16px solid orange"">","null","","","","","","","",""
"null","","html-keyboard-response","49","111361","0.0-2.0-2.15","3H8DHMCCWAX7Q1P9EK2VNJO1145DKO","ADJ9I7ZBFYFH7","3DFYDSXB2WMWAZWJRSN67LWQ0PPJUT","","","null","","","","","","","",""
"1088.2000000476837","","image-keyboard-response","50","112450","0.0-2.0-0.16","3H8DHMCCWAX7Q1P9EK2VNJO1145DKO","ADJ9I7ZBFYFH7","3DFYDSXB2WMWAZWJRSN67LWQ0PPJUT","","img/practice/S3.jpg","72","3","practice","72","true","","","",""
"null","","html-keyboard-response","51","112752","0.0-2.0-1.16","3H8DHMCCWAX7Q1P9EK2VNJO1145DKO","ADJ9I7ZBFYFH7","3DFYDSXB2WMWAZWJRSN67LWQ0PPJUT","","<img src=""img/practice/S3.jpg"" width=""540"" height = ""360"" style=""border:16px solid orange"">","null","","","","","","","",""
"null","","html-keyboard-response","52","112754","0.0-2.0-2.16","3H8DHMCCWAX7Q1P9EK2VNJO1145DKO","ADJ9I7ZBFYFH7","3DFYDSXB2WMWAZWJRSN67LWQ0PPJUT","","","null","","","","","","","",""
"937","","image-keyboard-response","53","113692","0.0-2.0-0.17","3H8DHMCCWAX7Q1P9EK2VNJO1145DKO","ADJ9I7ZBFYFH7","3DFYDSXB2WMWAZWJRSN67LWQ0PPJUT","","img/practice/S2.jpg","74","2","practice","68","false","","","",""
"null","","html-keyboard-response","54","113993","0.0-2.0-1.17","3H8DHMCCWAX7Q1P9EK2VNJO1145DKO","ADJ9I7ZBFYFH7","3DFYDSXB2WMWAZWJRSN67LWQ0PPJUT","","<img src=""img/practice/S2.jpg"" width=""540"" height = ""360"">","null","","","","","","","",""
"null","","html-keyboard-response","55","113995","0.0-2.0-2.17","3H8DHMCCWAX7Q1P9EK2VNJO1145DKO","ADJ9I7ZBFYFH7","3DFYDSXB2WMWAZWJRSN67LWQ0PPJUT","","","null","","","","","","","",""
"667.5999999046326","","image-keyboard-response","56","114663","0.0-2.0-0.18","3H8DHMCCWAX7Q1P9EK2VNJO1145DKO","ADJ9I7ZBFYFH7","3DFYDSXB2WMWAZWJRSN67LWQ0PPJUT","","img/practice/S1.jpg","83","1","practice","83","true","","","",""
"null","","html-keyboard-response","57","114964","0.0-2.0-1.18","3H8DHMCCWAX7Q1P9EK2VNJO1145DKO","ADJ9I7ZBFYFH7","3DFYDSXB2WMWAZWJRSN67LWQ0PPJUT","","<img src=""img/practice/S1.jpg"" width=""540"" height = ""360"" style=""border:16px solid orange"">","null","","","","","","","",""
"null","","html-keyboard-response","58","114966","0.0-2.0-2.18","3H8DHMCCWAX7Q1P9EK2VNJO1145DKO","ADJ9I7ZBFYFH7","3DFYDSXB2WMWAZWJRSN67LWQ0PPJUT","","","null","","","","","","","",""
"857.8000000715256","","image-keyboard-response","59","115825","0.0-2.0-0.19","3H8DHMCCWAX7Q1P9EK2VNJO1145DKO","ADJ9I7ZBFYFH7","3DFYDSXB2WMWAZWJRSN67LWQ0PPJUT","","img/practice/S4.jpg","68","4","practice","74","false","","","",""
"null","","html-keyboard-response","60","116127","0.0-2.0-1.19","3H8DHMCCWAX7Q1P9EK2VNJO1145DKO","ADJ9I7ZBFYFH7","3DFYDSXB2WMWAZWJRSN67LWQ0PPJUT","","<img src=""img/practice/S4.jpg"" width=""540"" height = ""360"">","null","","","","","","","",""
"null","","html-keyboard-response","61","116129","0.0-2.0-2.19","3H8DHMCCWAX7Q1P9EK2VNJO1145DKO","ADJ9I7ZBFYFH7","3DFYDSXB2WMWAZWJRSN67LWQ0PPJUT","","","null","","","","","","","",""
"1017.5","","image-keyboard-response","62","117147","0.0-2.0-0.20","3H8DHMCCWAX7Q1P9EK2VNJO1145DKO","ADJ9I7ZBFYFH7","3DFYDSXB2WMWAZWJRSN67LWQ0PPJUT","","img/practice/S3.jpg","68","3","practice","72","false","","","",""
"null","","html-keyboard-response","63","117449","0.0-2.0-1.20","3H8DHMCCWAX7Q1P9EK2VNJO1145DKO","ADJ9I7ZBFYFH7","3DFYDSXB2WMWAZWJRSN67LWQ0PPJUT","","<img src=""img/practice/S3.jpg"" width=""540"" height = ""360"">","null","","","","","","","",""
"null","","html-keyboard-response","64","117451","0.0-2.0-2.20","3H8DHMCCWAX7Q1P9EK2VNJO1145DKO","ADJ9I7ZBFYFH7","3DFYDSXB2WMWAZWJRSN67LWQ0PPJUT","","","null","","","","","","","",""
"1881.1000000238419","","image-keyboard-response","65","119333","0.0-2.0-0.21","3H8DHMCCWAX7Q1P9EK2VNJO1145DKO","ADJ9I7ZBFYFH7","3DFYDSXB2WMWAZWJRSN67LWQ0PPJUT","","img/practice/S4.jpg","74","4","practice","74","true","","","",""
"null","","html-keyboard-response","66","119634","0.0-2.0-1.21","3H8DHMCCWAX7Q1P9EK2VNJO1145DKO","ADJ9I7ZBFYFH7","3DFYDSXB2WMWAZWJRSN67LWQ0PPJUT","","<img src=""img/practice/S4.jpg"" width=""540"" height = ""360"" style=""border:16px solid orange"">","null","","","","","","","",""
"null","","html-keyboard-response","67","119637","0.0-2.0-2.21","3H8DHMCCWAX7Q1P9EK2VNJO1145DKO","ADJ9I7ZBFYFH7","3DFYDSXB2WMWAZWJRSN67LWQ0PPJUT","","","null","","","","","","","",""
"722.0999999046326","","image-keyboard-response","68","120360","0.0-2.0-0.22","3H8DHMCCWAX7Q1P9EK2VNJO1145DKO","ADJ9I7ZBFYFH7","3DFYDSXB2WMWAZWJRSN67LWQ0PPJUT","","img/practice/S1.jpg","83","1","practice","83","true","","","",""
"null","","html-keyboard-response","69","120661","0.0-2.0-1.22","3H8DHMCCWAX7Q1P9EK2VNJO1145DKO","ADJ9I7ZBFYFH7","3DFYDSXB2WMWAZWJRSN67LWQ0PPJUT","","<img src=""img/practice/S1.jpg"" width=""540"" height = ""360"" style=""border:16px solid orange"">","null","","","","","","","",""
"null","","html-keyboard-response","70","120665","0.0-2.0-2.22","3H8DHMCCWAX7Q1P9EK2VNJO1145DKO","ADJ9I7ZBFYFH7","3DFYDSXB2WMWAZWJRSN67LWQ0PPJUT","","","null","","","","","","","",""
"893.2999999523163","","image-keyboard-response","71","121559","0.0-2.0-0.23","3H8DHMCCWAX7Q1P9EK2VNJO1145DKO","ADJ9I7ZBFYFH7","3DFYDSXB2WMWAZWJRSN67LWQ0PPJUT","","img/practice/S2.jpg","72","2","practice","68","false","","","",""
"null","","html-keyboard-response","72","121861","0.0-2.0-1.23","3H8DHMCCWAX7Q1P9EK2VNJO1145DKO","ADJ9I7ZBFYFH7","3DFYDSXB2WMWAZWJRSN67LWQ0PPJUT","","<img src=""img/practice/S2.jpg"" width=""540"" height = ""360"">","null","","","","","","","",""
"null","","html-keyboard-response","73","121863","0.0-2.0-2.23","3H8DHMCCWAX7Q1P9EK2VNJO1145DKO","ADJ9I7ZBFYFH7","3DFYDSXB2WMWAZWJRSN67LWQ0PPJUT","","","null","","","","","","","",""
"6024.699999928474","","instructions","74","127888","0.0-3.0","3H8DHMCCWAX7Q1P9EK2VNJO1145DKO","ADJ9I7ZBFYFH7","3DFYDSXB2WMWAZWJRSN67LWQ0PPJUT","[{""page_index"":0,""viewing_time"":6024.5}]","","","","","","","","","",""
"7599.700000047684","","instructions","75","135488","0.0-4.0","3H8DHMCCWAX7Q1P9EK2VNJO1145DKO","ADJ9I7ZBFYFH7","3DFYDSXB2WMWAZWJRSN67LWQ0PPJUT","[{""page_index"":0,""viewing_time"":7599.300000071526}]","","","","","","","","","",""
"6815.399999976158","","instructions","76","142304","0.0-5.0","3H8DHMCCWAX7Q1P9EK2VNJO1145DKO","ADJ9I7ZBFYFH7","3DFYDSXB2WMWAZWJRSN67LWQ0PPJUT","[{""page_index"":0,""viewing_time"":6815.199999928474}]","","","","","","","","","",""
"716.6000000238419","","image-keyboard-response","77","143022","0.0-6.0","3H8DHMCCWAX7Q1P9EK2VNJO1145DKO","ADJ9I7ZBFYFH7","3DFYDSXB2WMWAZWJRSN67LWQ0PPJUT","","img/set1/S3.jpg","83","3","random","72","false","random,structured_normal,structured_incentive","1,2,2,3","",""
"null","","html-keyboard-response","78","143374","0.0-7.0","3H8DHMCCWAX7Q1P9EK2VNJO1145DKO","ADJ9I7ZBFYFH7","3DFYDSXB2WMWAZWJRSN67LWQ0PPJUT","","<img src=""img/set1/S3.jpg"" width=""540"" height = ""360"">","null","","","","","","","",""
"null","","html-keyboard-response","79","143376","0.0-8.0","3H8DHMCCWAX7Q1P9EK2VNJO1145DKO","ADJ9I7ZBFYFH7","3DFYDSXB2WMWAZWJRSN67LWQ0PPJUT","","","null","","","","","","","",""
"983.3999999761581","","image-keyboard-response","80","144361","0.0-9.0","3H8DHMCCWAX7Q1P9EK2VNJO1145DKO","ADJ9I7ZBFYFH7","3DFYDSXB2WMWAZWJRSN67LWQ0PPJUT","","img/set1/S3.jpg","68","3","random","72","false","random,structured_normal,structured_incentive","1,2,2,3","",""
"null","","html-keyboard-response","81","144712","0.0-10.0","3H8DHMCCWAX7Q1P9EK2VNJO1145DKO","ADJ9I7ZBFYFH7","3DFYDSXB2WMWAZWJRSN67LWQ0PPJUT","","<img src=""img/set1/S3.jpg"" width=""540"" height = ""360"">","null","","","","","","","",""
"null","","html-keyboard-response","82","144715","0.0-11.0","3H8DHMCCWAX7Q1P9EK2VNJO1145DKO","ADJ9I7ZBFYFH7","3DFYDSXB2WMWAZWJRSN67LWQ0PPJUT","","","null","","","","","","","",""
"1336.1000000238419","","image-keyboard-response","83","146051","0.0-12.0","3H8DHMCCWAX7Q1P9EK2VNJO1145DKO","ADJ9I7ZBFYFH7","3DFYDSXB2WMWAZWJRSN67LWQ0PPJUT","","img/set1/S3.jpg","72","3","random","72","true","random,structured_normal,structured_incentive","1,2,2,3","",""
"null","","html-keyboard-response","84","146403","0.0-13.0","3H8DHMCCWAX7Q1P9EK2VNJO1145DKO","ADJ9I7ZBFYFH7","3DFYDSXB2WMWAZWJRSN67LWQ0PPJUT","","<img src=""img/set1/S3.jpg"" width=""540"" height = ""360"" style=""border:16px solid orange"">","null","","","","","","","",""
"null","","html-keyboard-response","85","146405","0.0-14.0","3H8DHMCCWAX7Q1P9EK2VNJO1145DKO","ADJ9I7ZBFYFH7","3DFYDSXB2WMWAZWJRSN67LWQ0PPJUT","","","null","","","","","","","",""
"834.5","","image-keyboard-response","86","147241","0.0-15.0","3H8DHMCCWAX7Q1P9EK2VNJO1145DKO","ADJ9I7ZBFYFH7","3DFYDSXB2WMWAZWJRSN67LWQ0PPJUT","","img/set1/S2.jpg","83","2","random","68","false","random,structured_normal,structured_incentive","1,2,2,3","",""
"null","","html-keyboard-response","87","147592","0.0-16.0","3H8DHMCCWAX7Q1P9EK2VNJO1145DKO","ADJ9I7ZBFYFH7","3DFYDSXB2WMWAZWJRSN67LWQ0PPJUT","","<img src=""img/set1/S2.jpg"" width=""540"" height = ""360"">","null","","","","","","","",""
"null","","html-keyboard-response","88","147594","0.0-17.0","3H8DHMCCWAX7Q1P9EK2VNJO1145DKO","ADJ9I7ZBFYFH7","3DFYDSXB2WMWAZWJRSN67LWQ0PPJUT","","","null","","","","","","","",""
"623.1000000238419","","image-keyboard-response","89","148218","0.0-18.0","3H8DHMCCWAX7Q1P9EK2VNJO1145DKO","ADJ9I7ZBFYFH7","3DFYDSXB2WMWAZWJRSN67LWQ0PPJUT","","img/set1/S2.jpg","83","2","random","68","false","random,structured_normal,structured_incentive","1,2,2,3","",""
"null","","html-keyboard-response","90","148570","0.0-19.0","3H8DHMCCWAX7Q1P9EK2VNJO1145DKO","ADJ9I7ZBFYFH7","3DFYDSXB2WMWAZWJRSN67LWQ0PPJUT","","<img src=""img/set1/S2.jpg"" width=""540"" height = ""360"">","null","","","","","","","",""
"null","","html-keyboard-response","91","148572","0.0-20.0","3H8DHMCCWAX7Q1P9EK2VNJO1145DKO","ADJ9I7ZBFYFH7","3DFYDSXB2WMWAZWJRSN67LWQ0PPJUT","","","null","","","","","","","",""
"801.7999999523163","","image-keyboard-response","92","149374","0.0-21.0","3H8DHMCCWAX7Q1P9EK2VNJO1145DKO","ADJ9I7ZBFYFH7","3DFYDSXB2WMWAZWJRSN67LWQ0PPJUT","","img/set1/S3.jpg","72","3","random","72","true","random,structured_normal,structured_incentive","1,2,2,3","",""
"null","","html-keyboard-response","93","149726","0.0-22.0","3H8DHMCCWAX7Q1P9EK2VNJO1145DKO","ADJ9I7ZBFYFH7","3DFYDSXB2WMWAZWJRSN67LWQ0PPJUT","","<img src=""img/set1/S3.jpg"" width=""540"" height = ""360"" style=""border:16px solid orange"">","null","","","","","","","",""
"null","","html-keyboard-response","94","149728","0.0-23.0","3H8DHMCCWAX7Q1P9EK2VNJO1145DKO","ADJ9I7ZBFYFH7","3DFYDSXB2WMWAZWJRSN67LWQ0PPJUT","","","null","","","","","","","",""
"841.8000000715256","","image-keyboard-response","95","150571","0.0-24.0","3H8DHMCCWAX7Q1P9EK2VNJO1145DKO","ADJ9I7ZBFYFH7","3DFYDSXB2WMWAZWJRSN67LWQ0PPJUT","","img/set1/S4.jpg","83","4","random","74","false","random,structured_normal,structured_incentive","1,2,2,3","",""
"null","","html-keyboard-response","96","150923","0.0-25.0","3H8DHMCCWAX7Q1P9EK2VNJO1145DKO","ADJ9I7ZBFYFH7","3DFYDSXB2WMWAZWJRSN67LWQ0PPJUT","","<img src=""img/set1/S4.jpg"" width=""540"" height = ""360"">","null","","","","","","","",""
"null","","html-keyboard-response","97","150925","0.0-26.0","3H8DHMCCWAX7Q1P9EK2VNJO1145DKO","ADJ9I7ZBFYFH7","3DFYDSXB2WMWAZWJRSN67LWQ0PPJUT","","","null","","","","","","","",""
"946.8000000715256","","image-keyboard-response","98","151873","0.0-27.0","3H8DHMCCWAX7Q1P9EK2VNJO1145DKO","ADJ9I7ZBFYFH7","3DFYDSXB2WMWAZWJRSN67LWQ0PPJUT","","img/set1/S3.jpg","72","3","random","72","true","random,structured_normal,structured_incentive","1,2,2,3","",""
"null","","html-keyboard-response","99","152225","0.0-28.0","3H8DHMCCWAX7Q1P9EK2VNJO1145DKO","ADJ9I7ZBFYFH7","3DFYDSXB2WMWAZWJRSN67LWQ0PPJUT","","<img src=""img/set1/S3.jpg"" width=""540"" height = ""360"" style=""border:16px solid orange"">","null","","","","","","","",""
"null","","html-keyboard-response","100","152226","0.0-29.0","3H8DHMCCWAX7Q1P9EK2VNJO1145DKO","ADJ9I7ZBFYFH7","3DFYDSXB2WMWAZWJRSN67LWQ0PPJUT","","","null","","","","","","","",""
"689.2000000476837","","image-keyboard-response","101","152917","0.0-30.0","3H8DHMCCWAX7Q1P9EK2VNJO1145DKO","ADJ9I7ZBFYFH7","3DFYDSXB2WMWAZWJRSN67LWQ0PPJUT","","img/set1/S3.jpg","72","3","random","72","true","random,structured_normal,structured_incentive","1,2,2,3","",""
"null","","html-keyboard-response","102","153269","0.0-31.0","3H8DHMCCWAX7Q1P9EK2VNJO1145DKO","ADJ9I7ZBFYFH7","3DFYDSXB2WMWAZWJRSN67LWQ0PPJUT","","<img src=""img/set1/S3.jpg"" width=""540"" height = ""360"" style=""border:16px solid orange"">","null","","","","","","","",""
"null","","html-keyboard-response","103","153271","0.0-32.0","3H8DHMCCWAX7Q1P9EK2VNJO1145DKO","ADJ9I7ZBFYFH7","3DFYDSXB2WMWAZWJRSN67LWQ0PPJUT","","","null","","","","","","","",""
"720.1999999284744","","image-keyboard-response","104","153992","0.0-33.0","3H8DHMCCWAX7Q1P9EK2VNJO1145DKO","ADJ9I7ZBFYFH7","3DFYDSXB2WMWAZWJRSN67LWQ0PPJUT","","img/set1/S2.jpg","68","2","random","68","true","random,structured_normal,structured_incentive","1,2,2,3","",""
"null","","html-keyboard-response","105","154343","0.0-34.0","3H8DHMCCWAX7Q1P9EK2VNJO1145DKO","ADJ9I7ZBFYFH7","3DFYDSXB2WMWAZWJRSN67LWQ0PPJUT","","<img src=""img/set1/S2.jpg"" width=""540"" height = ""360"" style=""border:16px solid orange"">","null","","","","","","","",""
"null","","html-keyboard-response","106","154345","0.0-35.0","3H8DHMCCWAX7Q1P9EK2VNJO1145DKO","ADJ9I7ZBFYFH7","3DFYDSXB2WMWAZWJRSN67LWQ0PPJUT","","","null","","","","","","","",""
"762.1999999284744","","image-keyboard-response","107","155108","0.0-36.0","3H8DHMCCWAX7Q1P9EK2VNJO1145DKO","ADJ9I7ZBFYFH7","3DFYDSXB2WMWAZWJRSN67LWQ0PPJUT","","img/set1/S4.jpg","83","4","random","74","false","random,structured_normal,structured_incentive","1,2,2,3","",""
"null","","html-keyboard-response","108","155460","0.0-37.0","3H8DHMCCWAX7Q1P9EK2VNJO1145DKO","ADJ9I7ZBFYFH7","3DFYDSXB2WMWAZWJRSN67LWQ0PPJUT","","<img src=""img/set1/S4.jpg"" width=""540"" height = ""360"">","null","","","","","","","",""
"null","","html-keyboard-response","109","155463","0.0-38.0","3H8DHMCCWAX7Q1P9EK2VNJO1145DKO","ADJ9I7ZBFYFH7","3DFYDSXB2WMWAZWJRSN67LWQ0PPJUT","","","null","","","","","","","",""
"850.4000000953674","","image-keyboard-response","110","156314","0.0-39.0","3H8DHMCCWAX7Q1P9EK2VNJO1145DKO","ADJ9I7ZBFYFH7","3DFYDSXB2WMWAZWJRSN67LWQ0PPJUT","","img/set1/S4.jpg","74","4","random","74","true","random,structured_normal,structured_incentive","1,2,2,3","",""
"null","","html-keyboard-response","111","156666","0.0-40.0","3H8DHMCCWAX7Q1P9EK2VNJO1145DKO","ADJ9I7ZBFYFH7","3DFYDSXB2WMWAZWJRSN67LWQ0PPJUT","","<img src=""img/set1/S4.jpg"" width=""540"" height = ""360"" style=""border:16px solid orange"">","null","","","","","","","",""
"null","","html-keyboard-response","112","156668","0.0-41.0","3H8DHMCCWAX7Q1P9EK2VNJO1145DKO","ADJ9I7ZBFYFH7","3DFYDSXB2WMWAZWJRSN67LWQ0PPJUT","","","null","","","","","","","",""
"959.0999999046326","","image-keyboard-response","113","157628","0.0-42.0","3H8DHMCCWAX7Q1P9EK2VNJO1145DKO","ADJ9I7ZBFYFH7","3DFYDSXB2WMWAZWJRSN67LWQ0PPJUT","","img/set1/S1.jpg","83","1","random","83","true","random,structured_normal,structured_incentive","1,2,2,3","",""
"null","","html-keyboard-response","114","157979","0.0-43.0","3H8DHMCCWAX7Q1P9EK2VNJO1145DKO","ADJ9I7ZBFYFH7","3DFYDSXB2WMWAZWJRSN67LWQ0PPJUT","","<img src=""img/set1/S1.jpg"" width=""540"" height = ""360"" style=""border:16px solid orange"">","null","","","","","","","",""
"null","","html-keyboard-response","115","157981","0.0-44.0","3H8DHMCCWAX7Q1P9EK2VNJO1145DKO","ADJ9I7ZBFYFH7","3DFYDSXB2WMWAZWJRSN67LWQ0PPJUT","","","null","","","","","","","",""
"1123.4000000953674","","image-keyboard-response","116","159106","0.0-45.0","3H8DHMCCWAX7Q1P9EK2VNJO1145DKO","ADJ9I7ZBFYFH7","3DFYDSXB2WMWAZWJRSN67LWQ0PPJUT","","img/set1/S2.jpg","68","2","random","68","true","random,structured_normal,structured_incentive","1,2,2,3","",""
"null","","html-keyboard-response","117","159457","0.0-46.0","3H8DHMCCWAX7Q1P9EK2VNJO1145DKO","ADJ9I7ZBFYFH7","3DFYDSXB2WMWAZWJRSN67LWQ0PPJUT","","<img src=""img/set1/S2.jpg"" width=""540"" height = ""360"" style=""border:16px solid orange"">","null","","","","","","","",""
"null","","html-keyboard-response","118","159459","0.0-47.0","3H8DHMCCWAX7Q1P9EK2VNJO1145DKO","ADJ9I7ZBFYFH7","3DFYDSXB2WMWAZWJRSN67LWQ0PPJUT","","","null","","","","","","","",""
"778.3000000715256","","image-keyboard-response","119","160239","0.0-48.0","3H8DHMCCWAX7Q1P9EK2VNJO1145DKO","ADJ9I7ZBFYFH7","3DFYDSXB2WMWAZWJRSN67LWQ0PPJUT","","img/set1/S3.jpg","72","3","random","72","true","random,structured_normal,structured_incentive","1,2,2,3","",""
"null","","html-keyboard-response","120","160590","0.0-49.0","3H8DHMCCWAX7Q1P9EK2VNJO1145DKO","ADJ9I7ZBFYFH7","3DFYDSXB2WMWAZWJRSN67LWQ0PPJUT","","<img src=""img/set1/S3.jpg"" width=""540"" height = ""360"" style=""border:16px solid orange"">","null","","","","","","","",""
"null","","html-keyboard-response","121","160593","0.0-50.0","3H8DHMCCWAX7Q1P9EK2VNJO1145DKO","ADJ9I7ZBFYFH7","3DFYDSXB2WMWAZWJRSN67LWQ0PPJUT","","","null","","","","","","","",""
"702.8999999761581","","image-keyboard-response","122","161296","0.0-51.0","3H8DHMCCWAX7Q1P9EK2VNJO1145DKO","ADJ9I7ZBFYFH7","3DFYDSXB2WMWAZWJRSN67LWQ0PPJUT","","img/set1/S1.jpg","74","1","random","83","false","random,structured_normal,structured_incentive","1,2,2,3","",""
"null","","html-keyboard-response","123","161648","0.0-52.0","3H8DHMCCWAX7Q1P9EK2VNJO1145DKO","ADJ9I7ZBFYFH7","3DFYDSXB2WMWAZWJRSN67LWQ0PPJUT","","<img src=""img/set1/S1.jpg"" width=""540"" height = ""360"">","null","","","","","","","",""
"null","","html-keyboard-response","124","161650","0.0-53.0","3H8DHMCCWAX7Q1P9EK2VNJO1145DKO","ADJ9I7ZBFYFH7","3DFYDSXB2WMWAZWJRSN67LWQ0PPJUT","","","null","","","","","","","",""
"1053.2999999523163","","image-keyboard-response","125","162704","0.0-54.0","3H8DHMCCWAX7Q1P9EK2VNJO1145DKO","ADJ9I7ZBFYFH7","3DFYDSXB2WMWAZWJRSN67LWQ0PPJUT","","img/set1/S2.jpg","68","2","random","68","true","random,structured_normal,structured_incentive","1,2,2,3","",""
"null","","html-keyboard-response","126","163056","0.0-55.0","3H8DHMCCWAX7Q1P9EK2VNJO1145DKO","ADJ9I7ZBFYFH7","3DFYDSXB2WMWAZWJRSN67LWQ0PPJUT","","<img src=""img/set1/S2.jpg"" width=""540"" height = ""360"" style=""border:16px solid orange"">","null","","","","","","","",""
"null","","html-keyboard-response","127","163058","0.0-56.0","3H8DHMCCWAX7Q1P9EK2VNJO1145DKO","ADJ9I7ZBFYFH7","3DFYDSXB2WMWAZWJRSN67LWQ0PPJUT","","","null","","","","","","","",""
"711.3999999761581","","image-keyboard-response","128","163770","0.0-57.0","3H8DHMCCWAX7Q1P9EK2VNJO1145DKO","ADJ9I7ZBFYFH7","3DFYDSXB2WMWAZWJRSN67LWQ0PPJUT","","img/set1/S1.jpg","83","1","random","83","true","random,structured_normal,structured_incentive","1,2,2,3","",""
"null","","html-keyboard-response","129","164122","0.0-58.0","3H8DHMCCWAX7Q1P9EK2VNJO1145DKO","ADJ9I7ZBFYFH7","3DFYDSXB2WMWAZWJRSN67LWQ0PPJUT","","<img src=""img/set1/S1.jpg"" width=""540"" height = ""360"" style=""border:16px solid orange"">","null","","","","","","","",""
"null","","html-keyboard-response","130","164124","0.0-59.0","3H8DHMCCWAX7Q1P9EK2VNJO1145DKO","ADJ9I7ZBFYFH7","3DFYDSXB2WMWAZWJRSN67LWQ0PPJUT","","","null","","","","","","","",""
"796","","image-keyboard-response","131","164921","0.0-60.0","3H8DHMCCWAX7Q1P9EK2VNJO1145DKO","ADJ9I7ZBFYFH7","3DFYDSXB2WMWAZWJRSN67LWQ0PPJUT","","img/set1/S3.jpg","72","3","random","72","true","random,structured_normal,structured_incentive","1,2,2,3","",""
"null","","html-keyboard-response","132","165272","0.0-61.0","3H8DHMCCWAX7Q1P9EK2VNJO1145DKO","ADJ9I7ZBFYFH7","3DFYDSXB2WMWAZWJRSN67LWQ0PPJUT","","<img src=""img/set1/S3.jpg"" width=""540"" height = ""360"" style=""border:16px solid orange"">","null","","","","","","","",""
"null","","html-keyboard-response","133","165274","0.0-62.0","3H8DHMCCWAX7Q1P9EK2VNJO1145DKO","ADJ9I7ZBFYFH7","3DFYDSXB2WMWAZWJRSN67LWQ0PPJUT","","","null","","","","","","","",""
"831.1000000238419","","image-keyboard-response","134","166106","0.0-63.0","3H8DHMCCWAX7Q1P9EK2VNJO1145DKO","ADJ9I7ZBFYFH7","3DFYDSXB2WMWAZWJRSN67LWQ0PPJUT","","img/set1/S2.jpg","68","2","random","68","true","random,structured_normal,structured_incentive","1,2,2,3","",""
"null","","html-keyboard-response","135","166458","0.0-64.0","3H8DHMCCWAX7Q1P9EK2VNJO1145DKO","ADJ9I7ZBFYFH7","3DFYDSXB2WMWAZWJRSN67LWQ0PPJUT","","<img src=""img/set1/S2.jpg"" width=""540"" height = ""360"" style=""border:16px solid orange"">","null","","","","","","","",""
"null","","html-keyboard-response","136","166460","0.0-65.0","3H8DHMCCWAX7Q1P9EK2VNJO1145DKO","ADJ9I7ZBFYFH7","3DFYDSXB2WMWAZWJRSN67LWQ0PPJUT","","","null","","","","","","","",""
"813.3999999761581","","image-keyboard-response","137","167274","0.0-66.0","3H8DHMCCWAX7Q1P9EK2VNJO1145DKO","ADJ9I7ZBFYFH7","3DFYDSXB2WMWAZWJRSN67LWQ0PPJUT","","img/set1/S1.jpg","83","1","random","83","true","random,structured_normal,structured_incentive","1,2,2,3","",""
"null","","html-keyboard-response","138","167626","0.0-67.0","3H8DHMCCWAX7Q1P9EK2VNJO1145DKO","ADJ9I7ZBFYFH7","3DFYDSXB2WMWAZWJRSN67LWQ0PPJUT","","<img src=""img/set1/S1.jpg"" width=""540"" height = ""360"" style=""border:16px solid orange"">","null","","","","","","","",""
"null","","html-keyboard-response","139","167629","0.0-68.0","3H8DHMCCWAX7Q1P9EK2VNJO1145DKO","ADJ9I7ZBFYFH7","3DFYDSXB2WMWAZWJRSN67LWQ0PPJUT","","","null","","","","","","","",""
"599.2999999523163","","image-keyboard-response","140","168229","0.0-69.0","3H8DHMCCWAX7Q1P9EK2VNJO1145DKO","ADJ9I7ZBFYFH7","3DFYDSXB2WMWAZWJRSN67LWQ0PPJUT","","img/set1/S1.jpg","83","1","random","83","true","random,structured_normal,structured_incentive","1,2,2,3","",""
"null","","html-keyboard-response","141","168580","0.0-70.0","3H8DHMCCWAX7Q1P9EK2VNJO1145DKO","ADJ9I7ZBFYFH7","3DFYDSXB2WMWAZWJRSN67LWQ0PPJUT","","<img src=""img/set1/S1.jpg"" width=""540"" height = ""360"" style=""border:16px solid orange"">","null","","","","","","","",""
"null","","html-keyboard-response","142","168582","0.0-71.0","3H8DHMCCWAX7Q1P9EK2VNJO1145DKO","ADJ9I7ZBFYFH7","3DFYDSXB2WMWAZWJRSN67LWQ0PPJUT","","","null","","","","","","","",""
"868.8000000715256","","image-keyboard-response","143","169452","0.0-72.0","3H8DHMCCWAX7Q1P9EK2VNJO1145DKO","ADJ9I7ZBFYFH7","3DFYDSXB2WMWAZWJRSN67LWQ0PPJUT","","img/set1/S4.jpg","74","4","random","74","true","random,structured_normal,structured_incentive","1,2,2,3","",""
"null","","html-keyboard-response","144","169804","0.0-73.0","3H8DHMCCWAX7Q1P9EK2VNJO1145DKO","ADJ9I7ZBFYFH7","3DFYDSXB2WMWAZWJRSN67LWQ0PPJUT","","<img src=""img/set1/S4.jpg"" width=""540"" height = ""360"" style=""border:16px solid orange"">","null","","","","","","","",""
"null","","html-keyboard-response","145","169806","0.0-74.0","3H8DHMCCWAX7Q1P9EK2VNJO1145DKO","ADJ9I7ZBFYFH7","3DFYDSXB2WMWAZWJRSN67LWQ0PPJUT","","","null","","","","","","","",""
"643.8000000715256","","image-keyboard-response","146","170451","0.0-75.0","3H8DHMCCWAX7Q1P9EK2VNJO1145DKO","ADJ9I7ZBFYFH7","3DFYDSXB2WMWAZWJRSN67LWQ0PPJUT","","img/set1/S3.jpg","72","3","random","72","true","random,structured_normal,structured_incentive","1,2,2,3","",""
"null","","html-keyboard-response","147","170802","0.0-76.0","3H8DHMCCWAX7Q1P9EK2VNJO1145DKO","ADJ9I7ZBFYFH7","3DFYDSXB2WMWAZWJRSN67LWQ0PPJUT","","<img src=""img/set1/S3.jpg"" width=""540"" height = ""360"" style=""border:16px solid orange"">","null","","","","","","","",""
"null","","html-keyboard-response","148","170804","0.0-77.0","3H8DHMCCWAX7Q1P9EK2VNJO1145DKO","ADJ9I7ZBFYFH7","3DFYDSXB2WMWAZWJRSN67LWQ0PPJUT","","","null","","","","","","","",""
"506.5","","image-keyboard-response","149","171311","0.0-78.0","3H8DHMCCWAX7Q1P9EK2VNJO1145DKO","ADJ9I7ZBFYFH7","3DFYDSXB2WMWAZWJRSN67LWQ0PPJUT","","img/set1/S4.jpg","74","4","random","74","true","random,structured_normal,structured_incentive","1,2,2,3","",""
"null","","html-keyboard-response","150","171663","0.0-79.0","3H8DHMCCWAX7Q1P9EK2VNJO1145DKO","ADJ9I7ZBFYFH7","3DFYDSXB2WMWAZWJRSN67LWQ0PPJUT","","<img src=""img/set1/S4.jpg"" width=""540"" height = ""360"" style=""border:16px solid orange"">","null","","","","","","","",""
"null","","html-keyboard-response","151","171665","0.0-80.0","3H8DHMCCWAX7Q1P9EK2VNJO1145DKO","ADJ9I7ZBFYFH7","3DFYDSXB2WMWAZWJRSN67LWQ0PPJUT","","","null","","","","","","","",""
"838.6999999284744","","image-keyboard-response","152","172505","0.0-81.0","3H8DHMCCWAX7Q1P9EK2VNJO1145DKO","ADJ9I7ZBFYFH7","3DFYDSXB2WMWAZWJRSN67LWQ0PPJUT","","img/set1/S2.jpg","68","2","random","68","true","random,structured_normal,structured_incentive","1,2,2,3","",""
"null","","html-keyboard-response","153","172856","0.0-82.0","3H8DHMCCWAX7Q1P9EK2VNJO1145DKO","ADJ9I7ZBFYFH7","3DFYDSXB2WMWAZWJRSN67LWQ0PPJUT","","<img src=""img/set1/S2.jpg"" width=""540"" height = ""360"" style=""border:16px solid orange"">","null","","","","","","","",""
"null","","html-keyboard-response","154","172858","0.0-83.0","3H8DHMCCWAX7Q1P9EK2VNJO1145DKO","ADJ9I7ZBFYFH7","3DFYDSXB2WMWAZWJRSN67LWQ0PPJUT","","","null","","","","","","","",""
"795.5999999046326","","image-keyboard-response","155","173655","0.0-84.0","3H8DHMCCWAX7Q1P9EK2VNJO1145DKO","ADJ9I7ZBFYFH7","3DFYDSXB2WMWAZWJRSN67LWQ0PPJUT","","img/set1/S3.jpg","72","3","random","72","true","random,structured_normal,structured_incentive","1,2,2,3","",""
"null","","html-keyboard-response","156","174007","0.0-85.0","3H8DHMCCWAX7Q1P9EK2VNJO1145DKO","ADJ9I7ZBFYFH7","3DFYDSXB2WMWAZWJRSN67LWQ0PPJUT","","<img src=""img/set1/S3.jpg"" width=""540"" height = ""360"" style=""border:16px solid orange"">","null","","","","","","","",""
"null","","html-keyboard-response","157","174010","0.0-86.0","3H8DHMCCWAX7Q1P9EK2VNJO1145DKO","ADJ9I7ZBFYFH7","3DFYDSXB2WMWAZWJRSN67LWQ0PPJUT","","","null","","","","","","","",""
"582.2999999523163","","image-keyboard-response","158","174593","0.0-87.0","3H8DHMCCWAX7Q1P9EK2VNJO1145DKO","ADJ9I7ZBFYFH7","3DFYDSXB2WMWAZWJRSN67LWQ0PPJUT","","img/set1/S3.jpg","72","3","random","72","true","random,structured_normal,structured_incentive","1,2,2,3","",""
"null","","html-keyboard-response","159","174944","0.0-88.0","3H8DHMCCWAX7Q1P9EK2VNJO1145DKO","ADJ9I7ZBFYFH7","3DFYDSXB2WMWAZWJRSN67LWQ0PPJUT","","<img src=""img/set1/S3.jpg"" width=""540"" height = ""360"" style=""border:16px solid orange"">","null","","","","","","","",""
"null","","html-keyboard-response","160","174947","0.0-89.0","3H8DHMCCWAX7Q1P9EK2VNJO1145DKO","ADJ9I7ZBFYFH7","3DFYDSXB2WMWAZWJRSN67LWQ0PPJUT","","","null","","","","","","","",""
"996.5","","image-keyboard-response","161","175944","0.0-90.0","3H8DHMCCWAX7Q1P9EK2VNJO1145DKO","ADJ9I7ZBFYFH7","3DFYDSXB2WMWAZWJRSN67LWQ0PPJUT","","img/set1/S4.jpg","74","4","random","74","true","random,structured_normal,structured_incentive","1,2,2,3","",""
"null","","html-keyboard-response","162","176295","0.0-91.0","3H8DHMCCWAX7Q1P9EK2VNJO1145DKO","ADJ9I7ZBFYFH7","3DFYDSXB2WMWAZWJRSN67LWQ0PPJUT","","<img src=""img/set1/S4.jpg"" width=""540"" height = ""360"" style=""border:16px solid orange"">","null","","","","","","","",""
"null","","html-keyboard-response","163","176297","0.0-92.0","3H8DHMCCWAX7Q1P9EK2VNJO1145DKO","ADJ9I7ZBFYFH7","3DFYDSXB2WMWAZWJRSN67LWQ0PPJUT","","","null","","","","","","","",""
"545.7000000476837","","image-keyboard-response","164","176844","0.0-93.0","3H8DHMCCWAX7Q1P9EK2VNJO1145DKO","ADJ9I7ZBFYFH7","3DFYDSXB2WMWAZWJRSN67LWQ0PPJUT","","img/set1/S4.jpg","74","4","random","74","true","random,structured_normal,structured_incentive","1,2,2,3","",""
"null","","html-keyboard-response","165","177195","0.0-94.0","3H8DHMCCWAX7Q1P9EK2VNJO1145DKO","ADJ9I7ZBFYFH7","3DFYDSXB2WMWAZWJRSN67LWQ0PPJUT","","<img src=""img/set1/S4.jpg"" width=""540"" height = ""360"" style=""border:16px solid orange"">","null","","","","","","","",""
"null","","html-keyboard-response","166","177198","0.0-95.0","3H8DHMCCWAX7Q1P9EK2VNJO1145DKO","ADJ9I7ZBFYFH7","3DFYDSXB2WMWAZWJRSN67LWQ0PPJUT","","","null","","","","","","","",""
"941.5","","image-keyboard-response","167","178140","0.0-96.0","3H8DHMCCWAX7Q1P9EK2VNJO1145DKO","ADJ9I7ZBFYFH7","3DFYDSXB2WMWAZWJRSN67LWQ0PPJUT","","img/set1/S1.jpg","83","1","random","83","true","random,structured_normal,structured_incentive","1,2,2,3","",""
"null","","html-keyboard-response","168","178491","0.0-97.0","3H8DHMCCWAX7Q1P9EK2VNJO1145DKO","ADJ9I7ZBFYFH7","3DFYDSXB2WMWAZWJRSN67LWQ0PPJUT","","<img src=""img/set1/S1.jpg"" width=""540"" height = ""360"" style=""border:16px solid orange"">","null","","","","","","","",""
"null","","html-keyboard-response","169","178493","0.0-98.0","3H8DHMCCWAX7Q1P9EK2VNJO1145DKO","ADJ9I7ZBFYFH7","3DFYDSXB2WMWAZWJRSN67LWQ0PPJUT","","","null","","","","","","","",""
"712.7999999523163","","image-keyboard-response","170","179207","0.0-99.0","3H8DHMCCWAX7Q1P9EK2VNJO1145DKO","ADJ9I7ZBFYFH7","3DFYDSXB2WMWAZWJRSN67LWQ0PPJUT","","img/set1/S4.jpg","74","4","random","74","true","random,structured_normal,structured_incentive","1,2,2,3","",""
"null","","html-keyboard-response","171","179559","0.0-100.0","3H8DHMCCWAX7Q1P9EK2VNJO1145DKO","ADJ9I7ZBFYFH7","3DFYDSXB2WMWAZWJRSN67LWQ0PPJUT","","<img src=""img/set1/S4.jpg"" width=""540"" height = ""360"" style=""border:16px solid orange"">","null","","","","","","","",""
"null","","html-keyboard-response","172","179561","0.0-101.0","3H8DHMCCWAX7Q1P9EK2VNJO1145DKO","ADJ9I7ZBFYFH7","3DFYDSXB2WMWAZWJRSN67LWQ0PPJUT","","","null","","","","","","","",""
"598.7999999523163","","image-keyboard-response","173","180160","0.0-102.0","3H8DHMCCWAX7Q1P9EK2VNJO1145DKO","ADJ9I7ZBFYFH7","3DFYDSXB2WMWAZWJRSN67LWQ0PPJUT","","img/set1/S4.jpg","74","4","random","74","true","random,structured_normal,structured_incentive","1,2,2,3","",""
"null","","html-keyboard-response","174","180512","0.0-103.0","3H8DHMCCWAX7Q1P9EK2VNJO1145DKO","ADJ9I7ZBFYFH7","3DFYDSXB2WMWAZWJRSN67LWQ0PPJUT","","<img src=""img/set1/S4.jpg"" width=""540"" height = ""360"" style=""border:16px solid orange"">","null","","","","","","","",""
"null","","html-keyboard-response","175","180514","0.0-104.0","3H8DHMCCWAX7Q1P9EK2VNJO1145DKO","ADJ9I7ZBFYFH7","3DFYDSXB2WMWAZWJRSN67LWQ0PPJUT","","","null","","","","","","","",""
"977.7000000476837","","image-keyboard-response","176","181492","0.0-105.0","3H8DHMCCWAX7Q1P9EK2VNJO1145DKO","ADJ9I7ZBFYFH7","3DFYDSXB2WMWAZWJRSN67LWQ0PPJUT","","img/set1/S3.jpg","72","3","random","72","true","random,structured_normal,structured_incentive","1,2,2,3","",""
"null","","html-keyboard-response","177","181844","0.0-106.0","3H8DHMCCWAX7Q1P9EK2VNJO1145DKO","ADJ9I7ZBFYFH7","3DFYDSXB2WMWAZWJRSN67LWQ0PPJUT","","<img src=""img/set1/S3.jpg"" width=""540"" height = ""360"" style=""border:16px solid orange"">","null","","","","","","","",""
"null","","html-keyboard-response","178","181846","0.0-107.0","3H8DHMCCWAX7Q1P9EK2VNJO1145DKO","ADJ9I7ZBFYFH7","3DFYDSXB2WMWAZWJRSN67LWQ0PPJUT","","","null","","","","","","","",""
"651.1000000238419","","image-keyboard-response","179","182498","0.0-108.0","3H8DHMCCWAX7Q1P9EK2VNJO1145DKO","ADJ9I7ZBFYFH7","3DFYDSXB2WMWAZWJRSN67LWQ0PPJUT","","img/set1/S2.jpg","68","2","random","68","true","random,structured_normal,structured_incentive","1,2,2,3","",""
"null","","html-keyboard-response","180","182850","0.0-109.0","3H8DHMCCWAX7Q1P9EK2VNJO1145DKO","ADJ9I7ZBFYFH7","3DFYDSXB2WMWAZWJRSN67LWQ0PPJUT","","<img src=""img/set1/S2.jpg"" width=""540"" height = ""360"" style=""border:16px solid orange"">","null","","","","","","","",""
"null","","html-keyboard-response","181","182852","0.0-110.0","3H8DHMCCWAX7Q1P9EK2VNJO1145DKO","ADJ9I7ZBFYFH7","3DFYDSXB2WMWAZWJRSN67LWQ0PPJUT","","","null","","","","","","","",""
"721","","image-keyboard-response","182","183574","0.0-111.0","3H8DHMCCWAX7Q1P9EK2VNJO1145DKO","ADJ9I7ZBFYFH7","3DFYDSXB2WMWAZWJRSN67LWQ0PPJUT","","img/set1/S3.jpg","72","3","random","72","true","random,structured_normal,structured_incentive","1,2,2,3","",""
"null","","html-keyboard-response","183","183926","0.0-112.0","3H8DHMCCWAX7Q1P9EK2VNJO1145DKO","ADJ9I7ZBFYFH7","3DFYDSXB2WMWAZWJRSN67LWQ0PPJUT","","<img src=""img/set1/S3.jpg"" width=""540"" height = ""360"" style=""border:16px solid orange"">","null","","","","","","","",""
"null","","html-keyboard-response","184","183928","0.0-113.0","3H8DHMCCWAX7Q1P9EK2VNJO1145DKO","ADJ9I7ZBFYFH7","3DFYDSXB2WMWAZWJRSN67LWQ0PPJUT","","","null","","","","","","","",""
"692.3000000715256","","image-keyboard-response","185","184622","0.0-114.0","3H8DHMCCWAX7Q1P9EK2VNJO1145DKO","ADJ9I7ZBFYFH7","3DFYDSXB2WMWAZWJRSN67LWQ0PPJUT","","img/set1/S1.jpg","83","1","random","83","true","random,structured_normal,structured_incentive","1,2,2,3","",""
"null","","html-keyboard-response","186","184973","0.0-115.0","3H8DHMCCWAX7Q1P9EK2VNJO1145DKO","ADJ9I7ZBFYFH7","3DFYDSXB2WMWAZWJRSN67LWQ0PPJUT","","<img src=""img/set1/S1.jpg"" width=""540"" height = ""360"" style=""border:16px solid orange"">","null","","","","","","","",""
"null","","html-keyboard-response","187","184975","0.0-116.0","3H8DHMCCWAX7Q1P9EK2VNJO1145DKO","ADJ9I7ZBFYFH7","3DFYDSXB2WMWAZWJRSN67LWQ0PPJUT","","","null","","","","","","","",""
"662.5","","image-keyboard-response","188","185639","0.0-117.0","3H8DHMCCWAX7Q1P9EK2VNJO1145DKO","ADJ9I7ZBFYFH7","3DFYDSXB2WMWAZWJRSN67LWQ0PPJUT","","img/set1/S4.jpg","74","4","random","74","true","random,structured_normal,structured_incentive","1,2,2,3","",""
"null","","html-keyboard-response","189","185990","0.0-118.0","3H8DHMCCWAX7Q1P9EK2VNJO1145DKO","ADJ9I7ZBFYFH7","3DFYDSXB2WMWAZWJRSN67LWQ0PPJUT","","<img src=""img/set1/S4.jpg"" width=""540"" height = ""360"" style=""border:16px solid orange"">","null","","","","","","","",""
"null","","html-keyboard-response","190","185992","0.0-119.0","3H8DHMCCWAX7Q1P9EK2VNJO1145DKO","ADJ9I7ZBFYFH7","3DFYDSXB2WMWAZWJRSN67LWQ0PPJUT","","","null","","","","","","","",""
"767.5","","image-keyboard-response","191","186760","0.0-120.0","3H8DHMCCWAX7Q1P9EK2VNJO1145DKO","ADJ9I7ZBFYFH7","3DFYDSXB2WMWAZWJRSN67LWQ0PPJUT","","img/set1/S2.jpg","68","2","random","68","true","random,structured_normal,structured_incentive","1,2,2,3","",""
"null","","html-keyboard-response","192","187112","0.0-121.0","3H8DHMCCWAX7Q1P9EK2VNJO1145DKO","ADJ9I7ZBFYFH7","3DFYDSXB2WMWAZWJRSN67LWQ0PPJUT","","<img src=""img/set1/S2.jpg"" width=""540"" height = ""360"" style=""border:16px solid orange"">","null","","","","","","","",""
"null","","html-keyboard-response","193","187114","0.0-122.0","3H8DHMCCWAX7Q1P9EK2VNJO1145DKO","ADJ9I7ZBFYFH7","3DFYDSXB2WMWAZWJRSN67LWQ0PPJUT","","","null","","","","","","","",""
"740.8000000715256","","image-keyboard-response","194","187856","0.0-123.0","3H8DHMCCWAX7Q1P9EK2VNJO1145DKO","ADJ9I7ZBFYFH7","3DFYDSXB2WMWAZWJRSN67LWQ0PPJUT","","img/set1/S3.jpg","72","3","random","72","true","random,structured_normal,structured_incentive","1,2,2,3","",""
"null","","html-keyboard-response","195","188207","0.0-124.0","3H8DHMCCWAX7Q1P9EK2VNJO1145DKO","ADJ9I7ZBFYFH7","3DFYDSXB2WMWAZWJRSN67LWQ0PPJUT","","<img src=""img/set1/S3.jpg"" width=""540"" height = ""360"" style=""border:16px solid orange"">","null","","","","","","","",""
"null","","html-keyboard-response","196","188209","0.0-125.0","3H8DHMCCWAX7Q1P9EK2VNJO1145DKO","ADJ9I7ZBFYFH7","3DFYDSXB2WMWAZWJRSN67LWQ0PPJUT","","","null","","","","","","","",""
"510","","image-keyboard-response","197","188720","0.0-126.0","3H8DHMCCWAX7Q1P9EK2VNJO1145DKO","ADJ9I7ZBFYFH7","3DFYDSXB2WMWAZWJRSN67LWQ0PPJUT","","img/set1/S3.jpg","72","3","random","72","true","random,structured_normal,structured_incentive","1,2,2,3","",""
"null","","html-keyboard-response","198","189072","0.0-127.0","3H8DHMCCWAX7Q1P9EK2VNJO1145DKO","ADJ9I7ZBFYFH7","3DFYDSXB2WMWAZWJRSN67LWQ0PPJUT","","<img src=""img/set1/S3.jpg"" width=""540"" height = ""360"" style=""border:16px solid orange"">","null","","","","","","","",""
"null","","html-keyboard-response","199","189075","0.0-128.0","3H8DHMCCWAX7Q1P9EK2VNJO1145DKO","ADJ9I7ZBFYFH7","3DFYDSXB2WMWAZWJRSN67LWQ0PPJUT","","","null","","","","","","","",""
"677.5","","image-keyboard-response","200","189753","0.0-129.0","3H8DHMCCWAX7Q1P9EK2VNJO1145DKO","ADJ9I7ZBFYFH7","3DFYDSXB2WMWAZWJRSN67LWQ0PPJUT","","img/set1/S1.jpg","83","1","random","83","true","random,structured_normal,structured_incentive","1,2,2,3","",""
"null","","html-keyboard-response","201","190104","0.0-130.0","3H8DHMCCWAX7Q1P9EK2VNJO1145DKO","ADJ9I7ZBFYFH7","3DFYDSXB2WMWAZWJRSN67LWQ0PPJUT","","<img src=""img/set1/S1.jpg"" width=""540"" height = ""360"" style=""border:16px solid orange"">","null","","","","","","","",""
"null","","html-keyboard-response","202","190107","0.0-131.0","3H8DHMCCWAX7Q1P9EK2VNJO1145DKO","ADJ9I7ZBFYFH7","3DFYDSXB2WMWAZWJRSN67LWQ0PPJUT","","","null","","","","","","","",""
"712","","image-keyboard-response","203","190820","0.0-132.0","3H8DHMCCWAX7Q1P9EK2VNJO1145DKO","ADJ9I7ZBFYFH7","3DFYDSXB2WMWAZWJRSN67LWQ0PPJUT","","img/set1/S2.jpg","68","2","random","68","true","random,structured_normal,structured_incentive","1,2,2,3","",""
"null","","html-keyboard-response","204","191171","0.0-133.0","3H8DHMCCWAX7Q1P9EK2VNJO1145DKO","ADJ9I7ZBFYFH7","3DFYDSXB2WMWAZWJRSN67LWQ0PPJUT","","<img src=""img/set1/S2.jpg"" width=""540"" height = ""360"" style=""border:16px solid orange"">","null","","","","","","","",""
"null","","html-keyboard-response","205","191173","0.0-134.0","3H8DHMCCWAX7Q1P9EK2VNJO1145DKO","ADJ9I7ZBFYFH7","3DFYDSXB2WMWAZWJRSN67LWQ0PPJUT","","","null","","","","","","","",""
"664.9000000953674","","image-keyboard-response","206","191839","0.0-135.0","3H8DHMCCWAX7Q1P9EK2VNJO1145DKO","ADJ9I7ZBFYFH7","3DFYDSXB2WMWAZWJRSN67LWQ0PPJUT","","img/set1/S3.jpg","72","3","random","72","true","random,structured_normal,structured_incentive","1,2,2,3","",""
"null","","html-keyboard-response","207","192190","0.0-136.0","3H8DHMCCWAX7Q1P9EK2VNJO1145DKO","ADJ9I7ZBFYFH7","3DFYDSXB2WMWAZWJRSN67LWQ0PPJUT","","<img src=""img/set1/S3.jpg"" width=""540"" height = ""360"" style=""border:16px solid orange"">","null","","","","","","","",""
"null","","html-keyboard-response","208","192192","0.0-137.0","3H8DHMCCWAX7Q1P9EK2VNJO1145DKO","ADJ9I7ZBFYFH7","3DFYDSXB2WMWAZWJRSN67LWQ0PPJUT","","","null","","","","","","","",""
"928.5","","image-keyboard-response","209","193121","0.0-138.0","3H8DHMCCWAX7Q1P9EK2VNJO1145DKO","ADJ9I7ZBFYFH7","3DFYDSXB2WMWAZWJRSN67LWQ0PPJUT","","img/set1/S2.jpg","68","2","random","68","true","random,structured_normal,structured_incentive","1,2,2,3","",""
"null","","html-keyboard-response","210","193473","0.0-139.0","3H8DHMCCWAX7Q1P9EK2VNJO1145DKO","ADJ9I7ZBFYFH7","3DFYDSXB2WMWAZWJRSN67LWQ0PPJUT","","<img src=""img/set1/S2.jpg"" width=""540"" height = ""360"" style=""border:16px solid orange"">","null","","","","","","","",""
"null","","html-keyboard-response","211","193475","0.0-140.0","3H8DHMCCWAX7Q1P9EK2VNJO1145DKO","ADJ9I7ZBFYFH7","3DFYDSXB2WMWAZWJRSN67LWQ0PPJUT","","","null","","","","","","","",""
"942.3999999761581","","image-keyboard-response","212","194418","0.0-141.0","3H8DHMCCWAX7Q1P9EK2VNJO1145DKO","ADJ9I7ZBFYFH7","3DFYDSXB2WMWAZWJRSN67LWQ0PPJUT","","img/set1/S1.jpg","83","1","random","83","true","random,structured_normal,structured_incentive","1,2,2,3","",""
"null","","html-keyboard-response","213","194770","0.0-142.0","3H8DHMCCWAX7Q1P9EK2VNJO1145DKO","ADJ9I7ZBFYFH7","3DFYDSXB2WMWAZWJRSN67LWQ0PPJUT","","<img src=""img/set1/S1.jpg"" width=""540"" height = ""360"" style=""border:16px solid orange"">","null","","","","","","","",""
"null","","html-keyboard-response","214","194772","0.0-143.0","3H8DHMCCWAX7Q1P9EK2VNJO1145DKO","ADJ9I7ZBFYFH7","3DFYDSXB2WMWAZWJRSN67LWQ0PPJUT","","","null","","","","","","","",""
"493.60000002384186","","image-keyboard-response","215","195266","0.0-144.0","3H8DHMCCWAX7Q1P9EK2VNJO1145DKO","ADJ9I7ZBFYFH7","3DFYDSXB2WMWAZWJRSN67LWQ0PPJUT","","img/set1/S1.jpg","83","1","random","83","true","random,structured_normal,structured_incentive","1,2,2,3","",""
"null","","html-keyboard-response","216","195618","0.0-145.0","3H8DHMCCWAX7Q1P9EK2VNJO1145DKO","ADJ9I7ZBFYFH7","3DFYDSXB2WMWAZWJRSN67LWQ0PPJUT","","<img src=""img/set1/S1.jpg"" width=""540"" height = ""360"" style=""border:16px solid orange"">","null","","","","","","","",""
"null","","html-keyboard-response","217","195620","0.0-146.0","3H8DHMCCWAX7Q1P9EK2VNJO1145DKO","ADJ9I7ZBFYFH7","3DFYDSXB2WMWAZWJRSN67LWQ0PPJUT","","","null","","","","","","","",""
"600.7000000476837","","image-keyboard-response","218","196221","0.0-147.0","3H8DHMCCWAX7Q1P9EK2VNJO1145DKO","ADJ9I7ZBFYFH7","3DFYDSXB2WMWAZWJRSN67LWQ0PPJUT","","img/set1/S3.jpg","72","3","random","72","true","random,structured_normal,structured_incentive","1,2,2,3","",""
"null","","html-keyboard-response","219","196572","0.0-148.0","3H8DHMCCWAX7Q1P9EK2VNJO1145DKO","ADJ9I7ZBFYFH7","3DFYDSXB2WMWAZWJRSN67LWQ0PPJUT","","<img src=""img/set1/S3.jpg"" width=""540"" height = ""360"" style=""border:16px solid orange"">","null","","","","","","","",""
"null","","html-keyboard-response","220","196575","0.0-149.0","3H8DHMCCWAX7Q1P9EK2VNJO1145DKO","ADJ9I7ZBFYFH7","3DFYDSXB2WMWAZWJRSN67LWQ0PPJUT","","","null","","","","","","","",""
"698.9000000953674","","image-keyboard-response","221","197275","0.0-150.0","3H8DHMCCWAX7Q1P9EK2VNJO1145DKO","ADJ9I7ZBFYFH7","3DFYDSXB2WMWAZWJRSN67LWQ0PPJUT","","img/set1/S2.jpg","68","2","random","68","true","random,structured_normal,structured_incentive","1,2,2,3","",""
"null","","html-keyboard-response","222","197627","0.0-151.0","3H8DHMCCWAX7Q1P9EK2VNJO1145DKO","ADJ9I7ZBFYFH7","3DFYDSXB2WMWAZWJRSN67LWQ0PPJUT","","<img src=""img/set1/S2.jpg"" width=""540"" height = ""360"" style=""border:16px solid orange"">","null","","","","","","","",""
"null","","html-keyboard-response","223","197629","0.0-152.0","3H8DHMCCWAX7Q1P9EK2VNJO1145DKO","ADJ9I7ZBFYFH7","3DFYDSXB2WMWAZWJRSN67LWQ0PPJUT","","","null","","","","","","","",""
"689.3000000715256","","image-keyboard-response","224","198319","0.0-153.0","3H8DHMCCWAX7Q1P9EK2VNJO1145DKO","ADJ9I7ZBFYFH7","3DFYDSXB2WMWAZWJRSN67LWQ0PPJUT","","img/set1/S3.jpg","72","3","random","72","true","random,structured_normal,structured_incentive","1,2,2,3","",""
"null","","html-keyboard-response","225","198670","0.0-154.0","3H8DHMCCWAX7Q1P9EK2VNJO1145DKO","ADJ9I7ZBFYFH7","3DFYDSXB2WMWAZWJRSN67LWQ0PPJUT","","<img src=""img/set1/S3.jpg"" width=""540"" height = ""360"" style=""border:16px solid orange"">","null","","","","","","","",""
"null","","html-keyboard-response","226","198672","0.0-155.0","3H8DHMCCWAX7Q1P9EK2VNJO1145DKO","ADJ9I7ZBFYFH7","3DFYDSXB2WMWAZWJRSN67LWQ0PPJUT","","","null","","","","","","","",""
"540.8999999761581","","image-keyboard-response","227","199214","0.0-156.0","3H8DHMCCWAX7Q1P9EK2VNJO1145DKO","ADJ9I7ZBFYFH7","3DFYDSXB2WMWAZWJRSN67LWQ0PPJUT","","img/set1/S3.jpg","72","3","random","72","true","random,structured_normal,structured_incentive","1,2,2,3","",""
"null","","html-keyboard-response","228","199565","0.0-157.0","3H8DHMCCWAX7Q1P9EK2VNJO1145DKO","ADJ9I7ZBFYFH7","3DFYDSXB2WMWAZWJRSN67LWQ0PPJUT","","<img src=""img/set1/S3.jpg"" width=""540"" height = ""360"" style=""border:16px solid orange"">","null","","","","","","","",""
"null","","html-keyboard-response","229","199567","0.0-158.0","3H8DHMCCWAX7Q1P9EK2VNJO1145DKO","ADJ9I7ZBFYFH7","3DFYDSXB2WMWAZWJRSN67LWQ0PPJUT","","","null","","","","","","","",""
"681.7000000476837","","image-keyboard-response","230","200250","0.0-159.0","3H8DHMCCWAX7Q1P9EK2VNJO1145DKO","ADJ9I7ZBFYFH7","3DFYDSXB2WMWAZWJRSN67LWQ0PPJUT","","img/set1/S1.jpg","83","1","random","83","true","random,structured_normal,structured_incentive","1,2,2,3","",""
"null","","html-keyboard-response","231","200602","0.0-160.0","3H8DHMCCWAX7Q1P9EK2VNJO1145DKO","ADJ9I7ZBFYFH7","3DFYDSXB2WMWAZWJRSN67LWQ0PPJUT","","<img src=""img/set1/S1.jpg"" width=""540"" height = ""360"" style=""border:16px solid orange"">","null","","","","","","","",""
"null","","html-keyboard-response","232","200604","0.0-161.0","3H8DHMCCWAX7Q1P9EK2VNJO1145DKO","ADJ9I7ZBFYFH7","3DFYDSXB2WMWAZWJRSN67LWQ0PPJUT","","","null","","","","","","","",""
"650.5","","image-keyboard-response","233","201255","0.0-162.0","3H8DHMCCWAX7Q1P9EK2VNJO1145DKO","ADJ9I7ZBFYFH7","3DFYDSXB2WMWAZWJRSN67LWQ0PPJUT","","img/set1/S4.jpg","74","4","random","74","true","random,structured_normal,structured_incentive","1,2,2,3","",""
"null","","html-keyboard-response","234","201607","0.0-163.0","3H8DHMCCWAX7Q1P9EK2VNJO1145DKO","ADJ9I7ZBFYFH7","3DFYDSXB2WMWAZWJRSN67LWQ0PPJUT","","<img src=""img/set1/S4.jpg"" width=""540"" height = ""360"" style=""border:16px solid orange"">","null","","","","","","","",""
"null","","html-keyboard-response","235","201609","0.0-164.0","3H8DHMCCWAX7Q1P9EK2VNJO1145DKO","ADJ9I7ZBFYFH7","3DFYDSXB2WMWAZWJRSN67LWQ0PPJUT","","","null","","","","","","","",""
"662.7999999523163","","image-keyboard-response","236","202273","0.0-165.0","3H8DHMCCWAX7Q1P9EK2VNJO1145DKO","ADJ9I7ZBFYFH7","3DFYDSXB2WMWAZWJRSN67LWQ0PPJUT","","img/set1/S2.jpg","68","2","random","68","true","random,structured_normal,structured_incentive","1,2,2,3","",""
"null","","html-keyboard-response","237","202625","0.0-166.0","3H8DHMCCWAX7Q1P9EK2VNJO1145DKO","ADJ9I7ZBFYFH7","3DFYDSXB2WMWAZWJRSN67LWQ0PPJUT","","<img src=""img/set1/S2.jpg"" width=""540"" height = ""360"" style=""border:16px solid orange"">","null","","","","","","","",""
"null","","html-keyboard-response","238","202626","0.0-167.0","3H8DHMCCWAX7Q1P9EK2VNJO1145DKO","ADJ9I7ZBFYFH7","3DFYDSXB2WMWAZWJRSN67LWQ0PPJUT","","","null","","","","","","","",""
"711.9000000953674","","image-keyboard-response","239","203339","0.0-168.0","3H8DHMCCWAX7Q1P9EK2VNJO1145DKO","ADJ9I7ZBFYFH7","3DFYDSXB2WMWAZWJRSN67LWQ0PPJUT","","img/set1/S1.jpg","83","1","random","83","true","random,structured_normal,structured_incentive","1,2,2,3","",""
"null","","html-keyboard-response","240","203691","0.0-169.0","3H8DHMCCWAX7Q1P9EK2VNJO1145DKO","ADJ9I7ZBFYFH7","3DFYDSXB2WMWAZWJRSN67LWQ0PPJUT","","<img src=""img/set1/S1.jpg"" width=""540"" height = ""360"" style=""border:16px solid orange"">","null","","","","","","","",""
"null","","html-keyboard-response","241","203693","0.0-170.0","3H8DHMCCWAX7Q1P9EK2VNJO1145DKO","ADJ9I7ZBFYFH7","3DFYDSXB2WMWAZWJRSN67LWQ0PPJUT","","","null","","","","","","","",""
"645.3999999761581","","image-keyboard-response","242","204339","0.0-171.0","3H8DHMCCWAX7Q1P9EK2VNJO1145DKO","ADJ9I7ZBFYFH7","3DFYDSXB2WMWAZWJRSN67LWQ0PPJUT","","img/set1/S2.jpg","68","2","random","68","true","random,structured_normal,structured_incentive","1,2,2,3","",""
"null","","html-keyboard-response","243","204691","0.0-172.0","3H8DHMCCWAX7Q1P9EK2VNJO1145DKO","ADJ9I7ZBFYFH7","3DFYDSXB2WMWAZWJRSN67LWQ0PPJUT","","<img src=""img/set1/S2.jpg"" width=""540"" height = ""360"" style=""border:16px solid orange"">","null","","","","","","","",""
"null","","html-keyboard-response","244","204693","0.0-173.0","3H8DHMCCWAX7Q1P9EK2VNJO1145DKO","ADJ9I7ZBFYFH7","3DFYDSXB2WMWAZWJRSN67LWQ0PPJUT","","","null","","","","","","","",""
"680.6000000238419","","image-keyboard-response","245","205374","0.0-174.0","3H8DHMCCWAX7Q1P9EK2VNJO1145DKO","ADJ9I7ZBFYFH7","3DFYDSXB2WMWAZWJRSN67LWQ0PPJUT","","img/set1/S3.jpg","72","3","random","72","true","random,structured_normal,structured_incentive","1,2,2,3","",""
"null","","html-keyboard-response","246","205726","0.0-175.0","3H8DHMCCWAX7Q1P9EK2VNJO1145DKO","ADJ9I7ZBFYFH7","3DFYDSXB2WMWAZWJRSN67LWQ0PPJUT","","<img src=""img/set1/S3.jpg"" width=""540"" height = ""360"" style=""border:16px solid orange"">","null","","","","","","","",""
"null","","html-keyboard-response","247","205728","0.0-176.0","3H8DHMCCWAX7Q1P9EK2VNJO1145DKO","ADJ9I7ZBFYFH7","3DFYDSXB2WMWAZWJRSN67LWQ0PPJUT","","","null","","","","","","","",""
"703.2000000476837","","image-keyboard-response","248","206432","0.0-177.0","3H8DHMCCWAX7Q1P9EK2VNJO1145DKO","ADJ9I7ZBFYFH7","3DFYDSXB2WMWAZWJRSN67LWQ0PPJUT","","img/set1/S1.jpg","83","1","random","83","true","random,structured_normal,structured_incentive","1,2,2,3","",""
"null","","html-keyboard-response","249","206784","0.0-178.0","3H8DHMCCWAX7Q1P9EK2VNJO1145DKO","ADJ9I7ZBFYFH7","3DFYDSXB2WMWAZWJRSN67LWQ0PPJUT","","<img src=""img/set1/S1.jpg"" width=""540"" height = ""360"" style=""border:16px solid orange"">","null","","","","","","","",""
"null","","html-keyboard-response","250","206786","0.0-179.0","3H8DHMCCWAX7Q1P9EK2VNJO1145DKO","ADJ9I7ZBFYFH7","3DFYDSXB2WMWAZWJRSN67LWQ0PPJUT","","","null","","","","","","","",""
"411.10000002384186","","image-keyboard-response","251","207198","0.0-180.0","3H8DHMCCWAX7Q1P9EK2VNJO1145DKO","ADJ9I7ZBFYFH7","3DFYDSXB2WMWAZWJRSN67LWQ0PPJUT","","img/set1/S1.jpg","83","1","random","83","true","random,structured_normal,structured_incentive","1,2,2,3","",""
"null","","html-keyboard-response","252","207550","0.0-181.0","3H8DHMCCWAX7Q1P9EK2VNJO1145DKO","ADJ9I7ZBFYFH7","3DFYDSXB2WMWAZWJRSN67LWQ0PPJUT","","<img src=""img/set1/S1.jpg"" width=""540"" height = ""360"" style=""border:16px solid orange"">","null","","","","","","","",""
"null","","html-keyboard-response","253","207552","0.0-182.0","3H8DHMCCWAX7Q1P9EK2VNJO1145DKO","ADJ9I7ZBFYFH7","3DFYDSXB2WMWAZWJRSN67LWQ0PPJUT","","","null","","","","","","","",""
"661.3999999761581","","image-keyboard-response","254","208214","0.0-183.0","3H8DHMCCWAX7Q1P9EK2VNJO1145DKO","ADJ9I7ZBFYFH7","3DFYDSXB2WMWAZWJRSN67LWQ0PPJUT","","img/set1/S3.jpg","72","3","random","72","true","random,structured_normal,structured_incentive","1,2,2,3","",""
"null","","html-keyboard-response","255","208567","0.0-184.0","3H8DHMCCWAX7Q1P9EK2VNJO1145DKO","ADJ9I7ZBFYFH7","3DFYDSXB2WMWAZWJRSN67LWQ0PPJUT","","<img src=""img/set1/S3.jpg"" width=""540"" height = ""360"" style=""border:16px solid orange"">","null","","","","","","","",""
"null","","html-keyboard-response","256","208569","0.0-185.0","3H8DHMCCWAX7Q1P9EK2VNJO1145DKO","ADJ9I7ZBFYFH7","3DFYDSXB2WMWAZWJRSN67LWQ0PPJUT","","","null","","","","","","","",""
"631.8000000715256","","image-keyboard-response","257","209201","0.0-186.0","3H8DHMCCWAX7Q1P9EK2VNJO1145DKO","ADJ9I7ZBFYFH7","3DFYDSXB2WMWAZWJRSN67LWQ0PPJUT","","img/set1/S4.jpg","74","4","random","74","true","random,structured_normal,structured_incentive","1,2,2,3","",""
"null","","html-keyboard-response","258","209553","0.0-187.0","3H8DHMCCWAX7Q1P9EK2VNJO1145DKO","ADJ9I7ZBFYFH7","3DFYDSXB2WMWAZWJRSN67LWQ0PPJUT","","<img src=""img/set1/S4.jpg"" width=""540"" height = ""360"" style=""border:16px solid orange"">","null","","","","","","","",""
"null","","html-keyboard-response","259","209554","0.0-188.0","3H8DHMCCWAX7Q1P9EK2VNJO1145DKO","ADJ9I7ZBFYFH7","3DFYDSXB2WMWAZWJRSN67LWQ0PPJUT","","","null","","","","","","","",""
"547","","image-keyboard-response","260","210102","0.0-189.0","3H8DHMCCWAX7Q1P9EK2VNJO1145DKO","ADJ9I7ZBFYFH7","3DFYDSXB2WMWAZWJRSN67LWQ0PPJUT","","img/set1/S4.jpg","74","4","random","74","true","random,structured_normal,structured_incentive","1,2,2,3","",""
"null","","html-keyboard-response","261","210454","0.0-190.0","3H8DHMCCWAX7Q1P9EK2VNJO1145DKO","ADJ9I7ZBFYFH7","3DFYDSXB2WMWAZWJRSN67LWQ0PPJUT","","<img src=""img/set1/S4.jpg"" width=""540"" height = ""360"" style=""border:16px solid orange"">","null","","","","","","","",""
"null","","html-keyboard-response","262","210457","0.0-191.0","3H8DHMCCWAX7Q1P9EK2VNJO1145DKO","ADJ9I7ZBFYFH7","3DFYDSXB2WMWAZWJRSN67LWQ0PPJUT","","","null","","","","","","","",""
"768.6000000238419","","image-keyboard-response","263","211227","0.0-192.0","3H8DHMCCWAX7Q1P9EK2VNJO1145DKO","ADJ9I7ZBFYFH7","3DFYDSXB2WMWAZWJRSN67LWQ0PPJUT","","img/set1/S3.jpg","72","3","random","72","true","random,structured_normal,structured_incentive","1,2,2,3","",""
"null","","html-keyboard-response","264","211578","0.0-193.0","3H8DHMCCWAX7Q1P9EK2VNJO1145DKO","ADJ9I7ZBFYFH7","3DFYDSXB2WMWAZWJRSN67LWQ0PPJUT","","<img src=""img/set1/S3.jpg"" width=""540"" height = ""360"" style=""border:16px solid orange"">","null","","","","","","","",""
"null","","html-keyboard-response","265","211580","0.0-194.0","3H8DHMCCWAX7Q1P9EK2VNJO1145DKO","ADJ9I7ZBFYFH7","3DFYDSXB2WMWAZWJRSN67LWQ0PPJUT","","","null","","","","","","","",""
"647.1000000238419","","image-keyboard-response","266","212228","0.0-195.0","3H8DHMCCWAX7Q1P9EK2VNJO1145DKO","ADJ9I7ZBFYFH7","3DFYDSXB2WMWAZWJRSN67LWQ0PPJUT","","img/set1/S2.jpg","68","2","random","68","true","random,structured_normal,structured_incentive","1,2,2,3","",""
"null","","html-keyboard-response","267","212581","0.0-196.0","3H8DHMCCWAX7Q1P9EK2VNJO1145DKO","ADJ9I7ZBFYFH7","3DFYDSXB2WMWAZWJRSN67LWQ0PPJUT","","<img src=""img/set1/S2.jpg"" width=""540"" height = ""360"" style=""border:16px solid orange"">","null","","","","","","","",""
"null","","html-keyboard-response","268","212583","0.0-197.0","3H8DHMCCWAX7Q1P9EK2VNJO1145DKO","ADJ9I7ZBFYFH7","3DFYDSXB2WMWAZWJRSN67LWQ0PPJUT","","","null","","","","","","","",""
"1025.6999999284744","","image-keyboard-response","269","213609","0.0-198.0","3H8DHMCCWAX7Q1P9EK2VNJO1145DKO","ADJ9I7ZBFYFH7","3DFYDSXB2WMWAZWJRSN67LWQ0PPJUT","","img/set1/S4.jpg","74","4","random","74","true","random,structured_normal,structured_incentive","1,2,2,3","",""
"null","","html-keyboard-response","270","213961","0.0-199.0","3H8DHMCCWAX7Q1P9EK2VNJO1145DKO","ADJ9I7ZBFYFH7","3DFYDSXB2WMWAZWJRSN67LWQ0PPJUT","","<img src=""img/set1/S4.jpg"" width=""540"" height = ""360"" style=""border:16px solid orange"">","null","","","","","","","",""
"null","","html-keyboard-response","271","213963","0.0-200.0","3H8DHMCCWAX7Q1P9EK2VNJO1145DKO","ADJ9I7ZBFYFH7","3DFYDSXB2WMWAZWJRSN67LWQ0PPJUT","","","null","","","","","","","",""
"656.2999999523163","","image-keyboard-response","272","214620","0.0-201.0","3H8DHMCCWAX7Q1P9EK2VNJO1145DKO","ADJ9I7ZBFYFH7","3DFYDSXB2WMWAZWJRSN67LWQ0PPJUT","","img/set1/S2.jpg","68","2","random","68","true","random,structured_normal,structured_incentive","1,2,2,3","",""
"null","","html-keyboard-response","273","214972","0.0-202.0","3H8DHMCCWAX7Q1P9EK2VNJO1145DKO","ADJ9I7ZBFYFH7","3DFYDSXB2WMWAZWJRSN67LWQ0PPJUT","","<img src=""img/set1/S2.jpg"" width=""540"" height = ""360"" style=""border:16px solid orange"">","null","","","","","","","",""
"null","","html-keyboard-response","274","214975","0.0-203.0","3H8DHMCCWAX7Q1P9EK2VNJO1145DKO","ADJ9I7ZBFYFH7","3DFYDSXB2WMWAZWJRSN67LWQ0PPJUT","","","null","","","","","","","",""
"758.2999999523163","","image-keyboard-response","275","215734","0.0-204.0","3H8DHMCCWAX7Q1P9EK2VNJO1145DKO","ADJ9I7ZBFYFH7","3DFYDSXB2WMWAZWJRSN67LWQ0PPJUT","","img/set1/S1.jpg","83","1","random","83","true","random,structured_normal,structured_incentive","1,2,2,3","",""
"null","","html-keyboard-response","276","216086","0.0-205.0","3H8DHMCCWAX7Q1P9EK2VNJO1145DKO","ADJ9I7ZBFYFH7","3DFYDSXB2WMWAZWJRSN67LWQ0PPJUT","","<img src=""img/set1/S1.jpg"" width=""540"" height = ""360"" style=""border:16px solid orange"">","null","","","","","","","",""
"null","","html-keyboard-response","277","216088","0.0-206.0","3H8DHMCCWAX7Q1P9EK2VNJO1145DKO","ADJ9I7ZBFYFH7","3DFYDSXB2WMWAZWJRSN67LWQ0PPJUT","","","null","","","","","","","",""
"635.6000000238419","","image-keyboard-response","278","216724","0.0-207.0","3H8DHMCCWAX7Q1P9EK2VNJO1145DKO","ADJ9I7ZBFYFH7","3DFYDSXB2WMWAZWJRSN67LWQ0PPJUT","","img/set1/S3.jpg","72","3","random","72","true","random,structured_normal,structured_incentive","1,2,2,3","",""
"null","","html-keyboard-response","279","217076","0.0-208.0","3H8DHMCCWAX7Q1P9EK2VNJO1145DKO","ADJ9I7ZBFYFH7","3DFYDSXB2WMWAZWJRSN67LWQ0PPJUT","","<img src=""img/set1/S3.jpg"" width=""540"" height = ""360"" style=""border:16px solid orange"">","null","","","","","","","",""
"null","","html-keyboard-response","280","217078","0.0-209.0","3H8DHMCCWAX7Q1P9EK2VNJO1145DKO","ADJ9I7ZBFYFH7","3DFYDSXB2WMWAZWJRSN67LWQ0PPJUT","","","null","","","","","","","",""
"796.6999999284744","","image-keyboard-response","281","217875","0.0-210.0","3H8DHMCCWAX7Q1P9EK2VNJO1145DKO","ADJ9I7ZBFYFH7","3DFYDSXB2WMWAZWJRSN67LWQ0PPJUT","","img/set1/S4.jpg","74","4","random","74","true","random,structured_normal,structured_incentive","1,2,2,3","",""
"null","","html-keyboard-response","282","218227","0.0-211.0","3H8DHMCCWAX7Q1P9EK2VNJO1145DKO","ADJ9I7ZBFYFH7","3DFYDSXB2WMWAZWJRSN67LWQ0PPJUT","","<img src=""img/set1/S4.jpg"" width=""540"" height = ""360"" style=""border:16px solid orange"">","null","","","","","","","",""
"null","","html-keyboard-response","283","218229","0.0-212.0","3H8DHMCCWAX7Q1P9EK2VNJO1145DKO","ADJ9I7ZBFYFH7","3DFYDSXB2WMWAZWJRSN67LWQ0PPJUT","","","null","","","","","","","",""
"654.5","","image-keyboard-response","284","218884","0.0-213.0","3H8DHMCCWAX7Q1P9EK2VNJO1145DKO","ADJ9I7ZBFYFH7","3DFYDSXB2WMWAZWJRSN67LWQ0PPJUT","","img/set1/S4.jpg","74","4","random","74","true","random,structured_normal,structured_incentive","1,2,2,3","",""
"null","","html-keyboard-response","285","219236","0.0-214.0","3H8DHMCCWAX7Q1P9EK2VNJO1145DKO","ADJ9I7ZBFYFH7","3DFYDSXB2WMWAZWJRSN67LWQ0PPJUT","","<img src=""img/set1/S4.jpg"" width=""540"" height = ""360"" style=""border:16px solid orange"">","null","","","","","","","",""
"null","","html-keyboard-response","286","219238","0.0-215.0","3H8DHMCCWAX7Q1P9EK2VNJO1145DKO","ADJ9I7ZBFYFH7","3DFYDSXB2WMWAZWJRSN67LWQ0PPJUT","","","null","","","","","","","",""
"786.3000000715256","","image-keyboard-response","287","220025","0.0-216.0","3H8DHMCCWAX7Q1P9EK2VNJO1145DKO","ADJ9I7ZBFYFH7","3DFYDSXB2WMWAZWJRSN67LWQ0PPJUT","","img/set1/S3.jpg","72","3","random","72","true","random,structured_normal,structured_incentive","1,2,2,3","",""
"null","","html-keyboard-response","288","220377","0.0-217.0","3H8DHMCCWAX7Q1P9EK2VNJO1145DKO","ADJ9I7ZBFYFH7","3DFYDSXB2WMWAZWJRSN67LWQ0PPJUT","","<img src=""img/set1/S3.jpg"" width=""540"" height = ""360"" style=""border:16px solid orange"">","null","","","","","","","",""
"null","","html-keyboard-response","289","220379","0.0-218.0","3H8DHMCCWAX7Q1P9EK2VNJO1145DKO","ADJ9I7ZBFYFH7","3DFYDSXB2WMWAZWJRSN67LWQ0PPJUT","","","null","","","","","","","",""
"1985.8999999761581","","image-keyboard-response","290","222366","0.0-219.0","3H8DHMCCWAX7Q1P9EK2VNJO1145DKO","ADJ9I7ZBFYFH7","3DFYDSXB2WMWAZWJRSN67LWQ0PPJUT","","img/set1/S1.jpg","83","1","random","83","true","random,structured_normal,structured_incentive","1,2,2,3","",""
"null","","html-keyboard-response","291","222718","0.0-220.0","3H8DHMCCWAX7Q1P9EK2VNJO1145DKO","ADJ9I7ZBFYFH7","3DFYDSXB2WMWAZWJRSN67LWQ0PPJUT","","<img src=""img/set1/S1.jpg"" width=""540"" height = ""360"" style=""border:16px solid orange"">","null","","","","","","","",""
"null","","html-keyboard-response","292","222720","0.0-221.0","3H8DHMCCWAX7Q1P9EK2VNJO1145DKO","ADJ9I7ZBFYFH7","3DFYDSXB2WMWAZWJRSN67LWQ0PPJUT","","","null","","","","","","","",""
"597.1999999284744","","image-keyboard-response","293","223318","0.0-222.0","3H8DHMCCWAX7Q1P9EK2VNJO1145DKO","ADJ9I7ZBFYFH7","3DFYDSXB2WMWAZWJRSN67LWQ0PPJUT","","img/set1/S1.jpg","83","1","random","83","true","random,structured_normal,structured_incentive","1,2,2,3","",""
"null","","html-keyboard-response","294","223669","0.0-223.0","3H8DHMCCWAX7Q1P9EK2VNJO1145DKO","ADJ9I7ZBFYFH7","3DFYDSXB2WMWAZWJRSN67LWQ0PPJUT","","<img src=""img/set1/S1.jpg"" width=""540"" height = ""360"" style=""border:16px solid orange"">","null","","","","","","","",""
"null","","html-keyboard-response","295","223671","0.0-224.0","3H8DHMCCWAX7Q1P9EK2VNJO1145DKO","ADJ9I7ZBFYFH7","3DFYDSXB2WMWAZWJRSN67LWQ0PPJUT","","","null","","","","","","","",""
"554.6000000238419","","image-keyboard-response","296","224227","0.0-225.0","3H8DHMCCWAX7Q1P9EK2VNJO1145DKO","ADJ9I7ZBFYFH7","3DFYDSXB2WMWAZWJRSN67LWQ0PPJUT","","img/set1/S1.jpg","83","1","random","83","true","random,structured_normal,structured_incentive","1,2,2,3","",""
"null","","html-keyboard-response","297","224578","0.0-226.0","3H8DHMCCWAX7Q1P9EK2VNJO1145DKO","ADJ9I7ZBFYFH7","3DFYDSXB2WMWAZWJRSN67LWQ0PPJUT","","<img src=""img/set1/S1.jpg"" width=""540"" height = ""360"" style=""border:16px solid orange"">","null","","","","","","","",""
"null","","html-keyboard-response","298","224580","0.0-227.0","3H8DHMCCWAX7Q1P9EK2VNJO1145DKO","ADJ9I7ZBFYFH7","3DFYDSXB2WMWAZWJRSN67LWQ0PPJUT","","","null","","","","","","","",""
"652.7999999523163","","image-keyboard-response","299","225234","0.0-228.0","3H8DHMCCWAX7Q1P9EK2VNJO1145DKO","ADJ9I7ZBFYFH7","3DFYDSXB2WMWAZWJRSN67LWQ0PPJUT","","img/set1/S3.jpg","72","3","random","72","true","random,structured_normal,structured_incentive","1,2,2,3","",""
"null","","html-keyboard-response","300","225586","0.0-229.0","3H8DHMCCWAX7Q1P9EK2VNJO1145DKO","ADJ9I7ZBFYFH7","3DFYDSXB2WMWAZWJRSN67LWQ0PPJUT","","<img src=""img/set1/S3.jpg"" width=""540"" height = ""360"" style=""border:16px solid orange"">","null","","","","","","","",""
"null","","html-keyboard-response","301","225589","0.0-230.0","3H8DHMCCWAX7Q1P9EK2VNJO1145DKO","ADJ9I7ZBFYFH7","3DFYDSXB2WMWAZWJRSN67LWQ0PPJUT","","","null","","","","","","","",""
"607.1000000238419","","image-keyboard-response","302","226197","0.0-231.0","3H8DHMCCWAX7Q1P9EK2VNJO1145DKO","ADJ9I7ZBFYFH7","3DFYDSXB2WMWAZWJRSN67LWQ0PPJUT","","img/set1/S2.jpg","68","2","random","68","true","random,structured_normal,structured_incentive","1,2,2,3","",""
"null","","html-keyboard-response","303","226549","0.0-232.0","3H8DHMCCWAX7Q1P9EK2VNJO1145DKO","ADJ9I7ZBFYFH7","3DFYDSXB2WMWAZWJRSN67LWQ0PPJUT","","<img src=""img/set1/S2.jpg"" width=""540"" height = ""360"" style=""border:16px solid orange"">","null","","","","","","","",""
"null","","html-keyboard-response","304","226551","0.0-233.0","3H8DHMCCWAX7Q1P9EK2VNJO1145DKO","ADJ9I7ZBFYFH7","3DFYDSXB2WMWAZWJRSN67LWQ0PPJUT","","","null","","","","","","","",""
"726","","image-keyboard-response","305","227278","0.0-234.0","3H8DHMCCWAX7Q1P9EK2VNJO1145DKO","ADJ9I7ZBFYFH7","3DFYDSXB2WMWAZWJRSN67LWQ0PPJUT","","img/set1/S1.jpg","83","1","random","83","true","random,structured_normal,structured_incentive","1,2,2,3","",""
"null","","html-keyboard-response","306","227630","0.0-235.0","3H8DHMCCWAX7Q1P9EK2VNJO1145DKO","ADJ9I7ZBFYFH7","3DFYDSXB2WMWAZWJRSN67LWQ0PPJUT","","<img src=""img/set1/S1.jpg"" width=""540"" height = ""360"" style=""border:16px solid orange"">","null","","","","","","","",""
"null","","html-keyboard-response","307","227633","0.0-236.0","3H8DHMCCWAX7Q1P9EK2VNJO1145DKO","ADJ9I7ZBFYFH7","3DFYDSXB2WMWAZWJRSN67LWQ0PPJUT","","","null","","","","","","","",""
"621.2999999523163","","image-keyboard-response","308","228255","0.0-237.0","3H8DHMCCWAX7Q1P9EK2VNJO1145DKO","ADJ9I7ZBFYFH7","3DFYDSXB2WMWAZWJRSN67LWQ0PPJUT","","img/set1/S3.jpg","72","3","random","72","true","random,structured_normal,structured_incentive","1,2,2,3","",""
"null","","html-keyboard-response","309","228607","0.0-238.0","3H8DHMCCWAX7Q1P9EK2VNJO1145DKO","ADJ9I7ZBFYFH7","3DFYDSXB2WMWAZWJRSN67LWQ0PPJUT","","<img src=""img/set1/S3.jpg"" width=""540"" height = ""360"" style=""border:16px solid orange"">","null","","","","","","","",""
"null","","html-keyboard-response","310","228609","0.0-239.0","3H8DHMCCWAX7Q1P9EK2VNJO1145DKO","ADJ9I7ZBFYFH7","3DFYDSXB2WMWAZWJRSN67LWQ0PPJUT","","","null","","","","","","","",""
"650.1000000238419","","image-keyboard-response","311","229260","0.0-240.0","3H8DHMCCWAX7Q1P9EK2VNJO1145DKO","ADJ9I7ZBFYFH7","3DFYDSXB2WMWAZWJRSN67LWQ0PPJUT","","img/set1/S2.jpg","68","2","random","68","true","random,structured_normal,structured_incentive","1,2,2,3","",""
"null","","html-keyboard-response","312","229611","0.0-241.0","3H8DHMCCWAX7Q1P9EK2VNJO1145DKO","ADJ9I7ZBFYFH7","3DFYDSXB2WMWAZWJRSN67LWQ0PPJUT","","<img src=""img/set1/S2.jpg"" width=""540"" height = ""360"" style=""border:16px solid orange"">","null","","","","","","","",""
"null","","html-keyboard-response","313","229613","0.0-242.0","3H8DHMCCWAX7Q1P9EK2VNJO1145DKO","ADJ9I7ZBFYFH7","3DFYDSXB2WMWAZWJRSN67LWQ0PPJUT","","","null","","","","","","","",""
"648.3999999761581","","image-keyboard-response","314","230263","0.0-243.0","3H8DHMCCWAX7Q1P9EK2VNJO1145DKO","ADJ9I7ZBFYFH7","3DFYDSXB2WMWAZWJRSN67LWQ0PPJUT","","img/set1/S4.jpg","74","4","random","74","true","random,structured_normal,structured_incentive","1,2,2,3","",""
"null","","html-keyboard-response","315","230614","0.0-244.0","3H8DHMCCWAX7Q1P9EK2VNJO1145DKO","ADJ9I7ZBFYFH7","3DFYDSXB2WMWAZWJRSN67LWQ0PPJUT","","<img src=""img/set1/S4.jpg"" width=""540"" height = ""360"" style=""border:16px solid orange"">","null","","","","","","","",""
"null","","html-keyboard-response","316","230617","0.0-245.0","3H8DHMCCWAX7Q1P9EK2VNJO1145DKO","ADJ9I7ZBFYFH7","3DFYDSXB2WMWAZWJRSN67LWQ0PPJUT","","","null","","","","","","","",""
"533.4000000953674","","image-keyboard-response","317","231151","0.0-246.0","3H8DHMCCWAX7Q1P9EK2VNJO1145DKO","ADJ9I7ZBFYFH7","3DFYDSXB2WMWAZWJRSN67LWQ0PPJUT","","img/set1/S4.jpg","74","4","random","74","true","random,structured_normal,structured_incentive","1,2,2,3","",""
"null","","html-keyboard-response","318","231503","0.0-247.0","3H8DHMCCWAX7Q1P9EK2VNJO1145DKO","ADJ9I7ZBFYFH7","3DFYDSXB2WMWAZWJRSN67LWQ0PPJUT","","<img src=""img/set1/S4.jpg"" width=""540"" height = ""360"" style=""border:16px solid orange"">","null","","","","","","","",""
"null","","html-keyboard-response","319","231505","0.0-248.0","3H8DHMCCWAX7Q1P9EK2VNJO1145DKO","ADJ9I7ZBFYFH7","3DFYDSXB2WMWAZWJRSN67LWQ0PPJUT","","","null","","","","","","","",""
"539.0999999046326","","image-keyboard-response","320","232045","0.0-249.0","3H8DHMCCWAX7Q1P9EK2VNJO1145DKO","ADJ9I7ZBFYFH7","3DFYDSXB2WMWAZWJRSN67LWQ0PPJUT","","img/set1/S3.jpg","72","3","random","72","true","random,structured_normal,structured_incentive","1,2,2,3","",""
"null","","html-keyboard-response","321","232397","0.0-250.0","3H8DHMCCWAX7Q1P9EK2VNJO1145DKO","ADJ9I7ZBFYFH7","3DFYDSXB2WMWAZWJRSN67LWQ0PPJUT","","<img src=""img/set1/S3.jpg"" width=""540"" height = ""360"" style=""border:16px solid orange"">","null","","","","","","","",""
"null","","html-keyboard-response","322","232399","0.0-251.0","3H8DHMCCWAX7Q1P9EK2VNJO1145DKO","ADJ9I7ZBFYFH7","3DFYDSXB2WMWAZWJRSN67LWQ0PPJUT","","","null","","","","","","","",""
"605.2999999523163","","image-keyboard-response","323","233006","0.0-252.0","3H8DHMCCWAX7Q1P9EK2VNJO1145DKO","ADJ9I7ZBFYFH7","3DFYDSXB2WMWAZWJRSN67LWQ0PPJUT","","img/set1/S1.jpg","83","1","random","83","true","random,structured_normal,structured_incentive","1,2,2,3","",""
"null","","html-keyboard-response","324","233358","0.0-253.0","3H8DHMCCWAX7Q1P9EK2VNJO1145DKO","ADJ9I7ZBFYFH7","3DFYDSXB2WMWAZWJRSN67LWQ0PPJUT","","<img src=""img/set1/S1.jpg"" width=""540"" height = ""360"" style=""border:16px solid orange"">","null","","","","","","","",""
"null","","html-keyboard-response","325","233360","0.0-254.0","3H8DHMCCWAX7Q1P9EK2VNJO1145DKO","ADJ9I7ZBFYFH7","3DFYDSXB2WMWAZWJRSN67LWQ0PPJUT","","","null","","","","","","","",""
"715.7999999523163","","image-keyboard-response","326","234076","0.0-255.0","3H8DHMCCWAX7Q1P9EK2VNJO1145DKO","ADJ9I7ZBFYFH7","3DFYDSXB2WMWAZWJRSN67LWQ0PPJUT","","img/set1/S3.jpg","72","3","random","72","true","random,structured_normal,structured_incentive","1,2,2,3","",""
"null","","html-keyboard-response","327","234429","0.0-256.0","3H8DHMCCWAX7Q1P9EK2VNJO1145DKO","ADJ9I7ZBFYFH7","3DFYDSXB2WMWAZWJRSN67LWQ0PPJUT","","<img src=""img/set1/S3.jpg"" width=""540"" height = ""360"" style=""border:16px solid orange"">","null","","","","","","","",""
"null","","html-keyboard-response","328","234431","0.0-257.0","3H8DHMCCWAX7Q1P9EK2VNJO1145DKO","ADJ9I7ZBFYFH7","3DFYDSXB2WMWAZWJRSN67LWQ0PPJUT","","","null","","","","","","","",""
"558.8999999761581","","image-keyboard-response","329","234991","0.0-258.0","3H8DHMCCWAX7Q1P9EK2VNJO1145DKO","ADJ9I7ZBFYFH7","3DFYDSXB2WMWAZWJRSN67LWQ0PPJUT","","img/set1/S2.jpg","68","2","random","68","true","random,structured_normal,structured_incentive","1,2,2,3","",""
"null","","html-keyboard-response","330","235343","0.0-259.0","3H8DHMCCWAX7Q1P9EK2VNJO1145DKO","ADJ9I7ZBFYFH7","3DFYDSXB2WMWAZWJRSN67LWQ0PPJUT","","<img src=""img/set1/S2.jpg"" width=""540"" height = ""360"" style=""border:16px solid orange"">","null","","","","","","","",""
"null","","html-keyboard-response","331","235346","0.0-260.0","3H8DHMCCWAX7Q1P9EK2VNJO1145DKO","ADJ9I7ZBFYFH7","3DFYDSXB2WMWAZWJRSN67LWQ0PPJUT","","","null","","","","","","","",""
"636","","image-keyboard-response","332","235983","0.0-261.0","3H8DHMCCWAX7Q1P9EK2VNJO1145DKO","ADJ9I7ZBFYFH7","3DFYDSXB2WMWAZWJRSN67LWQ0PPJUT","","img/set1/S3.jpg","72","3","random","72","true","random,structured_normal,structured_incentive","1,2,2,3","",""
"null","","html-keyboard-response","333","236334","0.0-262.0","3H8DHMCCWAX7Q1P9EK2VNJO1145DKO","ADJ9I7ZBFYFH7","3DFYDSXB2WMWAZWJRSN67LWQ0PPJUT","","<img src=""img/set1/S3.jpg"" width=""540"" height = ""360"" style=""border:16px solid orange"">","null","","","","","","","",""
"null","","html-keyboard-response","334","236336","0.0-263.0","3H8DHMCCWAX7Q1P9EK2VNJO1145DKO","ADJ9I7ZBFYFH7","3DFYDSXB2WMWAZWJRSN67LWQ0PPJUT","","","null","","","","","","","",""
"591.7999999523163","","image-keyboard-response","335","236929","0.0-264.0","3H8DHMCCWAX7Q1P9EK2VNJO1145DKO","ADJ9I7ZBFYFH7","3DFYDSXB2WMWAZWJRSN67LWQ0PPJUT","","img/set1/S4.jpg","74","4","random","74","true","random,structured_normal,structured_incentive","1,2,2,3","",""
"null","","html-keyboard-response","336","237282","0.0-265.0","3H8DHMCCWAX7Q1P9EK2VNJO1145DKO","ADJ9I7ZBFYFH7","3DFYDSXB2WMWAZWJRSN67LWQ0PPJUT","","<img src=""img/set1/S4.jpg"" width=""540"" height = ""360"" style=""border:16px solid orange"">","null","","","","","","","",""
"null","","html-keyboard-response","337","237284","0.0-266.0","3H8DHMCCWAX7Q1P9EK2VNJO1145DKO","ADJ9I7ZBFYFH7","3DFYDSXB2WMWAZWJRSN67LWQ0PPJUT","","","null","","","","","","","",""
"493.89999997615814","","image-keyboard-response","338","237779","0.0-267.0","3H8DHMCCWAX7Q1P9EK2VNJO1145DKO","ADJ9I7ZBFYFH7","3DFYDSXB2WMWAZWJRSN67LWQ0PPJUT","","img/set1/S4.jpg","74","4","random","74","true","random,structured_normal,structured_incentive","1,2,2,3","",""
"null","","html-keyboard-response","339","238130","0.0-268.0","3H8DHMCCWAX7Q1P9EK2VNJO1145DKO","ADJ9I7ZBFYFH7","3DFYDSXB2WMWAZWJRSN67LWQ0PPJUT","","<img src=""img/set1/S4.jpg"" width=""540"" height = ""360"" style=""border:16px solid orange"">","null","","","","","","","",""
"null","","html-keyboard-response","340","238132","0.0-269.0","3H8DHMCCWAX7Q1P9EK2VNJO1145DKO","ADJ9I7ZBFYFH7","3DFYDSXB2WMWAZWJRSN67LWQ0PPJUT","","","null","","","","","","","",""
"535.7999999523163","","image-keyboard-response","341","238669","0.0-270.0","3H8DHMCCWAX7Q1P9EK2VNJO1145DKO","ADJ9I7ZBFYFH7","3DFYDSXB2WMWAZWJRSN67LWQ0PPJUT","","img/set1/S4.jpg","74","4","random","74","true","random,structured_normal,structured_incentive","1,2,2,3","",""
"null","","html-keyboard-response","342","239020","0.0-271.0","3H8DHMCCWAX7Q1P9EK2VNJO1145DKO","ADJ9I7ZBFYFH7","3DFYDSXB2WMWAZWJRSN67LWQ0PPJUT","","<img src=""img/set1/S4.jpg"" width=""540"" height = ""360"" style=""border:16px solid orange"">","null","","","","","","","",""
"null","","html-keyboard-response","343","239022","0.0-272.0","3H8DHMCCWAX7Q1P9EK2VNJO1145DKO","ADJ9I7ZBFYFH7","3DFYDSXB2WMWAZWJRSN67LWQ0PPJUT","","","null","","","","","","","",""
"626.1000000238419","","image-keyboard-response","344","239649","0.0-273.0","3H8DHMCCWAX7Q1P9EK2VNJO1145DKO","ADJ9I7ZBFYFH7","3DFYDSXB2WMWAZWJRSN67LWQ0PPJUT","","img/set1/S1.jpg","83","1","random","83","true","random,structured_normal,structured_incentive","1,2,2,3","",""
"null","","html-keyboard-response","345","240001","0.0-274.0","3H8DHMCCWAX7Q1P9EK2VNJO1145DKO","ADJ9I7ZBFYFH7","3DFYDSXB2WMWAZWJRSN67LWQ0PPJUT","","<img src=""img/set1/S1.jpg"" width=""540"" height = ""360"" style=""border:16px solid orange"">","null","","","","","","","",""
"null","","html-keyboard-response","346","240003","0.0-275.0","3H8DHMCCWAX7Q1P9EK2VNJO1145DKO","ADJ9I7ZBFYFH7","3DFYDSXB2WMWAZWJRSN67LWQ0PPJUT","","","null","","","","","","","",""
"467.89999997615814","","image-keyboard-response","347","240472","0.0-276.0","3H8DHMCCWAX7Q1P9EK2VNJO1145DKO","ADJ9I7ZBFYFH7","3DFYDSXB2WMWAZWJRSN67LWQ0PPJUT","","img/set1/S1.jpg","83","1","random","83","true","random,structured_normal,structured_incentive","1,2,2,3","",""
"null","","html-keyboard-response","348","240824","0.0-277.0","3H8DHMCCWAX7Q1P9EK2VNJO1145DKO","ADJ9I7ZBFYFH7","3DFYDSXB2WMWAZWJRSN67LWQ0PPJUT","","<img src=""img/set1/S1.jpg"" width=""540"" height = ""360"" style=""border:16px solid orange"">","null","","","","","","","",""
"null","","html-keyboard-response","349","240827","0.0-278.0","3H8DHMCCWAX7Q1P9EK2VNJO1145DKO","ADJ9I7ZBFYFH7","3DFYDSXB2WMWAZWJRSN67LWQ0PPJUT","","","null","","","","","","","",""
"613.3000000715256","","image-keyboard-response","350","241441","0.0-279.0","3H8DHMCCWAX7Q1P9EK2VNJO1145DKO","ADJ9I7ZBFYFH7","3DFYDSXB2WMWAZWJRSN67LWQ0PPJUT","","img/set1/S3.jpg","72","3","random","72","true","random,structured_normal,structured_incentive","1,2,2,3","",""
"null","","html-keyboard-response","351","241794","0.0-280.0","3H8DHMCCWAX7Q1P9EK2VNJO1145DKO","ADJ9I7ZBFYFH7","3DFYDSXB2WMWAZWJRSN67LWQ0PPJUT","","<img src=""img/set1/S3.jpg"" width=""540"" height = ""360"" style=""border:16px solid orange"">","null","","","","","","","",""
"null","","html-keyboard-response","352","241795","0.0-281.0","3H8DHMCCWAX7Q1P9EK2VNJO1145DKO","ADJ9I7ZBFYFH7","3DFYDSXB2WMWAZWJRSN67LWQ0PPJUT","","","null","","","","","","","",""
"666.1999999284744","","image-keyboard-response","353","242463","0.0-282.0","3H8DHMCCWAX7Q1P9EK2VNJO1145DKO","ADJ9I7ZBFYFH7","3DFYDSXB2WMWAZWJRSN67LWQ0PPJUT","","img/set1/S4.jpg","74","4","random","74","true","random,structured_normal,structured_incentive","1,2,2,3","",""
"null","","html-keyboard-response","354","242814","0.0-283.0","3H8DHMCCWAX7Q1P9EK2VNJO1145DKO","ADJ9I7ZBFYFH7","3DFYDSXB2WMWAZWJRSN67LWQ0PPJUT","","<img src=""img/set1/S4.jpg"" width=""540"" height = ""360"" style=""border:16px solid orange"">","null","","","","","","","",""
"null","","html-keyboard-response","355","242816","0.0-284.0","3H8DHMCCWAX7Q1P9EK2VNJO1145DKO","ADJ9I7ZBFYFH7","3DFYDSXB2WMWAZWJRSN67LWQ0PPJUT","","","null","","","","","","","",""
"723.5999999046326","","image-keyboard-response","356","243541","0.0-285.0","3H8DHMCCWAX7Q1P9EK2VNJO1145DKO","ADJ9I7ZBFYFH7","3DFYDSXB2WMWAZWJRSN67LWQ0PPJUT","","img/set1/S1.jpg","83","1","random","83","true","random,structured_normal,structured_incentive","1,2,2,3","",""
"null","","html-keyboard-response","357","243892","0.0-286.0","3H8DHMCCWAX7Q1P9EK2VNJO1145DKO","ADJ9I7ZBFYFH7","3DFYDSXB2WMWAZWJRSN67LWQ0PPJUT","","<img src=""img/set1/S1.jpg"" width=""540"" height = ""360"" style=""border:16px solid orange"">","null","","","","","","","",""
"null","","html-keyboard-response","358","243895","0.0-287.0","3H8DHMCCWAX7Q1P9EK2VNJO1145DKO","ADJ9I7ZBFYFH7","3DFYDSXB2WMWAZWJRSN67LWQ0PPJUT","","","null","","","","","","","",""
"577.2999999523163","","image-keyboard-response","359","244473","0.0-288.0","3H8DHMCCWAX7Q1P9EK2VNJO1145DKO","ADJ9I7ZBFYFH7","3DFYDSXB2WMWAZWJRSN67LWQ0PPJUT","","img/set1/S3.jpg","72","3","random","72","true","random,structured_normal,structured_incentive","1,2,2,3","",""
"null","","html-keyboard-response","360","244825","0.0-289.0","3H8DHMCCWAX7Q1P9EK2VNJO1145DKO","ADJ9I7ZBFYFH7","3DFYDSXB2WMWAZWJRSN67LWQ0PPJUT","","<img src=""img/set1/S3.jpg"" width=""540"" height = ""360"" style=""border:16px solid orange"">","null","","","","","","","",""
"null","","html-keyboard-response","361","244827","0.0-290.0","3H8DHMCCWAX7Q1P9EK2VNJO1145DKO","ADJ9I7ZBFYFH7","3DFYDSXB2WMWAZWJRSN67LWQ0PPJUT","","","null","","","","","","","",""
"1493.7999999523163","","image-keyboard-response","362","246322","0.0-291.0","3H8DHMCCWAX7Q1P9EK2VNJO1145DKO","ADJ9I7ZBFYFH7","3DFYDSXB2WMWAZWJRSN67LWQ0PPJUT","","img/set1/S4.jpg","74","4","random","74","true","random,structured_normal,structured_incentive","1,2,2,3","",""
"null","","html-keyboard-response","363","246674","0.0-292.0","3H8DHMCCWAX7Q1P9EK2VNJO1145DKO","ADJ9I7ZBFYFH7","3DFYDSXB2WMWAZWJRSN67LWQ0PPJUT","","<img src=""img/set1/S4.jpg"" width=""540"" height = ""360"" style=""border:16px solid orange"">","null","","","","","","","",""
"null","","html-keyboard-response","364","246676","0.0-293.0","3H8DHMCCWAX7Q1P9EK2VNJO1145DKO","ADJ9I7ZBFYFH7","3DFYDSXB2WMWAZWJRSN67LWQ0PPJUT","","","null","","","","","","","",""
"685.2999999523163","","image-keyboard-response","365","247363","0.0-294.0","3H8DHMCCWAX7Q1P9EK2VNJO1145DKO","ADJ9I7ZBFYFH7","3DFYDSXB2WMWAZWJRSN67LWQ0PPJUT","","img/set1/S1.jpg","83","1","random","83","true","random,structured_normal,structured_incentive","1,2,2,3","",""
"null","","html-keyboard-response","366","247714","0.0-295.0","3H8DHMCCWAX7Q1P9EK2VNJO1145DKO","ADJ9I7ZBFYFH7","3DFYDSXB2WMWAZWJRSN67LWQ0PPJUT","","<img src=""img/set1/S1.jpg"" width=""540"" height = ""360"" style=""border:16px solid orange"">","null","","","","","","","",""
"null","","html-keyboard-response","367","247716","0.0-296.0","3H8DHMCCWAX7Q1P9EK2VNJO1145DKO","ADJ9I7ZBFYFH7","3DFYDSXB2WMWAZWJRSN67LWQ0PPJUT","","","null","","","","","","","",""
"608.4000000953674","","image-keyboard-response","368","248326","0.0-297.0","3H8DHMCCWAX7Q1P9EK2VNJO1145DKO","ADJ9I7ZBFYFH7","3DFYDSXB2WMWAZWJRSN67LWQ0PPJUT","","img/set1/S3.jpg","72","3","random","72","true","random,structured_normal,structured_incentive","1,2,2,3","",""
"null","","html-keyboard-response","369","248678","0.0-298.0","3H8DHMCCWAX7Q1P9EK2VNJO1145DKO","ADJ9I7ZBFYFH7","3DFYDSXB2WMWAZWJRSN67LWQ0PPJUT","","<img src=""img/set1/S3.jpg"" width=""540"" height = ""360"" style=""border:16px solid orange"">","null","","","","","","","",""
"null","","html-keyboard-response","370","248680","0.0-299.0","3H8DHMCCWAX7Q1P9EK2VNJO1145DKO","ADJ9I7ZBFYFH7","3DFYDSXB2WMWAZWJRSN67LWQ0PPJUT","","","null","","","","","","","",""
"595.2999999523163","","image-keyboard-response","371","249277","0.0-300.0","3H8DHMCCWAX7Q1P9EK2VNJO1145DKO","ADJ9I7ZBFYFH7","3DFYDSXB2WMWAZWJRSN67LWQ0PPJUT","","img/set1/S1.jpg","83","1","random","83","true","random,structured_normal,structured_incentive","1,2,2,3","",""
"null","","html-keyboard-response","372","249628","0.0-301.0","3H8DHMCCWAX7Q1P9EK2VNJO1145DKO","ADJ9I7ZBFYFH7","3DFYDSXB2WMWAZWJRSN67LWQ0PPJUT","","<img src=""img/set1/S1.jpg"" width=""540"" height = ""360"" style=""border:16px solid orange"">","null","","","","","","","",""
"null","","html-keyboard-response","373","249631","0.0-302.0","3H8DHMCCWAX7Q1P9EK2VNJO1145DKO","ADJ9I7ZBFYFH7","3DFYDSXB2WMWAZWJRSN67LWQ0PPJUT","","","null","","","","","","","",""
"477.8000000715256","","image-keyboard-response","374","250109","0.0-303.0","3H8DHMCCWAX7Q1P9EK2VNJO1145DKO","ADJ9I7ZBFYFH7","3DFYDSXB2WMWAZWJRSN67LWQ0PPJUT","","img/set1/S1.jpg","83","1","random","83","true","random,structured_normal,structured_incentive","1,2,2,3","",""
"null","","html-keyboard-response","375","250461","0.0-304.0","3H8DHMCCWAX7Q1P9EK2VNJO1145DKO","ADJ9I7ZBFYFH7","3DFYDSXB2WMWAZWJRSN67LWQ0PPJUT","","<img src=""img/set1/S1.jpg"" width=""540"" height = ""360"" style=""border:16px solid orange"">","null","","","","","","","",""
"null","","html-keyboard-response","376","250463","0.0-305.0","3H8DHMCCWAX7Q1P9EK2VNJO1145DKO","ADJ9I7ZBFYFH7","3DFYDSXB2WMWAZWJRSN67LWQ0PPJUT","","","null","","","","","","","",""
"607","","image-keyboard-response","377","251071","0.0-306.0","3H8DHMCCWAX7Q1P9EK2VNJO1145DKO","ADJ9I7ZBFYFH7","3DFYDSXB2WMWAZWJRSN67LWQ0PPJUT","","img/set1/S4.jpg","72","4","random","74","false","random,structured_normal,structured_incentive","1,2,2,3","",""
"null","","html-keyboard-response","378","251423","0.0-307.0","3H8DHMCCWAX7Q1P9EK2VNJO1145DKO","ADJ9I7ZBFYFH7","3DFYDSXB2WMWAZWJRSN67LWQ0PPJUT","","<img src=""img/set1/S4.jpg"" width=""540"" height = ""360"">","null","","","","","","","",""
"null","","html-keyboard-response","379","251425","0.0-308.0","3H8DHMCCWAX7Q1P9EK2VNJO1145DKO","ADJ9I7ZBFYFH7","3DFYDSXB2WMWAZWJRSN67LWQ0PPJUT","","","null","","","","","","","",""
"609.7999999523163","","image-keyboard-response","380","252036","0.0-309.0","3H8DHMCCWAX7Q1P9EK2VNJO1145DKO","ADJ9I7ZBFYFH7","3DFYDSXB2WMWAZWJRSN67LWQ0PPJUT","","img/set1/S4.jpg","74","4","random","74","true","random,structured_normal,structured_incentive","1,2,2,3","",""
"null","","html-keyboard-response","381","252388","0.0-310.0","3H8DHMCCWAX7Q1P9EK2VNJO1145DKO","ADJ9I7ZBFYFH7","3DFYDSXB2WMWAZWJRSN67LWQ0PPJUT","","<img src=""img/set1/S4.jpg"" width=""540"" height = ""360"" style=""border:16px solid orange"">","null","","","","","","","",""
"null","","html-keyboard-response","382","252391","0.0-311.0","3H8DHMCCWAX7Q1P9EK2VNJO1145DKO","ADJ9I7ZBFYFH7","3DFYDSXB2WMWAZWJRSN67LWQ0PPJUT","","","null","","","","","","","",""
"523.8000000715256","","image-keyboard-response","383","252916","0.0-312.0","3H8DHMCCWAX7Q1P9EK2VNJO1145DKO","ADJ9I7ZBFYFH7","3DFYDSXB2WMWAZWJRSN67LWQ0PPJUT","","img/set1/S4.jpg","74","4","random","74","true","random,structured_normal,structured_incentive","1,2,2,3","",""
"null","","html-keyboard-response","384","253268","0.0-313.0","3H8DHMCCWAX7Q1P9EK2VNJO1145DKO","ADJ9I7ZBFYFH7","3DFYDSXB2WMWAZWJRSN67LWQ0PPJUT","","<img src=""img/set1/S4.jpg"" width=""540"" height = ""360"" style=""border:16px solid orange"">","null","","","","","","","",""
"null","","html-keyboard-response","385","253270","0.0-314.0","3H8DHMCCWAX7Q1P9EK2VNJO1145DKO","ADJ9I7ZBFYFH7","3DFYDSXB2WMWAZWJRSN67LWQ0PPJUT","","","null","","","","","","","",""
"558.9000000953674","","image-keyboard-response","386","253830","0.0-315.0","3H8DHMCCWAX7Q1P9EK2VNJO1145DKO","ADJ9I7ZBFYFH7","3DFYDSXB2WMWAZWJRSN67LWQ0PPJUT","","img/set1/S3.jpg","72","3","random","72","true","random,structured_normal,structured_incentive","1,2,2,3","",""
"null","","html-keyboard-response","387","254181","0.0-316.0","3H8DHMCCWAX7Q1P9EK2VNJO1145DKO","ADJ9I7ZBFYFH7","3DFYDSXB2WMWAZWJRSN67LWQ0PPJUT","","<img src=""img/set1/S3.jpg"" width=""540"" height = ""360"" style=""border:16px solid orange"">","null","","","","","","","",""
"null","","html-keyboard-response","388","254184","0.0-317.0","3H8DHMCCWAX7Q1P9EK2VNJO1145DKO","ADJ9I7ZBFYFH7","3DFYDSXB2WMWAZWJRSN67LWQ0PPJUT","","","null","","","","","","","",""
"652.8000000715256","","image-keyboard-response","389","254838","0.0-318.0","3H8DHMCCWAX7Q1P9EK2VNJO1145DKO","ADJ9I7ZBFYFH7","3DFYDSXB2WMWAZWJRSN67LWQ0PPJUT","","img/set1/S1.jpg","83","1","random","83","true","random,structured_normal,structured_incentive","1,2,2,3","",""
"null","","html-keyboard-response","390","255190","0.0-319.0","3H8DHMCCWAX7Q1P9EK2VNJO1145DKO","ADJ9I7ZBFYFH7","3DFYDSXB2WMWAZWJRSN67LWQ0PPJUT","","<img src=""img/set1/S1.jpg"" width=""540"" height = ""360"" style=""border:16px solid orange"">","null","","","","","","","",""
"null","","html-keyboard-response","391","255193","0.0-320.0","3H8DHMCCWAX7Q1P9EK2VNJO1145DKO","ADJ9I7ZBFYFH7","3DFYDSXB2WMWAZWJRSN67LWQ0PPJUT","","","null","","","","","","","",""
"692.8999999761581","","image-keyboard-response","392","255887","0.0-321.0","3H8DHMCCWAX7Q1P9EK2VNJO1145DKO","ADJ9I7ZBFYFH7","3DFYDSXB2WMWAZWJRSN67LWQ0PPJUT","","img/set1/S2.jpg","68","2","random","68","true","random,structured_normal,structured_incentive","1,2,2,3","",""
"null","","html-keyboard-response","393","256239","0.0-322.0","3H8DHMCCWAX7Q1P9EK2VNJO1145DKO","ADJ9I7ZBFYFH7","3DFYDSXB2WMWAZWJRSN67LWQ0PPJUT","","<img src=""img/set1/S2.jpg"" width=""540"" height = ""360"" style=""border:16px solid orange"">","null","","","","","","","",""
"null","","html-keyboard-response","394","256241","0.0-323.0","3H8DHMCCWAX7Q1P9EK2VNJO1145DKO","ADJ9I7ZBFYFH7","3DFYDSXB2WMWAZWJRSN67LWQ0PPJUT","","","null","","","","","","","",""
"636.7000000476837","","image-keyboard-response","395","256878","0.0-324.0","3H8DHMCCWAX7Q1P9EK2VNJO1145DKO","ADJ9I7ZBFYFH7","3DFYDSXB2WMWAZWJRSN67LWQ0PPJUT","","img/set1/S1.jpg","83","1","random","83","true","random,structured_normal,structured_incentive","1,2,2,3","",""
"null","","html-keyboard-response","396","257230","0.0-325.0","3H8DHMCCWAX7Q1P9EK2VNJO1145DKO","ADJ9I7ZBFYFH7","3DFYDSXB2WMWAZWJRSN67LWQ0PPJUT","","<img src=""img/set1/S1.jpg"" width=""540"" height = ""360"" style=""border:16px solid orange"">","null","","","","","","","",""
"null","","html-keyboard-response","397","257232","0.0-326.0","3H8DHMCCWAX7Q1P9EK2VNJO1145DKO","ADJ9I7ZBFYFH7","3DFYDSXB2WMWAZWJRSN67LWQ0PPJUT","","","null","","","","","","","",""
"697.8000000715256","","image-keyboard-response","398","257931","0.0-327.0","3H8DHMCCWAX7Q1P9EK2VNJO1145DKO","ADJ9I7ZBFYFH7","3DFYDSXB2WMWAZWJRSN67LWQ0PPJUT","","img/set1/S3.jpg","72","3","random","72","true","random,structured_normal,structured_incentive","1,2,2,3","",""
"null","","html-keyboard-response","399","258283","0.0-328.0","3H8DHMCCWAX7Q1P9EK2VNJO1145DKO","ADJ9I7ZBFYFH7","3DFYDSXB2WMWAZWJRSN67LWQ0PPJUT","","<img src=""img/set1/S3.jpg"" width=""540"" height = ""360"" style=""border:16px solid orange"">","null","","","","","","","",""
"null","","html-keyboard-response","400","258285","0.0-329.0","3H8DHMCCWAX7Q1P9EK2VNJO1145DKO","ADJ9I7ZBFYFH7","3DFYDSXB2WMWAZWJRSN67LWQ0PPJUT","","","null","","","","","","","",""
"617.8999999761581","","image-keyboard-response","401","258904","0.0-330.0","3H8DHMCCWAX7Q1P9EK2VNJO1145DKO","ADJ9I7ZBFYFH7","3DFYDSXB2WMWAZWJRSN67LWQ0PPJUT","","img/set1/S2.jpg","68","2","random","68","true","random,structured_normal,structured_incentive","1,2,2,3","",""
"null","","html-keyboard-response","402","259256","0.0-331.0","3H8DHMCCWAX7Q1P9EK2VNJO1145DKO","ADJ9I7ZBFYFH7","3DFYDSXB2WMWAZWJRSN67LWQ0PPJUT","","<img src=""img/set1/S2.jpg"" width=""540"" height = ""360"" style=""border:16px solid orange"">","null","","","","","","","",""
"null","","html-keyboard-response","403","259258","0.0-332.0","3H8DHMCCWAX7Q1P9EK2VNJO1145DKO","ADJ9I7ZBFYFH7","3DFYDSXB2WMWAZWJRSN67LWQ0PPJUT","","","null","","","","","","","",""
"776.7000000476837","","image-keyboard-response","404","260036","0.0-333.0","3H8DHMCCWAX7Q1P9EK2VNJO1145DKO","ADJ9I7ZBFYFH7","3DFYDSXB2WMWAZWJRSN67LWQ0PPJUT","","img/set1/S3.jpg","72","3","random","72","true","random,structured_normal,structured_incentive","1,2,2,3","",""
"null","","html-keyboard-response","405","260388","0.0-334.0","3H8DHMCCWAX7Q1P9EK2VNJO1145DKO","ADJ9I7ZBFYFH7","3DFYDSXB2WMWAZWJRSN67LWQ0PPJUT","","<img src=""img/set1/S3.jpg"" width=""540"" height = ""360"" style=""border:16px solid orange"">","null","","","","","","","",""
"null","","html-keyboard-response","406","260391","0.0-335.0","3H8DHMCCWAX7Q1P9EK2VNJO1145DKO","ADJ9I7ZBFYFH7","3DFYDSXB2WMWAZWJRSN67LWQ0PPJUT","","","null","","","","","","","",""
"599.3999999761581","","image-keyboard-response","407","260991","0.0-336.0","3H8DHMCCWAX7Q1P9EK2VNJO1145DKO","ADJ9I7ZBFYFH7","3DFYDSXB2WMWAZWJRSN67LWQ0PPJUT","","img/set1/S4.jpg","74","4","random","74","true","random,structured_normal,structured_incentive","1,2,2,3","",""
"null","","html-keyboard-response","408","261343","0.0-337.0","3H8DHMCCWAX7Q1P9EK2VNJO1145DKO","ADJ9I7ZBFYFH7","3DFYDSXB2WMWAZWJRSN67LWQ0PPJUT","","<img src=""img/set1/S4.jpg"" width=""540"" height = ""360"" style=""border:16px solid orange"">","null","","","","","","","",""
"null","","html-keyboard-response","409","261345","0.0-338.0","3H8DHMCCWAX7Q1P9EK2VNJO1145DKO","ADJ9I7ZBFYFH7","3DFYDSXB2WMWAZWJRSN67LWQ0PPJUT","","","null","","","","","","","",""
"681.2999999523163","","image-keyboard-response","410","262028","0.0-339.0","3H8DHMCCWAX7Q1P9EK2VNJO1145DKO","ADJ9I7ZBFYFH7","3DFYDSXB2WMWAZWJRSN67LWQ0PPJUT","","img/set1/S2.jpg","68","2","random","68","true","random,structured_normal,structured_incentive","1,2,2,3","",""
"null","","html-keyboard-response","411","262380","0.0-340.0","3H8DHMCCWAX7Q1P9EK2VNJO1145DKO","ADJ9I7ZBFYFH7","3DFYDSXB2WMWAZWJRSN67LWQ0PPJUT","","<img src=""img/set1/S2.jpg"" width=""540"" height = ""360"" style=""border:16px solid orange"">","null","","","","","","","",""
"null","","html-keyboard-response","412","262382","0.0-341.0","3H8DHMCCWAX7Q1P9EK2VNJO1145DKO","ADJ9I7ZBFYFH7","3DFYDSXB2WMWAZWJRSN67LWQ0PPJUT","","","null","","","","","","","",""
"661","","image-keyboard-response","413","263043","0.0-342.0","3H8DHMCCWAX7Q1P9EK2VNJO1145DKO","ADJ9I7ZBFYFH7","3DFYDSXB2WMWAZWJRSN67LWQ0PPJUT","","img/set1/S3.jpg","72","3","random","72","true","random,structured_normal,structured_incentive","1,2,2,3","",""
"null","","html-keyboard-response","414","263395","0.0-343.0","3H8DHMCCWAX7Q1P9EK2VNJO1145DKO","ADJ9I7ZBFYFH7","3DFYDSXB2WMWAZWJRSN67LWQ0PPJUT","","<img src=""img/set1/S3.jpg"" width=""540"" height = ""360"" style=""border:16px solid orange"">","null","","","","","","","",""
