"rt","url","trial_type","trial_index","time_elapsed","internal_node_id","assignmentID","mturkID","hitID","view_history","stimulus","key_press","state","test_part","correct_response","correct","order_block","order_chunk","bonus","responses"
"7501.530000008643","consent.html","external-html","0","8233","0.0-0.0","3B2X28YI3X17CP60YKHOIAVJXO9B6A","AEWGY34WUIA32","3R5LWXWHR0UE010DORDQUF3E2FPGXE","","","","","","","","","","",""
"81084.26000003237","","instructions","1","89324","0.0-1.0","3B2X28YI3X17CP60YKHOIAVJXO9B6A","AEWGY34WUIA32","3R5LWXWHR0UE010DORDQUF3E2FPGXE","[{""page_index"":0,""viewing_time"":13258.710000023711},{""page_index"":1,""viewing_time"":5254.5350000145845},{""page_index"":2,""viewing_time"":9591.174999950454},{""page_index"":3,""viewing_time"":12728.675000020303},{""page_index"":4,""viewing_time"":6421.755000017583},{""page_index"":5,""viewing_time"":11669.73500000313},{""page_index"":6,""viewing_time"":8671.854999964125},{""page_index"":7,""viewing_time"":13467.33499999391}]","","","","","","","","","",""
"2428.2449999591336","","image-keyboard-response","2","91756","0.0-2.0-0.0","3B2X28YI3X17CP60YKHOIAVJXO9B6A","AEWGY34WUIA32","3R5LWXWHR0UE010DORDQUF3E2FPGXE","","img/practice/S1.jpg","83","1","practice","83","true","","","",""
"null","","html-keyboard-response","3","92064","0.0-2.0-1.0","3B2X28YI3X17CP60YKHOIAVJXO9B6A","AEWGY34WUIA32","3R5LWXWHR0UE010DORDQUF3E2FPGXE","","<img src=""img/practice/S1.jpg"" width=""540"" height = ""360"" style=""border:16px solid orange"">","null","","","","","","","",""
"null","","html-keyboard-response","4","92067","0.0-2.0-2.0","3B2X28YI3X17CP60YKHOIAVJXO9B6A","AEWGY34WUIA32","3R5LWXWHR0UE010DORDQUF3E2FPGXE","","","null","","","","","","","",""
"1118.445000029169","","image-keyboard-response","5","93188","0.0-2.0-0.1","3B2X28YI3X17CP60YKHOIAVJXO9B6A","AEWGY34WUIA32","3R5LWXWHR0UE010DORDQUF3E2FPGXE","","img/practice/S2.jpg","68","2","practice","68","true","","","",""
"null","","html-keyboard-response","6","93492","0.0-2.0-1.1","3B2X28YI3X17CP60YKHOIAVJXO9B6A","AEWGY34WUIA32","3R5LWXWHR0UE010DORDQUF3E2FPGXE","","<img src=""img/practice/S2.jpg"" width=""540"" height = ""360"" style=""border:16px solid orange"">","null","","","","","","","",""
"null","","html-keyboard-response","7","93495","0.0-2.0-2.1","3B2X28YI3X17CP60YKHOIAVJXO9B6A","AEWGY34WUIA32","3R5LWXWHR0UE010DORDQUF3E2FPGXE","","","null","","","","","","","",""
"915.1149999815971","","image-keyboard-response","8","94412","0.0-2.0-0.2","3B2X28YI3X17CP60YKHOIAVJXO9B6A","AEWGY34WUIA32","3R5LWXWHR0UE010DORDQUF3E2FPGXE","","img/practice/S3.jpg","72","3","practice","72","true","","","",""
"null","","html-keyboard-response","9","94718","0.0-2.0-1.2","3B2X28YI3X17CP60YKHOIAVJXO9B6A","AEWGY34WUIA32","3R5LWXWHR0UE010DORDQUF3E2FPGXE","","<img src=""img/practice/S3.jpg"" width=""540"" height = ""360"" style=""border:16px solid orange"">","null","","","","","","","",""
"null","","html-keyboard-response","10","94721","0.0-2.0-2.2","3B2X28YI3X17CP60YKHOIAVJXO9B6A","AEWGY34WUIA32","3R5LWXWHR0UE010DORDQUF3E2FPGXE","","","null","","","","","","","",""
"1064.7899999748915","","image-keyboard-response","11","95787","0.0-2.0-0.3","3B2X28YI3X17CP60YKHOIAVJXO9B6A","AEWGY34WUIA32","3R5LWXWHR0UE010DORDQUF3E2FPGXE","","img/practice/S4.jpg","74","4","practice","74","true","","","",""
"null","","html-keyboard-response","12","96091","0.0-2.0-1.3","3B2X28YI3X17CP60YKHOIAVJXO9B6A","AEWGY34WUIA32","3R5LWXWHR0UE010DORDQUF3E2FPGXE","","<img src=""img/practice/S4.jpg"" width=""540"" height = ""360"" style=""border:16px solid orange"">","null","","","","","","","",""
"null","","html-keyboard-response","13","96093","0.0-2.0-2.3","3B2X28YI3X17CP60YKHOIAVJXO9B6A","AEWGY34WUIA32","3R5LWXWHR0UE010DORDQUF3E2FPGXE","","","null","","","","","","","",""
"804.5399999828078","","image-keyboard-response","14","96899","0.0-2.0-0.4","3B2X28YI3X17CP60YKHOIAVJXO9B6A","AEWGY34WUIA32","3R5LWXWHR0UE010DORDQUF3E2FPGXE","","img/practice/S3.jpg","72","3","practice","72","true","","","",""
"null","","html-keyboard-response","15","97203","0.0-2.0-1.4","3B2X28YI3X17CP60YKHOIAVJXO9B6A","AEWGY34WUIA32","3R5LWXWHR0UE010DORDQUF3E2FPGXE","","<img src=""img/practice/S3.jpg"" width=""540"" height = ""360"" style=""border:16px solid orange"">","null","","","","","","","",""
"null","","html-keyboard-response","16","97205","0.0-2.0-2.4","3B2X28YI3X17CP60YKHOIAVJXO9B6A","AEWGY34WUIA32","3R5LWXWHR0UE010DORDQUF3E2FPGXE","","","null","","","","","","","",""
"500.7200000109151","","image-keyboard-response","17","97707","0.0-2.0-0.5","3B2X28YI3X17CP60YKHOIAVJXO9B6A","AEWGY34WUIA32","3R5LWXWHR0UE010DORDQUF3E2FPGXE","","img/practice/S4.jpg","74","4","practice","74","true","","","",""
"null","","html-keyboard-response","18","98013","0.0-2.0-1.5","3B2X28YI3X17CP60YKHOIAVJXO9B6A","AEWGY34WUIA32","3R5LWXWHR0UE010DORDQUF3E2FPGXE","","<img src=""img/practice/S4.jpg"" width=""540"" height = ""360"" style=""border:16px solid orange"">","null","","","","","","","",""
"null","","html-keyboard-response","19","98015","0.0-2.0-2.5","3B2X28YI3X17CP60YKHOIAVJXO9B6A","AEWGY34WUIA32","3R5LWXWHR0UE010DORDQUF3E2FPGXE","","","null","","","","","","","",""
"458.70000001741573","","image-keyboard-response","20","98476","0.0-2.0-0.6","3B2X28YI3X17CP60YKHOIAVJXO9B6A","AEWGY34WUIA32","3R5LWXWHR0UE010DORDQUF3E2FPGXE","","img/practice/S2.jpg","68","2","practice","68","true","","","",""
"null","","html-keyboard-response","21","98779","0.0-2.0-1.6","3B2X28YI3X17CP60YKHOIAVJXO9B6A","AEWGY34WUIA32","3R5LWXWHR0UE010DORDQUF3E2FPGXE","","<img src=""img/practice/S2.jpg"" width=""540"" height = ""360"" style=""border:16px solid orange"">","null","","","","","","","",""
"null","","html-keyboard-response","22","98781","0.0-2.0-2.6","3B2X28YI3X17CP60YKHOIAVJXO9B6A","AEWGY34WUIA32","3R5LWXWHR0UE010DORDQUF3E2FPGXE","","","null","","","","","","","",""
"581.2000000150874","","image-keyboard-response","23","99364","0.0-2.0-0.7","3B2X28YI3X17CP60YKHOIAVJXO9B6A","AEWGY34WUIA32","3R5LWXWHR0UE010DORDQUF3E2FPGXE","","img/practice/S1.jpg","83","1","practice","83","true","","","",""
"null","","html-keyboard-response","24","99667","0.0-2.0-1.7","3B2X28YI3X17CP60YKHOIAVJXO9B6A","AEWGY34WUIA32","3R5LWXWHR0UE010DORDQUF3E2FPGXE","","<img src=""img/practice/S1.jpg"" width=""540"" height = ""360"" style=""border:16px solid orange"">","null","","","","","","","",""
"null","","html-keyboard-response","25","99670","0.0-2.0-2.7","3B2X28YI3X17CP60YKHOIAVJXO9B6A","AEWGY34WUIA32","3R5LWXWHR0UE010DORDQUF3E2FPGXE","","","null","","","","","","","",""
"1691.8249999871477","","image-keyboard-response","26","101364","0.0-2.0-0.8","3B2X28YI3X17CP60YKHOIAVJXO9B6A","AEWGY34WUIA32","3R5LWXWHR0UE010DORDQUF3E2FPGXE","","img/practice/S1.jpg","83","1","practice","83","true","","","",""
"null","","html-keyboard-response","27","101671","0.0-2.0-1.8","3B2X28YI3X17CP60YKHOIAVJXO9B6A","AEWGY34WUIA32","3R5LWXWHR0UE010DORDQUF3E2FPGXE","","<img src=""img/practice/S1.jpg"" width=""540"" height = ""360"" style=""border:16px solid orange"">","null","","","","","","","",""
"null","","html-keyboard-response","28","101673","0.0-2.0-2.8","3B2X28YI3X17CP60YKHOIAVJXO9B6A","AEWGY34WUIA32","3R5LWXWHR0UE010DORDQUF3E2FPGXE","","","null","","","","","","","",""
"712.2899999958463","","image-keyboard-response","29","102388","0.0-2.0-0.9","3B2X28YI3X17CP60YKHOIAVJXO9B6A","AEWGY34WUIA32","3R5LWXWHR0UE010DORDQUF3E2FPGXE","","img/practice/S3.jpg","68","3","practice","72","false","","","",""
"null","","html-keyboard-response","30","102691","0.0-2.0-1.9","3B2X28YI3X17CP60YKHOIAVJXO9B6A","AEWGY34WUIA32","3R5LWXWHR0UE010DORDQUF3E2FPGXE","","<img src=""img/practice/S3.jpg"" width=""540"" height = ""360"">","null","","","","","","","",""
"null","","html-keyboard-response","31","102693","0.0-2.0-2.9","3B2X28YI3X17CP60YKHOIAVJXO9B6A","AEWGY34WUIA32","3R5LWXWHR0UE010DORDQUF3E2FPGXE","","","null","","","","","","","",""
"788.875000027474","","image-keyboard-response","32","103484","0.0-2.0-0.10","3B2X28YI3X17CP60YKHOIAVJXO9B6A","AEWGY34WUIA32","3R5LWXWHR0UE010DORDQUF3E2FPGXE","","img/practice/S2.jpg","72","2","practice","68","false","","","",""
"null","","html-keyboard-response","33","103786","0.0-2.0-1.10","3B2X28YI3X17CP60YKHOIAVJXO9B6A","AEWGY34WUIA32","3R5LWXWHR0UE010DORDQUF3E2FPGXE","","<img src=""img/practice/S2.jpg"" width=""540"" height = ""360"">","null","","","","","","","",""
"null","","html-keyboard-response","34","103788","0.0-2.0-2.10","3B2X28YI3X17CP60YKHOIAVJXO9B6A","AEWGY34WUIA32","3R5LWXWHR0UE010DORDQUF3E2FPGXE","","","null","","","","","","","",""
"557.8399999649264","","image-keyboard-response","35","104348","0.0-2.0-0.11","3B2X28YI3X17CP60YKHOIAVJXO9B6A","AEWGY34WUIA32","3R5LWXWHR0UE010DORDQUF3E2FPGXE","","img/practice/S4.jpg","74","4","practice","74","true","","","",""
"null","","html-keyboard-response","36","104650","0.0-2.0-1.11","3B2X28YI3X17CP60YKHOIAVJXO9B6A","AEWGY34WUIA32","3R5LWXWHR0UE010DORDQUF3E2FPGXE","","<img src=""img/practice/S4.jpg"" width=""540"" height = ""360"" style=""border:16px solid orange"">","null","","","","","","","",""
"null","","html-keyboard-response","37","104652","0.0-2.0-2.11","3B2X28YI3X17CP60YKHOIAVJXO9B6A","AEWGY34WUIA32","3R5LWXWHR0UE010DORDQUF3E2FPGXE","","","null","","","","","","","",""
"733.3550000330433","","image-keyboard-response","38","105388","0.0-2.0-0.12","3B2X28YI3X17CP60YKHOIAVJXO9B6A","AEWGY34WUIA32","3R5LWXWHR0UE010DORDQUF3E2FPGXE","","img/practice/S1.jpg","83","1","practice","83","true","","","",""
"null","","html-keyboard-response","39","105691","0.0-2.0-1.12","3B2X28YI3X17CP60YKHOIAVJXO9B6A","AEWGY34WUIA32","3R5LWXWHR0UE010DORDQUF3E2FPGXE","","<img src=""img/practice/S1.jpg"" width=""540"" height = ""360"" style=""border:16px solid orange"">","null","","","","","","","",""
"null","","html-keyboard-response","40","105694","0.0-2.0-2.12","3B2X28YI3X17CP60YKHOIAVJXO9B6A","AEWGY34WUIA32","3R5LWXWHR0UE010DORDQUF3E2FPGXE","","","null","","","","","","","",""
"363.71999996481463","","image-keyboard-response","41","106060","0.0-2.0-0.13","3B2X28YI3X17CP60YKHOIAVJXO9B6A","AEWGY34WUIA32","3R5LWXWHR0UE010DORDQUF3E2FPGXE","","img/practice/S3.jpg","83","3","practice","72","false","","","",""
"null","","html-keyboard-response","42","106363","0.0-2.0-1.13","3B2X28YI3X17CP60YKHOIAVJXO9B6A","AEWGY34WUIA32","3R5LWXWHR0UE010DORDQUF3E2FPGXE","","<img src=""img/practice/S3.jpg"" width=""540"" height = ""360"">","null","","","","","","","",""
"null","","html-keyboard-response","43","106366","0.0-2.0-2.13","3B2X28YI3X17CP60YKHOIAVJXO9B6A","AEWGY34WUIA32","3R5LWXWHR0UE010DORDQUF3E2FPGXE","","","null","","","","","","","",""
"572.0150000415742","","image-keyboard-response","44","106940","0.0-2.0-0.14","3B2X28YI3X17CP60YKHOIAVJXO9B6A","AEWGY34WUIA32","3R5LWXWHR0UE010DORDQUF3E2FPGXE","","img/practice/S2.jpg","83","2","practice","68","false","","","",""
"null","","html-keyboard-response","45","107245","0.0-2.0-1.14","3B2X28YI3X17CP60YKHOIAVJXO9B6A","AEWGY34WUIA32","3R5LWXWHR0UE010DORDQUF3E2FPGXE","","<img src=""img/practice/S2.jpg"" width=""540"" height = ""360"">","null","","","","","","","",""
"null","","html-keyboard-response","46","107248","0.0-2.0-2.14","3B2X28YI3X17CP60YKHOIAVJXO9B6A","AEWGY34WUIA32","3R5LWXWHR0UE010DORDQUF3E2FPGXE","","","null","","","","","","","",""
"497.85500002326444","","image-keyboard-response","47","107748","0.0-2.0-0.15","3B2X28YI3X17CP60YKHOIAVJXO9B6A","AEWGY34WUIA32","3R5LWXWHR0UE010DORDQUF3E2FPGXE","","img/practice/S4.jpg","68","4","practice","74","false","","","",""
"null","","html-keyboard-response","48","108055","0.0-2.0-1.15","3B2X28YI3X17CP60YKHOIAVJXO9B6A","AEWGY34WUIA32","3R5LWXWHR0UE010DORDQUF3E2FPGXE","","<img src=""img/practice/S4.jpg"" width=""540"" height = ""360"">","null","","","","","","","",""
"null","","html-keyboard-response","49","108058","0.0-2.0-2.15","3B2X28YI3X17CP60YKHOIAVJXO9B6A","AEWGY34WUIA32","3R5LWXWHR0UE010DORDQUF3E2FPGXE","","","null","","","","","","","",""
"495.0450000469573","","image-keyboard-response","50","108556","0.0-2.0-0.16","3B2X28YI3X17CP60YKHOIAVJXO9B6A","AEWGY34WUIA32","3R5LWXWHR0UE010DORDQUF3E2FPGXE","","img/practice/S2.jpg","74","2","practice","68","false","","","",""
"null","","html-keyboard-response","51","108862","0.0-2.0-1.16","3B2X28YI3X17CP60YKHOIAVJXO9B6A","AEWGY34WUIA32","3R5LWXWHR0UE010DORDQUF3E2FPGXE","","<img src=""img/practice/S2.jpg"" width=""540"" height = ""360"">","null","","","","","","","",""
"null","","html-keyboard-response","52","108865","0.0-2.0-2.16","3B2X28YI3X17CP60YKHOIAVJXO9B6A","AEWGY34WUIA32","3R5LWXWHR0UE010DORDQUF3E2FPGXE","","","null","","","","","","","",""
"393.15999997779727","","image-keyboard-response","53","109260","0.0-2.0-0.17","3B2X28YI3X17CP60YKHOIAVJXO9B6A","AEWGY34WUIA32","3R5LWXWHR0UE010DORDQUF3E2FPGXE","","img/practice/S3.jpg","72","3","practice","72","true","","","",""
"null","","html-keyboard-response","54","109563","0.0-2.0-1.17","3B2X28YI3X17CP60YKHOIAVJXO9B6A","AEWGY34WUIA32","3R5LWXWHR0UE010DORDQUF3E2FPGXE","","<img src=""img/practice/S3.jpg"" width=""540"" height = ""360"" style=""border:16px solid orange"">","null","","","","","","","",""
"null","","html-keyboard-response","55","109565","0.0-2.0-2.17","3B2X28YI3X17CP60YKHOIAVJXO9B6A","AEWGY34WUIA32","3R5LWXWHR0UE010DORDQUF3E2FPGXE","","","null","","","","","","","",""
"404.77000002283603","","image-keyboard-response","56","109972","0.0-2.0-0.18","3B2X28YI3X17CP60YKHOIAVJXO9B6A","AEWGY34WUIA32","3R5LWXWHR0UE010DORDQUF3E2FPGXE","","img/practice/S1.jpg","72","1","practice","83","false","","","",""
"null","","html-keyboard-response","57","110275","0.0-2.0-1.18","3B2X28YI3X17CP60YKHOIAVJXO9B6A","AEWGY34WUIA32","3R5LWXWHR0UE010DORDQUF3E2FPGXE","","<img src=""img/practice/S1.jpg"" width=""540"" height = ""360"">","null","","","","","","","",""
"null","","html-keyboard-response","58","110278","0.0-2.0-2.18","3B2X28YI3X17CP60YKHOIAVJXO9B6A","AEWGY34WUIA32","3R5LWXWHR0UE010DORDQUF3E2FPGXE","","","null","","","","","","","",""
"772.1249999594875","","image-keyboard-response","59","111052","0.0-2.0-0.19","3B2X28YI3X17CP60YKHOIAVJXO9B6A","AEWGY34WUIA32","3R5LWXWHR0UE010DORDQUF3E2FPGXE","","img/practice/S4.jpg","68","4","practice","74","false","","","",""
"null","","html-keyboard-response","60","111359","0.0-2.0-1.19","3B2X28YI3X17CP60YKHOIAVJXO9B6A","AEWGY34WUIA32","3R5LWXWHR0UE010DORDQUF3E2FPGXE","","<img src=""img/practice/S4.jpg"" width=""540"" height = ""360"">","null","","","","","","","",""
"null","","html-keyboard-response","61","111362","0.0-2.0-2.19","3B2X28YI3X17CP60YKHOIAVJXO9B6A","AEWGY34WUIA32","3R5LWXWHR0UE010DORDQUF3E2FPGXE","","","null","","","","","","","",""
"520.0949999853037","","image-keyboard-response","62","111884","0.0-2.0-0.20","3B2X28YI3X17CP60YKHOIAVJXO9B6A","AEWGY34WUIA32","3R5LWXWHR0UE010DORDQUF3E2FPGXE","","img/practice/S4.jpg","83","4","practice","74","false","","","",""
"null","","html-keyboard-response","63","112189","0.0-2.0-1.20","3B2X28YI3X17CP60YKHOIAVJXO9B6A","AEWGY34WUIA32","3R5LWXWHR0UE010DORDQUF3E2FPGXE","","<img src=""img/practice/S4.jpg"" width=""540"" height = ""360"">","null","","","","","","","",""
"null","","html-keyboard-response","64","112192","0.0-2.0-2.20","3B2X28YI3X17CP60YKHOIAVJXO9B6A","AEWGY34WUIA32","3R5LWXWHR0UE010DORDQUF3E2FPGXE","","","null","","","","","","","",""
"938.0300000193529","","image-keyboard-response","65","113132","0.0-2.0-0.21","3B2X28YI3X17CP60YKHOIAVJXO9B6A","AEWGY34WUIA32","3R5LWXWHR0UE010DORDQUF3E2FPGXE","","img/practice/S2.jpg","83","2","practice","68","false","","","",""
"null","","html-keyboard-response","66","113434","0.0-2.0-1.21","3B2X28YI3X17CP60YKHOIAVJXO9B6A","AEWGY34WUIA32","3R5LWXWHR0UE010DORDQUF3E2FPGXE","","<img src=""img/practice/S2.jpg"" width=""540"" height = ""360"">","null","","","","","","","",""
"null","","html-keyboard-response","67","113436","0.0-2.0-2.21","3B2X28YI3X17CP60YKHOIAVJXO9B6A","AEWGY34WUIA32","3R5LWXWHR0UE010DORDQUF3E2FPGXE","","","null","","","","","","","",""
"1117.8050000453368","","image-keyboard-response","68","114556","0.0-2.0-0.22","3B2X28YI3X17CP60YKHOIAVJXO9B6A","AEWGY34WUIA32","3R5LWXWHR0UE010DORDQUF3E2FPGXE","","img/practice/S3.jpg","74","3","practice","72","false","","","",""
"null","","html-keyboard-response","69","114864","0.0-2.0-1.22","3B2X28YI3X17CP60YKHOIAVJXO9B6A","AEWGY34WUIA32","3R5LWXWHR0UE010DORDQUF3E2FPGXE","","<img src=""img/practice/S3.jpg"" width=""540"" height = ""360"">","null","","","","","","","",""
"null","","html-keyboard-response","70","114866","0.0-2.0-2.22","3B2X28YI3X17CP60YKHOIAVJXO9B6A","AEWGY34WUIA32","3R5LWXWHR0UE010DORDQUF3E2FPGXE","","","null","","","","","","","",""
"872.2500000149012","","image-keyboard-response","71","115740","0.0-2.0-0.23","3B2X28YI3X17CP60YKHOIAVJXO9B6A","AEWGY34WUIA32","3R5LWXWHR0UE010DORDQUF3E2FPGXE","","img/practice/S1.jpg","83","1","practice","83","true","","","",""
"null","","html-keyboard-response","72","116043","0.0-2.0-1.23","3B2X28YI3X17CP60YKHOIAVJXO9B6A","AEWGY34WUIA32","3R5LWXWHR0UE010DORDQUF3E2FPGXE","","<img src=""img/practice/S1.jpg"" width=""540"" height = ""360"" style=""border:16px solid orange"">","null","","","","","","","",""
"null","","html-keyboard-response","73","116045","0.0-2.0-2.23","3B2X28YI3X17CP60YKHOIAVJXO9B6A","AEWGY34WUIA32","3R5LWXWHR0UE010DORDQUF3E2FPGXE","","","null","","","","","","","",""
"7237.140000041109","","instructions","74","123284","0.0-3.0","3B2X28YI3X17CP60YKHOIAVJXO9B6A","AEWGY34WUIA32","3R5LWXWHR0UE010DORDQUF3E2FPGXE","[{""page_index"":0,""viewing_time"":7236.705000046641}]","","","","","","","","","",""
"9957.969999988563","","instructions","75","133243","0.0-4.0","3B2X28YI3X17CP60YKHOIAVJXO9B6A","AEWGY34WUIA32","3R5LWXWHR0UE010DORDQUF3E2FPGXE","[{""page_index"":0,""viewing_time"":9957.425000029616}]","","","","","","","","","",""
"5798.565000004601","","instructions","76","139043","0.0-5.0","3B2X28YI3X17CP60YKHOIAVJXO9B6A","AEWGY34WUIA32","3R5LWXWHR0UE010DORDQUF3E2FPGXE","[{""page_index"":0,""viewing_time"":5798.06500003906}]","","","","","","","","","",""
"null","","image-keyboard-response","77","141547","0.0-6.0","3B2X28YI3X17CP60YKHOIAVJXO9B6A","AEWGY34WUIA32","3R5LWXWHR0UE010DORDQUF3E2FPGXE","","img/set1/S3.jpg","null","3","structured_normal","72","false","structured_normal,random,structured_incentive","1,2,2,3","",""
"null","","html-keyboard-response","78","141912","0.0-7.0","3B2X28YI3X17CP60YKHOIAVJXO9B6A","AEWGY34WUIA32","3R5LWXWHR0UE010DORDQUF3E2FPGXE","","<img src=""img/set1/S3.jpg"" width=""540"" height = ""360"">","null","","","","","","","",""
"null","","html-keyboard-response","79","141914","0.0-8.0","3B2X28YI3X17CP60YKHOIAVJXO9B6A","AEWGY34WUIA32","3R5LWXWHR0UE010DORDQUF3E2FPGXE","","","null","","","","","","","",""
"1544.5349999936298","","image-keyboard-response","80","143461","0.0-9.0","3B2X28YI3X17CP60YKHOIAVJXO9B6A","AEWGY34WUIA32","3R5LWXWHR0UE010DORDQUF3E2FPGXE","","img/set1/S2.jpg","74","2","structured_normal","68","false","structured_normal,random,structured_incentive","1,2,2,3","",""
"null","","html-keyboard-response","81","143814","0.0-10.0","3B2X28YI3X17CP60YKHOIAVJXO9B6A","AEWGY34WUIA32","3R5LWXWHR0UE010DORDQUF3E2FPGXE","","<img src=""img/set1/S2.jpg"" width=""540"" height = ""360"">","null","","","","","","","",""
"null","","html-keyboard-response","82","143816","0.0-11.0","3B2X28YI3X17CP60YKHOIAVJXO9B6A","AEWGY34WUIA32","3R5LWXWHR0UE010DORDQUF3E2FPGXE","","","null","","","","","","","",""
"1308.164999994915","","image-keyboard-response","83","145126","0.0-12.0","3B2X28YI3X17CP60YKHOIAVJXO9B6A","AEWGY34WUIA32","3R5LWXWHR0UE010DORDQUF3E2FPGXE","","img/set1/S2.jpg","68","2","structured_normal","68","true","structured_normal,random,structured_incentive","1,2,2,3","",""
"null","","html-keyboard-response","84","145480","0.0-13.0","3B2X28YI3X17CP60YKHOIAVJXO9B6A","AEWGY34WUIA32","3R5LWXWHR0UE010DORDQUF3E2FPGXE","","<img src=""img/set1/S2.jpg"" width=""540"" height = ""360"" style=""border:16px solid orange"">","null","","","","","","","",""
"null","","html-keyboard-response","85","145483","0.0-14.0","3B2X28YI3X17CP60YKHOIAVJXO9B6A","AEWGY34WUIA32","3R5LWXWHR0UE010DORDQUF3E2FPGXE","","","null","","","","","","","",""
"1200.8700000005774","","image-keyboard-response","86","146685","0.0-15.0","3B2X28YI3X17CP60YKHOIAVJXO9B6A","AEWGY34WUIA32","3R5LWXWHR0UE010DORDQUF3E2FPGXE","","img/set1/S3.jpg","83","3","structured_normal","72","false","structured_normal,random,structured_incentive","1,2,2,3","",""
"null","","html-keyboard-response","87","147041","0.0-16.0","3B2X28YI3X17CP60YKHOIAVJXO9B6A","AEWGY34WUIA32","3R5LWXWHR0UE010DORDQUF3E2FPGXE","","<img src=""img/set1/S3.jpg"" width=""540"" height = ""360"">","null","","","","","","","",""
"null","","html-keyboard-response","88","147043","0.0-17.0","3B2X28YI3X17CP60YKHOIAVJXO9B6A","AEWGY34WUIA32","3R5LWXWHR0UE010DORDQUF3E2FPGXE","","","null","","","","","","","",""
"2440.6249999883585","","image-keyboard-response","89","149486","0.0-18.0","3B2X28YI3X17CP60YKHOIAVJXO9B6A","AEWGY34WUIA32","3R5LWXWHR0UE010DORDQUF3E2FPGXE","","img/set1/S4.jpg","72","4","structured_normal","74","false","structured_normal,random,structured_incentive","1,2,2,3","",""
"null","","html-keyboard-response","90","149843","0.0-19.0","3B2X28YI3X17CP60YKHOIAVJXO9B6A","AEWGY34WUIA32","3R5LWXWHR0UE010DORDQUF3E2FPGXE","","<img src=""img/set1/S4.jpg"" width=""540"" height = ""360"">","null","","","","","","","",""
"null","","html-keyboard-response","91","149846","0.0-20.0","3B2X28YI3X17CP60YKHOIAVJXO9B6A","AEWGY34WUIA32","3R5LWXWHR0UE010DORDQUF3E2FPGXE","","","null","","","","","","","",""
"1757.2800000198185","","image-keyboard-response","92","151606","0.0-21.0","3B2X28YI3X17CP60YKHOIAVJXO9B6A","AEWGY34WUIA32","3R5LWXWHR0UE010DORDQUF3E2FPGXE","","img/set1/S1.jpg","72","1","structured_normal","83","false","structured_normal,random,structured_incentive","1,2,2,3","",""
"null","","html-keyboard-response","93","151961","0.0-22.0","3B2X28YI3X17CP60YKHOIAVJXO9B6A","AEWGY34WUIA32","3R5LWXWHR0UE010DORDQUF3E2FPGXE","","<img src=""img/set1/S1.jpg"" width=""540"" height = ""360"">","null","","","","","","","",""
"null","","html-keyboard-response","94","151963","0.0-23.0","3B2X28YI3X17CP60YKHOIAVJXO9B6A","AEWGY34WUIA32","3R5LWXWHR0UE010DORDQUF3E2FPGXE","","","null","","","","","","","",""
"1437.3999999952503","","image-keyboard-response","95","153402","0.0-24.0","3B2X28YI3X17CP60YKHOIAVJXO9B6A","AEWGY34WUIA32","3R5LWXWHR0UE010DORDQUF3E2FPGXE","","img/set1/S2.jpg","83","2","structured_normal","68","false","structured_normal,random,structured_incentive","1,2,2,3","",""
"null","","html-keyboard-response","96","153757","0.0-25.0","3B2X28YI3X17CP60YKHOIAVJXO9B6A","AEWGY34WUIA32","3R5LWXWHR0UE010DORDQUF3E2FPGXE","","<img src=""img/set1/S2.jpg"" width=""540"" height = ""360"">","null","","","","","","","",""
"null","","html-keyboard-response","97","153761","0.0-26.0","3B2X28YI3X17CP60YKHOIAVJXO9B6A","AEWGY34WUIA32","3R5LWXWHR0UE010DORDQUF3E2FPGXE","","","null","","","","","","","",""
"null","","image-keyboard-response","98","156265","0.0-27.0","3B2X28YI3X17CP60YKHOIAVJXO9B6A","AEWGY34WUIA32","3R5LWXWHR0UE010DORDQUF3E2FPGXE","","img/set1/S3.jpg","null","3","structured_normal","72","false","structured_normal,random,structured_incentive","1,2,2,3","",""
"null","","html-keyboard-response","99","156618","0.0-28.0","3B2X28YI3X17CP60YKHOIAVJXO9B6A","AEWGY34WUIA32","3R5LWXWHR0UE010DORDQUF3E2FPGXE","","<img src=""img/set1/S3.jpg"" width=""540"" height = ""360"">","null","","","","","","","",""
"null","","html-keyboard-response","100","156623","0.0-29.0","3B2X28YI3X17CP60YKHOIAVJXO9B6A","AEWGY34WUIA32","3R5LWXWHR0UE010DORDQUF3E2FPGXE","","","null","","","","","","","",""
"20.994999969843775","","image-keyboard-response","101","156646","0.0-30.0","3B2X28YI3X17CP60YKHOIAVJXO9B6A","AEWGY34WUIA32","3R5LWXWHR0UE010DORDQUF3E2FPGXE","","img/set1/S2.jpg","74","2","structured_normal","68","false","structured_normal,random,structured_incentive","1,2,2,3","",""
"null","","html-keyboard-response","102","157000","0.0-31.0","3B2X28YI3X17CP60YKHOIAVJXO9B6A","AEWGY34WUIA32","3R5LWXWHR0UE010DORDQUF3E2FPGXE","","<img src=""img/set1/S2.jpg"" width=""540"" height = ""360"">","null","","","","","","","",""
"null","","html-keyboard-response","103","157003","0.0-32.0","3B2X28YI3X17CP60YKHOIAVJXO9B6A","AEWGY34WUIA32","3R5LWXWHR0UE010DORDQUF3E2FPGXE","","","null","","","","","","","",""
"1192.9249999811873","","image-keyboard-response","104","158198","0.0-33.0","3B2X28YI3X17CP60YKHOIAVJXO9B6A","AEWGY34WUIA32","3R5LWXWHR0UE010DORDQUF3E2FPGXE","","img/set1/S1.jpg","72","1","structured_normal","83","false","structured_normal,random,structured_incentive","1,2,2,3","",""
"null","","html-keyboard-response","105","158553","0.0-34.0","3B2X28YI3X17CP60YKHOIAVJXO9B6A","AEWGY34WUIA32","3R5LWXWHR0UE010DORDQUF3E2FPGXE","","<img src=""img/set1/S1.jpg"" width=""540"" height = ""360"">","null","","","","","","","",""
"null","","html-keyboard-response","106","158556","0.0-35.0","3B2X28YI3X17CP60YKHOIAVJXO9B6A","AEWGY34WUIA32","3R5LWXWHR0UE010DORDQUF3E2FPGXE","","","null","","","","","","","",""
"1137.3050000402145","","image-keyboard-response","107","159695","0.0-36.0","3B2X28YI3X17CP60YKHOIAVJXO9B6A","AEWGY34WUIA32","3R5LWXWHR0UE010DORDQUF3E2FPGXE","","img/set1/S3.jpg","74","3","structured_normal","72","false","structured_normal,random,structured_incentive","1,2,2,3","",""
"null","","html-keyboard-response","108","160050","0.0-37.0","3B2X28YI3X17CP60YKHOIAVJXO9B6A","AEWGY34WUIA32","3R5LWXWHR0UE010DORDQUF3E2FPGXE","","<img src=""img/set1/S3.jpg"" width=""540"" height = ""360"">","null","","","","","","","",""
"null","","html-keyboard-response","109","160052","0.0-38.0","3B2X28YI3X17CP60YKHOIAVJXO9B6A","AEWGY34WUIA32","3R5LWXWHR0UE010DORDQUF3E2FPGXE","","","null","","","","","","","",""
"1327.9399999883026","","image-keyboard-response","110","161382","0.0-39.0","3B2X28YI3X17CP60YKHOIAVJXO9B6A","AEWGY34WUIA32","3R5LWXWHR0UE010DORDQUF3E2FPGXE","","img/set1/S1.jpg","83","1","structured_normal","83","true","structured_normal,random,structured_incentive","1,2,2,3","",""
"null","","html-keyboard-response","111","161737","0.0-40.0","3B2X28YI3X17CP60YKHOIAVJXO9B6A","AEWGY34WUIA32","3R5LWXWHR0UE010DORDQUF3E2FPGXE","","<img src=""img/set1/S1.jpg"" width=""540"" height = ""360"" style=""border:16px solid orange"">","null","","","","","","","",""
"null","","html-keyboard-response","112","161739","0.0-41.0","3B2X28YI3X17CP60YKHOIAVJXO9B6A","AEWGY34WUIA32","3R5LWXWHR0UE010DORDQUF3E2FPGXE","","","null","","","","","","","",""
"888.8199999928474","","image-keyboard-response","113","162630","0.0-42.0","3B2X28YI3X17CP60YKHOIAVJXO9B6A","AEWGY34WUIA32","3R5LWXWHR0UE010DORDQUF3E2FPGXE","","img/set1/S2.jpg","68","2","structured_normal","68","true","structured_normal,random,structured_incentive","1,2,2,3","",""
"null","","html-keyboard-response","114","162985","0.0-43.0","3B2X28YI3X17CP60YKHOIAVJXO9B6A","AEWGY34WUIA32","3R5LWXWHR0UE010DORDQUF3E2FPGXE","","<img src=""img/set1/S2.jpg"" width=""540"" height = ""360"" style=""border:16px solid orange"">","null","","","","","","","",""
"null","","html-keyboard-response","115","162988","0.0-44.0","3B2X28YI3X17CP60YKHOIAVJXO9B6A","AEWGY34WUIA32","3R5LWXWHR0UE010DORDQUF3E2FPGXE","","","null","","","","","","","",""
"776.2750000110827","","image-keyboard-response","116","163766","0.0-45.0","3B2X28YI3X17CP60YKHOIAVJXO9B6A","AEWGY34WUIA32","3R5LWXWHR0UE010DORDQUF3E2FPGXE","","img/set1/S4.jpg","72","4","structured_normal","74","false","structured_normal,random,structured_incentive","1,2,2,3","",""
"null","","html-keyboard-response","117","164121","0.0-46.0","3B2X28YI3X17CP60YKHOIAVJXO9B6A","AEWGY34WUIA32","3R5LWXWHR0UE010DORDQUF3E2FPGXE","","<img src=""img/set1/S4.jpg"" width=""540"" height = ""360"">","null","","","","","","","",""
"null","","html-keyboard-response","118","164123","0.0-47.0","3B2X28YI3X17CP60YKHOIAVJXO9B6A","AEWGY34WUIA32","3R5LWXWHR0UE010DORDQUF3E2FPGXE","","","null","","","","","","","",""
"841.0000000149012","","image-keyboard-response","119","164966","0.0-48.0","3B2X28YI3X17CP60YKHOIAVJXO9B6A","AEWGY34WUIA32","3R5LWXWHR0UE010DORDQUF3E2FPGXE","","img/set1/S4.jpg","74","4","structured_normal","74","true","structured_normal,random,structured_incentive","1,2,2,3","",""
"null","","html-keyboard-response","120","165322","0.0-49.0","3B2X28YI3X17CP60YKHOIAVJXO9B6A","AEWGY34WUIA32","3R5LWXWHR0UE010DORDQUF3E2FPGXE","","<img src=""img/set1/S4.jpg"" width=""540"" height = ""360"" style=""border:16px solid orange"">","null","","","","","","","",""
"null","","html-keyboard-response","121","165324","0.0-50.0","3B2X28YI3X17CP60YKHOIAVJXO9B6A","AEWGY34WUIA32","3R5LWXWHR0UE010DORDQUF3E2FPGXE","","","null","","","","","","","",""
"1408.5349999950267","","image-keyboard-response","122","166734","0.0-51.0","3B2X28YI3X17CP60YKHOIAVJXO9B6A","AEWGY34WUIA32","3R5LWXWHR0UE010DORDQUF3E2FPGXE","","img/set1/S3.jpg","74","3","structured_normal","72","false","structured_normal,random,structured_incentive","1,2,2,3","",""
"null","","html-keyboard-response","123","167091","0.0-52.0","3B2X28YI3X17CP60YKHOIAVJXO9B6A","AEWGY34WUIA32","3R5LWXWHR0UE010DORDQUF3E2FPGXE","","<img src=""img/set1/S3.jpg"" width=""540"" height = ""360"">","null","","","","","","","",""
"null","","html-keyboard-response","124","167093","0.0-53.0","3B2X28YI3X17CP60YKHOIAVJXO9B6A","AEWGY34WUIA32","3R5LWXWHR0UE010DORDQUF3E2FPGXE","","","null","","","","","","","",""
"1399.4149999925867","","image-keyboard-response","125","168494","0.0-54.0","3B2X28YI3X17CP60YKHOIAVJXO9B6A","AEWGY34WUIA32","3R5LWXWHR0UE010DORDQUF3E2FPGXE","","img/set1/S1.jpg","74","1","structured_normal","83","false","structured_normal,random,structured_incentive","1,2,2,3","",""
"null","","html-keyboard-response","126","168849","0.0-55.0","3B2X28YI3X17CP60YKHOIAVJXO9B6A","AEWGY34WUIA32","3R5LWXWHR0UE010DORDQUF3E2FPGXE","","<img src=""img/set1/S1.jpg"" width=""540"" height = ""360"">","null","","","","","","","",""
"null","","html-keyboard-response","127","168851","0.0-56.0","3B2X28YI3X17CP60YKHOIAVJXO9B6A","AEWGY34WUIA32","3R5LWXWHR0UE010DORDQUF3E2FPGXE","","","null","","","","","","","",""
"769.5400000084192","","image-keyboard-response","128","169623","0.0-57.0","3B2X28YI3X17CP60YKHOIAVJXO9B6A","AEWGY34WUIA32","3R5LWXWHR0UE010DORDQUF3E2FPGXE","","img/set1/S2.jpg","83","2","structured_normal","68","false","structured_normal,random,structured_incentive","1,2,2,3","",""
"null","","html-keyboard-response","129","169978","0.0-58.0","3B2X28YI3X17CP60YKHOIAVJXO9B6A","AEWGY34WUIA32","3R5LWXWHR0UE010DORDQUF3E2FPGXE","","<img src=""img/set1/S2.jpg"" width=""540"" height = ""360"">","null","","","","","","","",""
"null","","html-keyboard-response","130","169980","0.0-59.0","3B2X28YI3X17CP60YKHOIAVJXO9B6A","AEWGY34WUIA32","3R5LWXWHR0UE010DORDQUF3E2FPGXE","","","null","","","","","","","",""
"800.7649999926798","","image-keyboard-response","131","170782","0.0-60.0","3B2X28YI3X17CP60YKHOIAVJXO9B6A","AEWGY34WUIA32","3R5LWXWHR0UE010DORDQUF3E2FPGXE","","img/set1/S1.jpg","72","1","structured_normal","83","false","structured_normal,random,structured_incentive","1,2,2,3","",""
"null","","html-keyboard-response","132","171137","0.0-61.0","3B2X28YI3X17CP60YKHOIAVJXO9B6A","AEWGY34WUIA32","3R5LWXWHR0UE010DORDQUF3E2FPGXE","","<img src=""img/set1/S1.jpg"" width=""540"" height = ""360"">","null","","","","","","","",""
"null","","html-keyboard-response","133","171140","0.0-62.0","3B2X28YI3X17CP60YKHOIAVJXO9B6A","AEWGY34WUIA32","3R5LWXWHR0UE010DORDQUF3E2FPGXE","","","null","","","","","","","",""
"928.4849999821745","","image-keyboard-response","134","172070","0.0-63.0","3B2X28YI3X17CP60YKHOIAVJXO9B6A","AEWGY34WUIA32","3R5LWXWHR0UE010DORDQUF3E2FPGXE","","img/set1/S2.jpg","68","2","structured_normal","68","true","structured_normal,random,structured_incentive","1,2,2,3","",""
"null","","html-keyboard-response","135","172425","0.0-64.0","3B2X28YI3X17CP60YKHOIAVJXO9B6A","AEWGY34WUIA32","3R5LWXWHR0UE010DORDQUF3E2FPGXE","","<img src=""img/set1/S2.jpg"" width=""540"" height = ""360"" style=""border:16px solid orange"">","null","","","","","","","",""
"null","","html-keyboard-response","136","172427","0.0-65.0","3B2X28YI3X17CP60YKHOIAVJXO9B6A","AEWGY34WUIA32","3R5LWXWHR0UE010DORDQUF3E2FPGXE","","","null","","","","","","","",""
"937.0950000011362","","image-keyboard-response","137","173366","0.0-66.0","3B2X28YI3X17CP60YKHOIAVJXO9B6A","AEWGY34WUIA32","3R5LWXWHR0UE010DORDQUF3E2FPGXE","","img/set1/S1.jpg","83","1","structured_normal","83","true","structured_normal,random,structured_incentive","1,2,2,3","",""
"null","","html-keyboard-response","138","173722","0.0-67.0","3B2X28YI3X17CP60YKHOIAVJXO9B6A","AEWGY34WUIA32","3R5LWXWHR0UE010DORDQUF3E2FPGXE","","<img src=""img/set1/S1.jpg"" width=""540"" height = ""360"" style=""border:16px solid orange"">","null","","","","","","","",""
"null","","html-keyboard-response","139","173725","0.0-68.0","3B2X28YI3X17CP60YKHOIAVJXO9B6A","AEWGY34WUIA32","3R5LWXWHR0UE010DORDQUF3E2FPGXE","","","null","","","","","","","",""
"895.3050000127405","","image-keyboard-response","140","174622","0.0-69.0","3B2X28YI3X17CP60YKHOIAVJXO9B6A","AEWGY34WUIA32","3R5LWXWHR0UE010DORDQUF3E2FPGXE","","img/set1/S3.jpg","72","3","structured_normal","72","true","structured_normal,random,structured_incentive","1,2,2,3","",""
"null","","html-keyboard-response","141","174976","0.0-70.0","3B2X28YI3X17CP60YKHOIAVJXO9B6A","AEWGY34WUIA32","3R5LWXWHR0UE010DORDQUF3E2FPGXE","","<img src=""img/set1/S3.jpg"" width=""540"" height = ""360"" style=""border:16px solid orange"">","null","","","","","","","",""
"null","","html-keyboard-response","142","174978","0.0-71.0","3B2X28YI3X17CP60YKHOIAVJXO9B6A","AEWGY34WUIA32","3R5LWXWHR0UE010DORDQUF3E2FPGXE","","","null","","","","","","","",""
"705.3200000082143","","image-keyboard-response","143","175687","0.0-72.0","3B2X28YI3X17CP60YKHOIAVJXO9B6A","AEWGY34WUIA32","3R5LWXWHR0UE010DORDQUF3E2FPGXE","","img/set1/S1.jpg","74","1","structured_normal","83","false","structured_normal,random,structured_incentive","1,2,2,3","",""
"null","","html-keyboard-response","144","176042","0.0-73.0","3B2X28YI3X17CP60YKHOIAVJXO9B6A","AEWGY34WUIA32","3R5LWXWHR0UE010DORDQUF3E2FPGXE","","<img src=""img/set1/S1.jpg"" width=""540"" height = ""360"">","null","","","","","","","",""
"null","","html-keyboard-response","145","176044","0.0-74.0","3B2X28YI3X17CP60YKHOIAVJXO9B6A","AEWGY34WUIA32","3R5LWXWHR0UE010DORDQUF3E2FPGXE","","","null","","","","","","","",""
"1120.6849999725819","","image-keyboard-response","146","177167","0.0-75.0","3B2X28YI3X17CP60YKHOIAVJXO9B6A","AEWGY34WUIA32","3R5LWXWHR0UE010DORDQUF3E2FPGXE","","img/set1/S3.jpg","72","3","structured_normal","72","true","structured_normal,random,structured_incentive","1,2,2,3","",""
"null","","html-keyboard-response","147","177522","0.0-76.0","3B2X28YI3X17CP60YKHOIAVJXO9B6A","AEWGY34WUIA32","3R5LWXWHR0UE010DORDQUF3E2FPGXE","","<img src=""img/set1/S3.jpg"" width=""540"" height = ""360"" style=""border:16px solid orange"">","null","","","","","","","",""
"null","","html-keyboard-response","148","177524","0.0-77.0","3B2X28YI3X17CP60YKHOIAVJXO9B6A","AEWGY34WUIA32","3R5LWXWHR0UE010DORDQUF3E2FPGXE","","","null","","","","","","","",""
"865.1499999687076","","image-keyboard-response","149","178391","0.0-78.0","3B2X28YI3X17CP60YKHOIAVJXO9B6A","AEWGY34WUIA32","3R5LWXWHR0UE010DORDQUF3E2FPGXE","","img/set1/S4.jpg","74","4","structured_normal","74","true","structured_normal,random,structured_incentive","1,2,2,3","",""
"null","","html-keyboard-response","150","178748","0.0-79.0","3B2X28YI3X17CP60YKHOIAVJXO9B6A","AEWGY34WUIA32","3R5LWXWHR0UE010DORDQUF3E2FPGXE","","<img src=""img/set1/S4.jpg"" width=""540"" height = ""360"" style=""border:16px solid orange"">","null","","","","","","","",""
"null","","html-keyboard-response","151","178750","0.0-80.0","3B2X28YI3X17CP60YKHOIAVJXO9B6A","AEWGY34WUIA32","3R5LWXWHR0UE010DORDQUF3E2FPGXE","","","null","","","","","","","",""
"1542.3099999898113","","image-keyboard-response","152","180294","0.0-81.0","3B2X28YI3X17CP60YKHOIAVJXO9B6A","AEWGY34WUIA32","3R5LWXWHR0UE010DORDQUF3E2FPGXE","","img/set1/S1.jpg","72","1","structured_normal","83","false","structured_normal,random,structured_incentive","1,2,2,3","",""
"null","","html-keyboard-response","153","180650","0.0-82.0","3B2X28YI3X17CP60YKHOIAVJXO9B6A","AEWGY34WUIA32","3R5LWXWHR0UE010DORDQUF3E2FPGXE","","<img src=""img/set1/S1.jpg"" width=""540"" height = ""360"">","null","","","","","","","",""
"null","","html-keyboard-response","154","180652","0.0-83.0","3B2X28YI3X17CP60YKHOIAVJXO9B6A","AEWGY34WUIA32","3R5LWXWHR0UE010DORDQUF3E2FPGXE","","","null","","","","","","","",""
"728.934999962803","","image-keyboard-response","155","181383","0.0-84.0","3B2X28YI3X17CP60YKHOIAVJXO9B6A","AEWGY34WUIA32","3R5LWXWHR0UE010DORDQUF3E2FPGXE","","img/set1/S2.jpg","68","2","structured_normal","68","true","structured_normal,random,structured_incentive","1,2,2,3","",""
"null","","html-keyboard-response","156","181738","0.0-85.0","3B2X28YI3X17CP60YKHOIAVJXO9B6A","AEWGY34WUIA32","3R5LWXWHR0UE010DORDQUF3E2FPGXE","","<img src=""img/set1/S2.jpg"" width=""540"" height = ""360"" style=""border:16px solid orange"">","null","","","","","","","",""
"null","","html-keyboard-response","157","181741","0.0-86.0","3B2X28YI3X17CP60YKHOIAVJXO9B6A","AEWGY34WUIA32","3R5LWXWHR0UE010DORDQUF3E2FPGXE","","","null","","","","","","","",""
"960.0900000077672","","image-keyboard-response","158","182703","0.0-87.0","3B2X28YI3X17CP60YKHOIAVJXO9B6A","AEWGY34WUIA32","3R5LWXWHR0UE010DORDQUF3E2FPGXE","","img/set1/S4.jpg","72","4","structured_normal","74","false","structured_normal,random,structured_incentive","1,2,2,3","",""
"null","","html-keyboard-response","159","183058","0.0-88.0","3B2X28YI3X17CP60YKHOIAVJXO9B6A","AEWGY34WUIA32","3R5LWXWHR0UE010DORDQUF3E2FPGXE","","<img src=""img/set1/S4.jpg"" width=""540"" height = ""360"">","null","","","","","","","",""
"null","","html-keyboard-response","160","183063","0.0-89.0","3B2X28YI3X17CP60YKHOIAVJXO9B6A","AEWGY34WUIA32","3R5LWXWHR0UE010DORDQUF3E2FPGXE","","","null","","","","","","","",""
"1085.4200000176206","","image-keyboard-response","161","184151","0.0-90.0","3B2X28YI3X17CP60YKHOIAVJXO9B6A","AEWGY34WUIA32","3R5LWXWHR0UE010DORDQUF3E2FPGXE","","img/set1/S1.jpg","83","1","structured_normal","83","true","structured_normal,random,structured_incentive","1,2,2,3","",""
"null","","html-keyboard-response","162","184506","0.0-91.0","3B2X28YI3X17CP60YKHOIAVJXO9B6A","AEWGY34WUIA32","3R5LWXWHR0UE010DORDQUF3E2FPGXE","","<img src=""img/set1/S1.jpg"" width=""540"" height = ""360"" style=""border:16px solid orange"">","null","","","","","","","",""
"null","","html-keyboard-response","163","184508","0.0-92.0","3B2X28YI3X17CP60YKHOIAVJXO9B6A","AEWGY34WUIA32","3R5LWXWHR0UE010DORDQUF3E2FPGXE","","","null","","","","","","","",""
"976.2899999623187","","image-keyboard-response","164","185487","0.0-93.0","3B2X28YI3X17CP60YKHOIAVJXO9B6A","AEWGY34WUIA32","3R5LWXWHR0UE010DORDQUF3E2FPGXE","","img/set1/S2.jpg","68","2","structured_normal","68","true","structured_normal,random,structured_incentive","1,2,2,3","",""
"null","","html-keyboard-response","165","185842","0.0-94.0","3B2X28YI3X17CP60YKHOIAVJXO9B6A","AEWGY34WUIA32","3R5LWXWHR0UE010DORDQUF3E2FPGXE","","<img src=""img/set1/S2.jpg"" width=""540"" height = ""360"" style=""border:16px solid orange"">","null","","","","","","","",""
"null","","html-keyboard-response","166","185844","0.0-95.0","3B2X28YI3X17CP60YKHOIAVJXO9B6A","AEWGY34WUIA32","3R5LWXWHR0UE010DORDQUF3E2FPGXE","","","null","","","","","","","",""
"505.3150000167079","","image-keyboard-response","167","186351","0.0-96.0","3B2X28YI3X17CP60YKHOIAVJXO9B6A","AEWGY34WUIA32","3R5LWXWHR0UE010DORDQUF3E2FPGXE","","img/set1/S2.jpg","68","2","structured_normal","68","true","structured_normal,random,structured_incentive","1,2,2,3","",""
"null","","html-keyboard-response","168","186706","0.0-97.0","3B2X28YI3X17CP60YKHOIAVJXO9B6A","AEWGY34WUIA32","3R5LWXWHR0UE010DORDQUF3E2FPGXE","","<img src=""img/set1/S2.jpg"" width=""540"" height = ""360"" style=""border:16px solid orange"">","null","","","","","","","",""
"null","","html-keyboard-response","169","186708","0.0-98.0","3B2X28YI3X17CP60YKHOIAVJXO9B6A","AEWGY34WUIA32","3R5LWXWHR0UE010DORDQUF3E2FPGXE","","","null","","","","","","","",""
"1032.565000001341","","image-keyboard-response","170","187743","0.0-99.0","3B2X28YI3X17CP60YKHOIAVJXO9B6A","AEWGY34WUIA32","3R5LWXWHR0UE010DORDQUF3E2FPGXE","","img/set1/S4.jpg","72","4","structured_normal","74","false","structured_normal,random,structured_incentive","1,2,2,3","",""
"null","","html-keyboard-response","171","188098","0.0-100.0","3B2X28YI3X17CP60YKHOIAVJXO9B6A","AEWGY34WUIA32","3R5LWXWHR0UE010DORDQUF3E2FPGXE","","<img src=""img/set1/S4.jpg"" width=""540"" height = ""360"">","null","","","","","","","",""
"null","","html-keyboard-response","172","188100","0.0-101.0","3B2X28YI3X17CP60YKHOIAVJXO9B6A","AEWGY34WUIA32","3R5LWXWHR0UE010DORDQUF3E2FPGXE","","","null","","","","","","","",""
"1024.6550000156276","","image-keyboard-response","173","189127","0.0-102.0","3B2X28YI3X17CP60YKHOIAVJXO9B6A","AEWGY34WUIA32","3R5LWXWHR0UE010DORDQUF3E2FPGXE","","img/set1/S1.jpg","83","1","structured_normal","83","true","structured_normal,random,structured_incentive","1,2,2,3","",""
"null","","html-keyboard-response","174","189482","0.0-103.0","3B2X28YI3X17CP60YKHOIAVJXO9B6A","AEWGY34WUIA32","3R5LWXWHR0UE010DORDQUF3E2FPGXE","","<img src=""img/set1/S1.jpg"" width=""540"" height = ""360"" style=""border:16px solid orange"">","null","","","","","","","",""
"null","","html-keyboard-response","175","189485","0.0-104.0","3B2X28YI3X17CP60YKHOIAVJXO9B6A","AEWGY34WUIA32","3R5LWXWHR0UE010DORDQUF3E2FPGXE","","","null","","","","","","","",""
"752.8499999898486","","image-keyboard-response","176","190239","0.0-105.0","3B2X28YI3X17CP60YKHOIAVJXO9B6A","AEWGY34WUIA32","3R5LWXWHR0UE010DORDQUF3E2FPGXE","","img/set1/S2.jpg","68","2","structured_normal","68","true","structured_normal,random,structured_incentive","1,2,2,3","",""
"null","","html-keyboard-response","177","190592","0.0-106.0","3B2X28YI3X17CP60YKHOIAVJXO9B6A","AEWGY34WUIA32","3R5LWXWHR0UE010DORDQUF3E2FPGXE","","<img src=""img/set1/S2.jpg"" width=""540"" height = ""360"" style=""border:16px solid orange"">","null","","","","","","","",""
"null","","html-keyboard-response","178","190596","0.0-107.0","3B2X28YI3X17CP60YKHOIAVJXO9B6A","AEWGY34WUIA32","3R5LWXWHR0UE010DORDQUF3E2FPGXE","","","null","","","","","","","",""
"665.0050000171177","","image-keyboard-response","179","191263","0.0-108.0","3B2X28YI3X17CP60YKHOIAVJXO9B6A","AEWGY34WUIA32","3R5LWXWHR0UE010DORDQUF3E2FPGXE","","img/set1/S2.jpg","68","2","structured_normal","68","true","structured_normal,random,structured_incentive","1,2,2,3","",""
"null","","html-keyboard-response","180","191620","0.0-109.0","3B2X28YI3X17CP60YKHOIAVJXO9B6A","AEWGY34WUIA32","3R5LWXWHR0UE010DORDQUF3E2FPGXE","","<img src=""img/set1/S2.jpg"" width=""540"" height = ""360"" style=""border:16px solid orange"">","null","","","","","","","",""
"null","","html-keyboard-response","181","191622","0.0-110.0","3B2X28YI3X17CP60YKHOIAVJXO9B6A","AEWGY34WUIA32","3R5LWXWHR0UE010DORDQUF3E2FPGXE","","","null","","","","","","","",""
"1182.8000000095926","","image-keyboard-response","182","192807","0.0-111.0","3B2X28YI3X17CP60YKHOIAVJXO9B6A","AEWGY34WUIA32","3R5LWXWHR0UE010DORDQUF3E2FPGXE","","img/set1/S3.jpg","72","3","structured_normal","72","true","structured_normal,random,structured_incentive","1,2,2,3","",""
"null","","html-keyboard-response","183","193163","0.0-112.0","3B2X28YI3X17CP60YKHOIAVJXO9B6A","AEWGY34WUIA32","3R5LWXWHR0UE010DORDQUF3E2FPGXE","","<img src=""img/set1/S3.jpg"" width=""540"" height = ""360"" style=""border:16px solid orange"">","null","","","","","","","",""
"null","","html-keyboard-response","184","193165","0.0-113.0","3B2X28YI3X17CP60YKHOIAVJXO9B6A","AEWGY34WUIA32","3R5LWXWHR0UE010DORDQUF3E2FPGXE","","","null","","","","","","","",""
"744.3699999712408","","image-keyboard-response","185","193911","0.0-114.0","3B2X28YI3X17CP60YKHOIAVJXO9B6A","AEWGY34WUIA32","3R5LWXWHR0UE010DORDQUF3E2FPGXE","","img/set1/S2.jpg","68","2","structured_normal","68","true","structured_normal,random,structured_incentive","1,2,2,3","",""
"null","","html-keyboard-response","186","194264","0.0-115.0","3B2X28YI3X17CP60YKHOIAVJXO9B6A","AEWGY34WUIA32","3R5LWXWHR0UE010DORDQUF3E2FPGXE","","<img src=""img/set1/S2.jpg"" width=""540"" height = ""360"" style=""border:16px solid orange"">","null","","","","","","","",""
"null","","html-keyboard-response","187","194267","0.0-116.0","3B2X28YI3X17CP60YKHOIAVJXO9B6A","AEWGY34WUIA32","3R5LWXWHR0UE010DORDQUF3E2FPGXE","","","null","","","","","","","",""
"842.0250000199303","","image-keyboard-response","188","195111","0.0-117.0","3B2X28YI3X17CP60YKHOIAVJXO9B6A","AEWGY34WUIA32","3R5LWXWHR0UE010DORDQUF3E2FPGXE","","img/set1/S3.jpg","72","3","structured_normal","72","true","structured_normal,random,structured_incentive","1,2,2,3","",""
"null","","html-keyboard-response","189","195466","0.0-118.0","3B2X28YI3X17CP60YKHOIAVJXO9B6A","AEWGY34WUIA32","3R5LWXWHR0UE010DORDQUF3E2FPGXE","","<img src=""img/set1/S3.jpg"" width=""540"" height = ""360"" style=""border:16px solid orange"">","null","","","","","","","",""
"null","","html-keyboard-response","190","195470","0.0-119.0","3B2X28YI3X17CP60YKHOIAVJXO9B6A","AEWGY34WUIA32","3R5LWXWHR0UE010DORDQUF3E2FPGXE","","","null","","","","","","","",""
"967.1000000089407","","image-keyboard-response","191","196439","0.0-120.0","3B2X28YI3X17CP60YKHOIAVJXO9B6A","AEWGY34WUIA32","3R5LWXWHR0UE010DORDQUF3E2FPGXE","","img/set1/S4.jpg","74","4","structured_normal","74","true","structured_normal,random,structured_incentive","1,2,2,3","",""
"null","","html-keyboard-response","192","196792","0.0-121.0","3B2X28YI3X17CP60YKHOIAVJXO9B6A","AEWGY34WUIA32","3R5LWXWHR0UE010DORDQUF3E2FPGXE","","<img src=""img/set1/S4.jpg"" width=""540"" height = ""360"" style=""border:16px solid orange"">","null","","","","","","","",""
"null","","html-keyboard-response","193","196794","0.0-122.0","3B2X28YI3X17CP60YKHOIAVJXO9B6A","AEWGY34WUIA32","3R5LWXWHR0UE010DORDQUF3E2FPGXE","","","null","","","","","","","",""
"490.87500001769513","","image-keyboard-response","194","197287","0.0-123.0","3B2X28YI3X17CP60YKHOIAVJXO9B6A","AEWGY34WUIA32","3R5LWXWHR0UE010DORDQUF3E2FPGXE","","img/set1/S4.jpg","74","4","structured_normal","74","true","structured_normal,random,structured_incentive","1,2,2,3","",""
"null","","html-keyboard-response","195","197643","0.0-124.0","3B2X28YI3X17CP60YKHOIAVJXO9B6A","AEWGY34WUIA32","3R5LWXWHR0UE010DORDQUF3E2FPGXE","","<img src=""img/set1/S4.jpg"" width=""540"" height = ""360"" style=""border:16px solid orange"">","null","","","","","","","",""
"null","","html-keyboard-response","196","197647","0.0-125.0","3B2X28YI3X17CP60YKHOIAVJXO9B6A","AEWGY34WUIA32","3R5LWXWHR0UE010DORDQUF3E2FPGXE","","","null","","","","","","","",""
"902.6050000102259","","image-keyboard-response","197","198551","0.0-126.0","3B2X28YI3X17CP60YKHOIAVJXO9B6A","AEWGY34WUIA32","3R5LWXWHR0UE010DORDQUF3E2FPGXE","","img/set1/S3.jpg","72","3","structured_normal","72","true","structured_normal,random,structured_incentive","1,2,2,3","",""
"null","","html-keyboard-response","198","198906","0.0-127.0","3B2X28YI3X17CP60YKHOIAVJXO9B6A","AEWGY34WUIA32","3R5LWXWHR0UE010DORDQUF3E2FPGXE","","<img src=""img/set1/S3.jpg"" width=""540"" height = ""360"" style=""border:16px solid orange"">","null","","","","","","","",""
"null","","html-keyboard-response","199","198909","0.0-128.0","3B2X28YI3X17CP60YKHOIAVJXO9B6A","AEWGY34WUIA32","3R5LWXWHR0UE010DORDQUF3E2FPGXE","","","null","","","","","","","",""
"928.2150000217371","","image-keyboard-response","200","199839","0.0-129.0","3B2X28YI3X17CP60YKHOIAVJXO9B6A","AEWGY34WUIA32","3R5LWXWHR0UE010DORDQUF3E2FPGXE","","img/set1/S1.jpg","83","1","structured_normal","83","true","structured_normal,random,structured_incentive","1,2,2,3","",""
"null","","html-keyboard-response","201","200195","0.0-130.0","3B2X28YI3X17CP60YKHOIAVJXO9B6A","AEWGY34WUIA32","3R5LWXWHR0UE010DORDQUF3E2FPGXE","","<img src=""img/set1/S1.jpg"" width=""540"" height = ""360"" style=""border:16px solid orange"">","null","","","","","","","",""
"null","","html-keyboard-response","202","200198","0.0-131.0","3B2X28YI3X17CP60YKHOIAVJXO9B6A","AEWGY34WUIA32","3R5LWXWHR0UE010DORDQUF3E2FPGXE","","","null","","","","","","","",""
"624.3649999960326","","image-keyboard-response","203","200824","0.0-132.0","3B2X28YI3X17CP60YKHOIAVJXO9B6A","AEWGY34WUIA32","3R5LWXWHR0UE010DORDQUF3E2FPGXE","","img/set1/S2.jpg","68","2","structured_normal","68","true","structured_normal,random,structured_incentive","1,2,2,3","",""
"null","","html-keyboard-response","204","201181","0.0-133.0","3B2X28YI3X17CP60YKHOIAVJXO9B6A","AEWGY34WUIA32","3R5LWXWHR0UE010DORDQUF3E2FPGXE","","<img src=""img/set1/S2.jpg"" width=""540"" height = ""360"" style=""border:16px solid orange"">","null","","","","","","","",""
"null","","html-keyboard-response","205","201183","0.0-134.0","3B2X28YI3X17CP60YKHOIAVJXO9B6A","AEWGY34WUIA32","3R5LWXWHR0UE010DORDQUF3E2FPGXE","","","null","","","","","","","",""
"623.0150000192225","","image-keyboard-response","206","201807","0.0-135.0","3B2X28YI3X17CP60YKHOIAVJXO9B6A","AEWGY34WUIA32","3R5LWXWHR0UE010DORDQUF3E2FPGXE","","img/set1/S1.jpg","83","1","structured_normal","83","true","structured_normal,random,structured_incentive","1,2,2,3","",""
"null","","html-keyboard-response","207","202163","0.0-136.0","3B2X28YI3X17CP60YKHOIAVJXO9B6A","AEWGY34WUIA32","3R5LWXWHR0UE010DORDQUF3E2FPGXE","","<img src=""img/set1/S1.jpg"" width=""540"" height = ""360"" style=""border:16px solid orange"">","null","","","","","","","",""
"null","","html-keyboard-response","208","202165","0.0-137.0","3B2X28YI3X17CP60YKHOIAVJXO9B6A","AEWGY34WUIA32","3R5LWXWHR0UE010DORDQUF3E2FPGXE","","","null","","","","","","","",""
"632.8000000212342","","image-keyboard-response","209","202799","0.0-138.0","3B2X28YI3X17CP60YKHOIAVJXO9B6A","AEWGY34WUIA32","3R5LWXWHR0UE010DORDQUF3E2FPGXE","","img/set1/S2.jpg","68","2","structured_normal","68","true","structured_normal,random,structured_incentive","1,2,2,3","",""
"null","","html-keyboard-response","210","203155","0.0-139.0","3B2X28YI3X17CP60YKHOIAVJXO9B6A","AEWGY34WUIA32","3R5LWXWHR0UE010DORDQUF3E2FPGXE","","<img src=""img/set1/S2.jpg"" width=""540"" height = ""360"" style=""border:16px solid orange"">","null","","","","","","","",""
"null","","html-keyboard-response","211","203157","0.0-140.0","3B2X28YI3X17CP60YKHOIAVJXO9B6A","AEWGY34WUIA32","3R5LWXWHR0UE010DORDQUF3E2FPGXE","","","null","","","","","","","",""
"856.6149999969639","","image-keyboard-response","212","204016","0.0-141.0","3B2X28YI3X17CP60YKHOIAVJXO9B6A","AEWGY34WUIA32","3R5LWXWHR0UE010DORDQUF3E2FPGXE","","img/set1/S1.jpg","83","1","structured_normal","83","true","structured_normal,random,structured_incentive","1,2,2,3","",""
"null","","html-keyboard-response","213","204371","0.0-142.0","3B2X28YI3X17CP60YKHOIAVJXO9B6A","AEWGY34WUIA32","3R5LWXWHR0UE010DORDQUF3E2FPGXE","","<img src=""img/set1/S1.jpg"" width=""540"" height = ""360"" style=""border:16px solid orange"">","null","","","","","","","",""
"null","","html-keyboard-response","214","204373","0.0-143.0","3B2X28YI3X17CP60YKHOIAVJXO9B6A","AEWGY34WUIA32","3R5LWXWHR0UE010DORDQUF3E2FPGXE","","","null","","","","","","","",""
"559.8250000039116","","image-keyboard-response","215","204936","0.0-144.0","3B2X28YI3X17CP60YKHOIAVJXO9B6A","AEWGY34WUIA32","3R5LWXWHR0UE010DORDQUF3E2FPGXE","","img/set1/S2.jpg","68","2","structured_normal","68","true","structured_normal,random,structured_incentive","1,2,2,3","",""
"null","","html-keyboard-response","216","205291","0.0-145.0","3B2X28YI3X17CP60YKHOIAVJXO9B6A","AEWGY34WUIA32","3R5LWXWHR0UE010DORDQUF3E2FPGXE","","<img src=""img/set1/S2.jpg"" width=""540"" height = ""360"" style=""border:16px solid orange"">","null","","","","","","","",""
"null","","html-keyboard-response","217","205293","0.0-146.0","3B2X28YI3X17CP60YKHOIAVJXO9B6A","AEWGY34WUIA32","3R5LWXWHR0UE010DORDQUF3E2FPGXE","","","null","","","","","","","",""
"1080.2050000056624","","image-keyboard-response","218","206375","0.0-147.0","3B2X28YI3X17CP60YKHOIAVJXO9B6A","AEWGY34WUIA32","3R5LWXWHR0UE010DORDQUF3E2FPGXE","","img/set1/S4.jpg","74","4","structured_normal","74","true","structured_normal,random,structured_incentive","1,2,2,3","",""
"null","","html-keyboard-response","219","206731","0.0-148.0","3B2X28YI3X17CP60YKHOIAVJXO9B6A","AEWGY34WUIA32","3R5LWXWHR0UE010DORDQUF3E2FPGXE","","<img src=""img/set1/S4.jpg"" width=""540"" height = ""360"" style=""border:16px solid orange"">","null","","","","","","","",""
"null","","html-keyboard-response","220","206734","0.0-149.0","3B2X28YI3X17CP60YKHOIAVJXO9B6A","AEWGY34WUIA32","3R5LWXWHR0UE010DORDQUF3E2FPGXE","","","null","","","","","","","",""
"455.0399999716319","","image-keyboard-response","221","207192","0.0-150.0","3B2X28YI3X17CP60YKHOIAVJXO9B6A","AEWGY34WUIA32","3R5LWXWHR0UE010DORDQUF3E2FPGXE","","img/set1/S4.jpg","74","4","structured_normal","74","true","structured_normal,random,structured_incentive","1,2,2,3","",""
"null","","html-keyboard-response","222","207546","0.0-151.0","3B2X28YI3X17CP60YKHOIAVJXO9B6A","AEWGY34WUIA32","3R5LWXWHR0UE010DORDQUF3E2FPGXE","","<img src=""img/set1/S4.jpg"" width=""540"" height = ""360"" style=""border:16px solid orange"">","null","","","","","","","",""
"null","","html-keyboard-response","223","207548","0.0-152.0","3B2X28YI3X17CP60YKHOIAVJXO9B6A","AEWGY34WUIA32","3R5LWXWHR0UE010DORDQUF3E2FPGXE","","","null","","","","","","","",""
"1001.0900000343099","","image-keyboard-response","224","208552","0.0-153.0","3B2X28YI3X17CP60YKHOIAVJXO9B6A","AEWGY34WUIA32","3R5LWXWHR0UE010DORDQUF3E2FPGXE","","img/set1/S3.jpg","72","3","structured_normal","72","true","structured_normal,random,structured_incentive","1,2,2,3","",""
"null","","html-keyboard-response","225","208908","0.0-154.0","3B2X28YI3X17CP60YKHOIAVJXO9B6A","AEWGY34WUIA32","3R5LWXWHR0UE010DORDQUF3E2FPGXE","","<img src=""img/set1/S3.jpg"" width=""540"" height = ""360"" style=""border:16px solid orange"">","null","","","","","","","",""
"null","","html-keyboard-response","226","208911","0.0-155.0","3B2X28YI3X17CP60YKHOIAVJXO9B6A","AEWGY34WUIA32","3R5LWXWHR0UE010DORDQUF3E2FPGXE","","","null","","","","","","","",""
"679.1550000198185","","image-keyboard-response","227","209592","0.0-156.0","3B2X28YI3X17CP60YKHOIAVJXO9B6A","AEWGY34WUIA32","3R5LWXWHR0UE010DORDQUF3E2FPGXE","","img/set1/S2.jpg","68","2","structured_normal","68","true","structured_normal,random,structured_incentive","1,2,2,3","",""
"null","","html-keyboard-response","228","209946","0.0-157.0","3B2X28YI3X17CP60YKHOIAVJXO9B6A","AEWGY34WUIA32","3R5LWXWHR0UE010DORDQUF3E2FPGXE","","<img src=""img/set1/S2.jpg"" width=""540"" height = ""360"" style=""border:16px solid orange"">","null","","","","","","","",""
"null","","html-keyboard-response","229","209948","0.0-158.0","3B2X28YI3X17CP60YKHOIAVJXO9B6A","AEWGY34WUIA32","3R5LWXWHR0UE010DORDQUF3E2FPGXE","","","null","","","","","","","",""
"889.484999992419","","image-keyboard-response","230","210840","0.0-159.0","3B2X28YI3X17CP60YKHOIAVJXO9B6A","AEWGY34WUIA32","3R5LWXWHR0UE010DORDQUF3E2FPGXE","","img/set1/S1.jpg","83","1","structured_normal","83","true","structured_normal,random,structured_incentive","1,2,2,3","",""
"null","","html-keyboard-response","231","211195","0.0-160.0","3B2X28YI3X17CP60YKHOIAVJXO9B6A","AEWGY34WUIA32","3R5LWXWHR0UE010DORDQUF3E2FPGXE","","<img src=""img/set1/S1.jpg"" width=""540"" height = ""360"" style=""border:16px solid orange"">","null","","","","","","","",""
"null","","html-keyboard-response","232","211197","0.0-161.0","3B2X28YI3X17CP60YKHOIAVJXO9B6A","AEWGY34WUIA32","3R5LWXWHR0UE010DORDQUF3E2FPGXE","","","null","","","","","","","",""
"640.4699999839067","","image-keyboard-response","233","211840","0.0-162.0","3B2X28YI3X17CP60YKHOIAVJXO9B6A","AEWGY34WUIA32","3R5LWXWHR0UE010DORDQUF3E2FPGXE","","img/set1/S2.jpg","68","2","structured_normal","68","true","structured_normal,random,structured_incentive","1,2,2,3","",""
"null","","html-keyboard-response","234","212192","0.0-163.0","3B2X28YI3X17CP60YKHOIAVJXO9B6A","AEWGY34WUIA32","3R5LWXWHR0UE010DORDQUF3E2FPGXE","","<img src=""img/set1/S2.jpg"" width=""540"" height = ""360"" style=""border:16px solid orange"">","null","","","","","","","",""
"null","","html-keyboard-response","235","212194","0.0-164.0","3B2X28YI3X17CP60YKHOIAVJXO9B6A","AEWGY34WUIA32","3R5LWXWHR0UE010DORDQUF3E2FPGXE","","","null","","","","","","","",""
"939.3200000049546","","image-keyboard-response","236","213136","0.0-165.0","3B2X28YI3X17CP60YKHOIAVJXO9B6A","AEWGY34WUIA32","3R5LWXWHR0UE010DORDQUF3E2FPGXE","","img/set1/S4.jpg","74","4","structured_normal","74","true","structured_normal,random,structured_incentive","1,2,2,3","",""
"null","","html-keyboard-response","237","213491","0.0-166.0","3B2X28YI3X17CP60YKHOIAVJXO9B6A","AEWGY34WUIA32","3R5LWXWHR0UE010DORDQUF3E2FPGXE","","<img src=""img/set1/S4.jpg"" width=""540"" height = ""360"" style=""border:16px solid orange"">","null","","","","","","","",""
"null","","html-keyboard-response","238","213494","0.0-167.0","3B2X28YI3X17CP60YKHOIAVJXO9B6A","AEWGY34WUIA32","3R5LWXWHR0UE010DORDQUF3E2FPGXE","","","null","","","","","","","",""
"464.3649999634363","","image-keyboard-response","239","213960","0.0-168.0","3B2X28YI3X17CP60YKHOIAVJXO9B6A","AEWGY34WUIA32","3R5LWXWHR0UE010DORDQUF3E2FPGXE","","img/set1/S4.jpg","74","4","structured_normal","74","true","structured_normal,random,structured_incentive","1,2,2,3","",""
"null","","html-keyboard-response","240","214317","0.0-169.0","3B2X28YI3X17CP60YKHOIAVJXO9B6A","AEWGY34WUIA32","3R5LWXWHR0UE010DORDQUF3E2FPGXE","","<img src=""img/set1/S4.jpg"" width=""540"" height = ""360"" style=""border:16px solid orange"">","null","","","","","","","",""
"null","","html-keyboard-response","241","214320","0.0-170.0","3B2X28YI3X17CP60YKHOIAVJXO9B6A","AEWGY34WUIA32","3R5LWXWHR0UE010DORDQUF3E2FPGXE","","","null","","","","","","","",""
"454.35000001452863","","image-keyboard-response","242","214777","0.0-171.0","3B2X28YI3X17CP60YKHOIAVJXO9B6A","AEWGY34WUIA32","3R5LWXWHR0UE010DORDQUF3E2FPGXE","","img/set1/S4.jpg","74","4","structured_normal","74","true","structured_normal,random,structured_incentive","1,2,2,3","",""
"null","","html-keyboard-response","243","215131","0.0-172.0","3B2X28YI3X17CP60YKHOIAVJXO9B6A","AEWGY34WUIA32","3R5LWXWHR0UE010DORDQUF3E2FPGXE","","<img src=""img/set1/S4.jpg"" width=""540"" height = ""360"" style=""border:16px solid orange"">","null","","","","","","","",""
"null","","html-keyboard-response","244","215134","0.0-173.0","3B2X28YI3X17CP60YKHOIAVJXO9B6A","AEWGY34WUIA32","3R5LWXWHR0UE010DORDQUF3E2FPGXE","","","null","","","","","","","",""
"1576.3799999840558","","image-keyboard-response","245","216712","0.0-174.0","3B2X28YI3X17CP60YKHOIAVJXO9B6A","AEWGY34WUIA32","3R5LWXWHR0UE010DORDQUF3E2FPGXE","","img/set1/S3.jpg","72","3","structured_normal","72","true","structured_normal,random,structured_incentive","1,2,2,3","",""
"null","","html-keyboard-response","246","217068","0.0-175.0","3B2X28YI3X17CP60YKHOIAVJXO9B6A","AEWGY34WUIA32","3R5LWXWHR0UE010DORDQUF3E2FPGXE","","<img src=""img/set1/S3.jpg"" width=""540"" height = ""360"" style=""border:16px solid orange"">","null","","","","","","","",""
"null","","html-keyboard-response","247","217071","0.0-176.0","3B2X28YI3X17CP60YKHOIAVJXO9B6A","AEWGY34WUIA32","3R5LWXWHR0UE010DORDQUF3E2FPGXE","","","null","","","","","","","",""
"495.2499999781139","","image-keyboard-response","248","217568","0.0-177.0","3B2X28YI3X17CP60YKHOIAVJXO9B6A","AEWGY34WUIA32","3R5LWXWHR0UE010DORDQUF3E2FPGXE","","img/set1/S3.jpg","72","3","structured_normal","72","true","structured_normal,random,structured_incentive","1,2,2,3","",""
"null","","html-keyboard-response","249","217924","0.0-178.0","3B2X28YI3X17CP60YKHOIAVJXO9B6A","AEWGY34WUIA32","3R5LWXWHR0UE010DORDQUF3E2FPGXE","","<img src=""img/set1/S3.jpg"" width=""540"" height = ""360"" style=""border:16px solid orange"">","null","","","","","","","",""
"null","","html-keyboard-response","250","217926","0.0-179.0","3B2X28YI3X17CP60YKHOIAVJXO9B6A","AEWGY34WUIA32","3R5LWXWHR0UE010DORDQUF3E2FPGXE","","","null","","","","","","","",""
"720.2599999727681","","image-keyboard-response","251","218648","0.0-180.0","3B2X28YI3X17CP60YKHOIAVJXO9B6A","AEWGY34WUIA32","3R5LWXWHR0UE010DORDQUF3E2FPGXE","","img/set1/S4.jpg","74","4","structured_normal","74","true","structured_normal,random,structured_incentive","1,2,2,3","",""
"null","","html-keyboard-response","252","219003","0.0-181.0","3B2X28YI3X17CP60YKHOIAVJXO9B6A","AEWGY34WUIA32","3R5LWXWHR0UE010DORDQUF3E2FPGXE","","<img src=""img/set1/S4.jpg"" width=""540"" height = ""360"" style=""border:16px solid orange"">","null","","","","","","","",""
"null","","html-keyboard-response","253","219006","0.0-182.0","3B2X28YI3X17CP60YKHOIAVJXO9B6A","AEWGY34WUIA32","3R5LWXWHR0UE010DORDQUF3E2FPGXE","","","null","","","","","","","",""
"424.73000002792105","","image-keyboard-response","254","219432","0.0-183.0","3B2X28YI3X17CP60YKHOIAVJXO9B6A","AEWGY34WUIA32","3R5LWXWHR0UE010DORDQUF3E2FPGXE","","img/set1/S4.jpg","74","4","structured_normal","74","true","structured_normal,random,structured_incentive","1,2,2,3","",""
"null","","html-keyboard-response","255","219785","0.0-184.0","3B2X28YI3X17CP60YKHOIAVJXO9B6A","AEWGY34WUIA32","3R5LWXWHR0UE010DORDQUF3E2FPGXE","","<img src=""img/set1/S4.jpg"" width=""540"" height = ""360"" style=""border:16px solid orange"">","null","","","","","","","",""
"null","","html-keyboard-response","256","219788","0.0-185.0","3B2X28YI3X17CP60YKHOIAVJXO9B6A","AEWGY34WUIA32","3R5LWXWHR0UE010DORDQUF3E2FPGXE","","","null","","","","","","","",""
"394.6950000245124","","image-keyboard-response","257","220184","0.0-186.0","3B2X28YI3X17CP60YKHOIAVJXO9B6A","AEWGY34WUIA32","3R5LWXWHR0UE010DORDQUF3E2FPGXE","","img/set1/S4.jpg","74","4","structured_normal","74","true","structured_normal,random,structured_incentive","1,2,2,3","",""
"null","","html-keyboard-response","258","220539","0.0-187.0","3B2X28YI3X17CP60YKHOIAVJXO9B6A","AEWGY34WUIA32","3R5LWXWHR0UE010DORDQUF3E2FPGXE","","<img src=""img/set1/S4.jpg"" width=""540"" height = ""360"" style=""border:16px solid orange"">","null","","","","","","","",""
"null","","html-keyboard-response","259","220542","0.0-188.0","3B2X28YI3X17CP60YKHOIAVJXO9B6A","AEWGY34WUIA32","3R5LWXWHR0UE010DORDQUF3E2FPGXE","","","null","","","","","","","",""
"824.6150000486523","","image-keyboard-response","260","221368","0.0-189.0","3B2X28YI3X17CP60YKHOIAVJXO9B6A","AEWGY34WUIA32","3R5LWXWHR0UE010DORDQUF3E2FPGXE","","img/set1/S1.jpg","83","1","structured_normal","83","true","structured_normal,random,structured_incentive","1,2,2,3","",""
"null","","html-keyboard-response","261","221721","0.0-190.0","3B2X28YI3X17CP60YKHOIAVJXO9B6A","AEWGY34WUIA32","3R5LWXWHR0UE010DORDQUF3E2FPGXE","","<img src=""img/set1/S1.jpg"" width=""540"" height = ""360"" style=""border:16px solid orange"">","null","","","","","","","",""
"null","","html-keyboard-response","262","221724","0.0-191.0","3B2X28YI3X17CP60YKHOIAVJXO9B6A","AEWGY34WUIA32","3R5LWXWHR0UE010DORDQUF3E2FPGXE","","","null","","","","","","","",""
"919.945000030566","","image-keyboard-response","263","222648","0.0-192.0","3B2X28YI3X17CP60YKHOIAVJXO9B6A","AEWGY34WUIA32","3R5LWXWHR0UE010DORDQUF3E2FPGXE","","img/set1/S3.jpg","72","3","structured_normal","72","true","structured_normal,random,structured_incentive","1,2,2,3","",""
"null","","html-keyboard-response","264","223001","0.0-193.0","3B2X28YI3X17CP60YKHOIAVJXO9B6A","AEWGY34WUIA32","3R5LWXWHR0UE010DORDQUF3E2FPGXE","","<img src=""img/set1/S3.jpg"" width=""540"" height = ""360"" style=""border:16px solid orange"">","null","","","","","","","",""
"null","","html-keyboard-response","265","223004","0.0-194.0","3B2X28YI3X17CP60YKHOIAVJXO9B6A","AEWGY34WUIA32","3R5LWXWHR0UE010DORDQUF3E2FPGXE","","","null","","","","","","","",""
"891.814999980852","","image-keyboard-response","266","223897","0.0-195.0","3B2X28YI3X17CP60YKHOIAVJXO9B6A","AEWGY34WUIA32","3R5LWXWHR0UE010DORDQUF3E2FPGXE","","img/set1/S1.jpg","83","1","structured_normal","83","true","structured_normal,random,structured_incentive","1,2,2,3","",""
"null","","html-keyboard-response","267","224254","0.0-196.0","3B2X28YI3X17CP60YKHOIAVJXO9B6A","AEWGY34WUIA32","3R5LWXWHR0UE010DORDQUF3E2FPGXE","","<img src=""img/set1/S1.jpg"" width=""540"" height = ""360"" style=""border:16px solid orange"">","null","","","","","","","",""
"null","","html-keyboard-response","268","224256","0.0-197.0","3B2X28YI3X17CP60YKHOIAVJXO9B6A","AEWGY34WUIA32","3R5LWXWHR0UE010DORDQUF3E2FPGXE","","","null","","","","","","","",""
"630.1749999984168","","image-keyboard-response","269","224888","0.0-198.0","3B2X28YI3X17CP60YKHOIAVJXO9B6A","AEWGY34WUIA32","3R5LWXWHR0UE010DORDQUF3E2FPGXE","","img/set1/S2.jpg","68","2","structured_normal","68","true","structured_normal,random,structured_incentive","1,2,2,3","",""
"null","","html-keyboard-response","270","225244","0.0-199.0","3B2X28YI3X17CP60YKHOIAVJXO9B6A","AEWGY34WUIA32","3R5LWXWHR0UE010DORDQUF3E2FPGXE","","<img src=""img/set1/S2.jpg"" width=""540"" height = ""360"" style=""border:16px solid orange"">","null","","","","","","","",""
"null","","html-keyboard-response","271","225247","0.0-200.0","3B2X28YI3X17CP60YKHOIAVJXO9B6A","AEWGY34WUIA32","3R5LWXWHR0UE010DORDQUF3E2FPGXE","","","null","","","","","","","",""
"863.634999957867","","image-keyboard-response","272","226112","0.0-201.0","3B2X28YI3X17CP60YKHOIAVJXO9B6A","AEWGY34WUIA32","3R5LWXWHR0UE010DORDQUF3E2FPGXE","","img/set1/S1.jpg","83","1","structured_normal","83","true","structured_normal,random,structured_incentive","1,2,2,3","",""
"null","","html-keyboard-response","273","226467","0.0-202.0","3B2X28YI3X17CP60YKHOIAVJXO9B6A","AEWGY34WUIA32","3R5LWXWHR0UE010DORDQUF3E2FPGXE","","<img src=""img/set1/S1.jpg"" width=""540"" height = ""360"" style=""border:16px solid orange"">","null","","","","","","","",""
"null","","html-keyboard-response","274","226469","0.0-203.0","3B2X28YI3X17CP60YKHOIAVJXO9B6A","AEWGY34WUIA32","3R5LWXWHR0UE010DORDQUF3E2FPGXE","","","null","","","","","","","",""
"537.6050000195391","","image-keyboard-response","275","227009","0.0-204.0","3B2X28YI3X17CP60YKHOIAVJXO9B6A","AEWGY34WUIA32","3R5LWXWHR0UE010DORDQUF3E2FPGXE","","img/set1/S2.jpg","68","2","structured_normal","68","true","structured_normal,random,structured_incentive","1,2,2,3","",""
"null","","html-keyboard-response","276","227362","0.0-205.0","3B2X28YI3X17CP60YKHOIAVJXO9B6A","AEWGY34WUIA32","3R5LWXWHR0UE010DORDQUF3E2FPGXE","","<img src=""img/set1/S2.jpg"" width=""540"" height = ""360"" style=""border:16px solid orange"">","null","","","","","","","",""
"null","","html-keyboard-response","277","227364","0.0-206.0","3B2X28YI3X17CP60YKHOIAVJXO9B6A","AEWGY34WUIA32","3R5LWXWHR0UE010DORDQUF3E2FPGXE","","","null","","","","","","","",""
"738.3949999930337","","image-keyboard-response","278","228105","0.0-207.0","3B2X28YI3X17CP60YKHOIAVJXO9B6A","AEWGY34WUIA32","3R5LWXWHR0UE010DORDQUF3E2FPGXE","","img/set1/S4.jpg","74","4","structured_normal","74","true","structured_normal,random,structured_incentive","1,2,2,3","",""
"null","","html-keyboard-response","279","228460","0.0-208.0","3B2X28YI3X17CP60YKHOIAVJXO9B6A","AEWGY34WUIA32","3R5LWXWHR0UE010DORDQUF3E2FPGXE","","<img src=""img/set1/S4.jpg"" width=""540"" height = ""360"" style=""border:16px solid orange"">","null","","","","","","","",""
"null","","html-keyboard-response","280","228462","0.0-209.0","3B2X28YI3X17CP60YKHOIAVJXO9B6A","AEWGY34WUIA32","3R5LWXWHR0UE010DORDQUF3E2FPGXE","","","null","","","","","","","",""
"424.1899999906309","","image-keyboard-response","281","228889","0.0-210.0","3B2X28YI3X17CP60YKHOIAVJXO9B6A","AEWGY34WUIA32","3R5LWXWHR0UE010DORDQUF3E2FPGXE","","img/set1/S4.jpg","74","4","structured_normal","74","true","structured_normal,random,structured_incentive","1,2,2,3","",""
"null","","html-keyboard-response","282","229242","0.0-211.0","3B2X28YI3X17CP60YKHOIAVJXO9B6A","AEWGY34WUIA32","3R5LWXWHR0UE010DORDQUF3E2FPGXE","","<img src=""img/set1/S4.jpg"" width=""540"" height = ""360"" style=""border:16px solid orange"">","null","","","","","","","",""
"null","","html-keyboard-response","283","229246","0.0-212.0","3B2X28YI3X17CP60YKHOIAVJXO9B6A","AEWGY34WUIA32","3R5LWXWHR0UE010DORDQUF3E2FPGXE","","","null","","","","","","","",""
"816.9150000321679","","image-keyboard-response","284","230064","0.0-213.0","3B2X28YI3X17CP60YKHOIAVJXO9B6A","AEWGY34WUIA32","3R5LWXWHR0UE010DORDQUF3E2FPGXE","","img/set1/S1.jpg","83","1","structured_normal","83","true","structured_normal,random,structured_incentive","1,2,2,3","",""
"null","","html-keyboard-response","285","230421","0.0-214.0","3B2X28YI3X17CP60YKHOIAVJXO9B6A","AEWGY34WUIA32","3R5LWXWHR0UE010DORDQUF3E2FPGXE","","<img src=""img/set1/S1.jpg"" width=""540"" height = ""360"" style=""border:16px solid orange"">","null","","","","","","","",""
"null","","html-keyboard-response","286","230423","0.0-215.0","3B2X28YI3X17CP60YKHOIAVJXO9B6A","AEWGY34WUIA32","3R5LWXWHR0UE010DORDQUF3E2FPGXE","","","null","","","","","","","",""
"983.4949999931268","","image-keyboard-response","287","231409","0.0-216.0","3B2X28YI3X17CP60YKHOIAVJXO9B6A","AEWGY34WUIA32","3R5LWXWHR0UE010DORDQUF3E2FPGXE","","img/set1/S3.jpg","72","3","structured_normal","72","true","structured_normal,random,structured_incentive","1,2,2,3","",""
"null","","html-keyboard-response","288","231761","0.0-217.0","3B2X28YI3X17CP60YKHOIAVJXO9B6A","AEWGY34WUIA32","3R5LWXWHR0UE010DORDQUF3E2FPGXE","","<img src=""img/set1/S3.jpg"" width=""540"" height = ""360"" style=""border:16px solid orange"">","null","","","","","","","",""
"null","","html-keyboard-response","289","231763","0.0-218.0","3B2X28YI3X17CP60YKHOIAVJXO9B6A","AEWGY34WUIA32","3R5LWXWHR0UE010DORDQUF3E2FPGXE","","","null","","","","","","","",""
"707.5750000076368","","image-keyboard-response","290","232473","0.0-219.0","3B2X28YI3X17CP60YKHOIAVJXO9B6A","AEWGY34WUIA32","3R5LWXWHR0UE010DORDQUF3E2FPGXE","","img/set1/S4.jpg","74","4","structured_normal","74","true","structured_normal,random,structured_incentive","1,2,2,3","",""
"null","","html-keyboard-response","291","232828","0.0-220.0","3B2X28YI3X17CP60YKHOIAVJXO9B6A","AEWGY34WUIA32","3R5LWXWHR0UE010DORDQUF3E2FPGXE","","<img src=""img/set1/S4.jpg"" width=""540"" height = ""360"" style=""border:16px solid orange"">","null","","","","","","","",""
"null","","html-keyboard-response","292","232830","0.0-221.0","3B2X28YI3X17CP60YKHOIAVJXO9B6A","AEWGY34WUIA32","3R5LWXWHR0UE010DORDQUF3E2FPGXE","","","null","","","","","","","",""
"1352.1600000094622","","image-keyboard-response","293","234185","0.0-222.0","3B2X28YI3X17CP60YKHOIAVJXO9B6A","AEWGY34WUIA32","3R5LWXWHR0UE010DORDQUF3E2FPGXE","","img/set1/S1.jpg","83","1","structured_normal","83","true","structured_normal,random,structured_incentive","1,2,2,3","",""
"null","","html-keyboard-response","294","234540","0.0-223.0","3B2X28YI3X17CP60YKHOIAVJXO9B6A","AEWGY34WUIA32","3R5LWXWHR0UE010DORDQUF3E2FPGXE","","<img src=""img/set1/S1.jpg"" width=""540"" height = ""360"" style=""border:16px solid orange"">","null","","","","","","","",""
"null","","html-keyboard-response","295","234543","0.0-224.0","3B2X28YI3X17CP60YKHOIAVJXO9B6A","AEWGY34WUIA32","3R5LWXWHR0UE010DORDQUF3E2FPGXE","","","null","","","","","","","",""
"848.4650000464171","","image-keyboard-response","296","235393","0.0-225.0","3B2X28YI3X17CP60YKHOIAVJXO9B6A","AEWGY34WUIA32","3R5LWXWHR0UE010DORDQUF3E2FPGXE","","img/set1/S2.jpg","68","2","structured_normal","68","true","structured_normal,random,structured_incentive","1,2,2,3","",""
"null","","html-keyboard-response","297","235748","0.0-226.0","3B2X28YI3X17CP60YKHOIAVJXO9B6A","AEWGY34WUIA32","3R5LWXWHR0UE010DORDQUF3E2FPGXE","","<img src=""img/set1/S2.jpg"" width=""540"" height = ""360"" style=""border:16px solid orange"">","null","","","","","","","",""
"null","","html-keyboard-response","298","235750","0.0-227.0","3B2X28YI3X17CP60YKHOIAVJXO9B6A","AEWGY34WUIA32","3R5LWXWHR0UE010DORDQUF3E2FPGXE","","","null","","","","","","","",""
"808.6749999783933","","image-keyboard-response","299","236561","0.0-228.0","3B2X28YI3X17CP60YKHOIAVJXO9B6A","AEWGY34WUIA32","3R5LWXWHR0UE010DORDQUF3E2FPGXE","","img/set1/S1.jpg","83","1","structured_normal","83","true","structured_normal,random,structured_incentive","1,2,2,3","",""
"null","","html-keyboard-response","300","236916","0.0-229.0","3B2X28YI3X17CP60YKHOIAVJXO9B6A","AEWGY34WUIA32","3R5LWXWHR0UE010DORDQUF3E2FPGXE","","<img src=""img/set1/S1.jpg"" width=""540"" height = ""360"" style=""border:16px solid orange"">","null","","","","","","","",""
"null","","html-keyboard-response","301","236919","0.0-230.0","3B2X28YI3X17CP60YKHOIAVJXO9B6A","AEWGY34WUIA32","3R5LWXWHR0UE010DORDQUF3E2FPGXE","","","null","","","","","","","",""
"639.374999969732","","image-keyboard-response","302","237561","0.0-231.0","3B2X28YI3X17CP60YKHOIAVJXO9B6A","AEWGY34WUIA32","3R5LWXWHR0UE010DORDQUF3E2FPGXE","","img/set1/S2.jpg","68","2","structured_normal","68","true","structured_normal,random,structured_incentive","1,2,2,3","",""
"null","","html-keyboard-response","303","237916","0.0-232.0","3B2X28YI3X17CP60YKHOIAVJXO9B6A","AEWGY34WUIA32","3R5LWXWHR0UE010DORDQUF3E2FPGXE","","<img src=""img/set1/S2.jpg"" width=""540"" height = ""360"" style=""border:16px solid orange"">","null","","","","","","","",""
"null","","html-keyboard-response","304","237918","0.0-233.0","3B2X28YI3X17CP60YKHOIAVJXO9B6A","AEWGY34WUIA32","3R5LWXWHR0UE010DORDQUF3E2FPGXE","","","null","","","","","","","",""
"672.9899999918416","","image-keyboard-response","305","238593","0.0-234.0","3B2X28YI3X17CP60YKHOIAVJXO9B6A","AEWGY34WUIA32","3R5LWXWHR0UE010DORDQUF3E2FPGXE","","img/set1/S3.jpg","72","3","structured_normal","72","true","structured_normal,random,structured_incentive","1,2,2,3","",""
"null","","html-keyboard-response","306","238948","0.0-235.0","3B2X28YI3X17CP60YKHOIAVJXO9B6A","AEWGY34WUIA32","3R5LWXWHR0UE010DORDQUF3E2FPGXE","","<img src=""img/set1/S3.jpg"" width=""540"" height = ""360"" style=""border:16px solid orange"">","null","","","","","","","",""
"null","","html-keyboard-response","307","238951","0.0-236.0","3B2X28YI3X17CP60YKHOIAVJXO9B6A","AEWGY34WUIA32","3R5LWXWHR0UE010DORDQUF3E2FPGXE","","","null","","","","","","","",""
"687.7150000073016","","image-keyboard-response","308","239641","0.0-237.0","3B2X28YI3X17CP60YKHOIAVJXO9B6A","AEWGY34WUIA32","3R5LWXWHR0UE010DORDQUF3E2FPGXE","","img/set1/S1.jpg","83","1","structured_normal","83","true","structured_normal,random,structured_incentive","1,2,2,3","",""
"null","","html-keyboard-response","309","239996","0.0-238.0","3B2X28YI3X17CP60YKHOIAVJXO9B6A","AEWGY34WUIA32","3R5LWXWHR0UE010DORDQUF3E2FPGXE","","<img src=""img/set1/S1.jpg"" width=""540"" height = ""360"" style=""border:16px solid orange"">","null","","","","","","","",""
"null","","html-keyboard-response","310","239999","0.0-239.0","3B2X28YI3X17CP60YKHOIAVJXO9B6A","AEWGY34WUIA32","3R5LWXWHR0UE010DORDQUF3E2FPGXE","","","null","","","","","","","",""
"680.2449999959208","","image-keyboard-response","311","240681","0.0-240.0","3B2X28YI3X17CP60YKHOIAVJXO9B6A","AEWGY34WUIA32","3R5LWXWHR0UE010DORDQUF3E2FPGXE","","img/set1/S2.jpg","68","2","structured_normal","68","true","structured_normal,random,structured_incentive","1,2,2,3","",""
"null","","html-keyboard-response","312","241034","0.0-241.0","3B2X28YI3X17CP60YKHOIAVJXO9B6A","AEWGY34WUIA32","3R5LWXWHR0UE010DORDQUF3E2FPGXE","","<img src=""img/set1/S2.jpg"" width=""540"" height = ""360"" style=""border:16px solid orange"">","null","","","","","","","",""
"null","","html-keyboard-response","313","241037","0.0-242.0","3B2X28YI3X17CP60YKHOIAVJXO9B6A","AEWGY34WUIA32","3R5LWXWHR0UE010DORDQUF3E2FPGXE","","","null","","","","","","","",""
"1153.9550000452437","","image-keyboard-response","314","242193","0.0-243.0","3B2X28YI3X17CP60YKHOIAVJXO9B6A","AEWGY34WUIA32","3R5LWXWHR0UE010DORDQUF3E2FPGXE","","img/set1/S3.jpg","72","3","structured_normal","72","true","structured_normal,random,structured_incentive","1,2,2,3","",""
"null","","html-keyboard-response","315","242548","0.0-244.0","3B2X28YI3X17CP60YKHOIAVJXO9B6A","AEWGY34WUIA32","3R5LWXWHR0UE010DORDQUF3E2FPGXE","","<img src=""img/set1/S3.jpg"" width=""540"" height = ""360"" style=""border:16px solid orange"">","null","","","","","","","",""
"null","","html-keyboard-response","316","242551","0.0-245.0","3B2X28YI3X17CP60YKHOIAVJXO9B6A","AEWGY34WUIA32","3R5LWXWHR0UE010DORDQUF3E2FPGXE","","","null","","","","","","","",""
"632.1400000015274","","image-keyboard-response","317","243185","0.0-246.0","3B2X28YI3X17CP60YKHOIAVJXO9B6A","AEWGY34WUIA32","3R5LWXWHR0UE010DORDQUF3E2FPGXE","","img/set1/S4.jpg","74","4","structured_normal","74","true","structured_normal,random,structured_incentive","1,2,2,3","",""
"null","","html-keyboard-response","318","243541","0.0-247.0","3B2X28YI3X17CP60YKHOIAVJXO9B6A","AEWGY34WUIA32","3R5LWXWHR0UE010DORDQUF3E2FPGXE","","<img src=""img/set1/S4.jpg"" width=""540"" height = ""360"" style=""border:16px solid orange"">","null","","","","","","","",""
"null","","html-keyboard-response","319","243544","0.0-248.0","3B2X28YI3X17CP60YKHOIAVJXO9B6A","AEWGY34WUIA32","3R5LWXWHR0UE010DORDQUF3E2FPGXE","","","null","","","","","","","",""
"703.4850000054576","","image-keyboard-response","320","244249","0.0-249.0","3B2X28YI3X17CP60YKHOIAVJXO9B6A","AEWGY34WUIA32","3R5LWXWHR0UE010DORDQUF3E2FPGXE","","img/set1/S3.jpg","72","3","structured_normal","72","true","structured_normal,random,structured_incentive","1,2,2,3","",""
"null","","html-keyboard-response","321","244604","0.0-250.0","3B2X28YI3X17CP60YKHOIAVJXO9B6A","AEWGY34WUIA32","3R5LWXWHR0UE010DORDQUF3E2FPGXE","","<img src=""img/set1/S3.jpg"" width=""540"" height = ""360"" style=""border:16px solid orange"">","null","","","","","","","",""
"null","","html-keyboard-response","322","244607","0.0-251.0","3B2X28YI3X17CP60YKHOIAVJXO9B6A","AEWGY34WUIA32","3R5LWXWHR0UE010DORDQUF3E2FPGXE","","","null","","","","","","","",""
"579.4900000328198","","image-keyboard-response","323","245189","0.0-252.0","3B2X28YI3X17CP60YKHOIAVJXO9B6A","AEWGY34WUIA32","3R5LWXWHR0UE010DORDQUF3E2FPGXE","","img/set1/S4.jpg","74","4","structured_normal","74","true","structured_normal,random,structured_incentive","1,2,2,3","",""
"null","","html-keyboard-response","324","245545","0.0-253.0","3B2X28YI3X17CP60YKHOIAVJXO9B6A","AEWGY34WUIA32","3R5LWXWHR0UE010DORDQUF3E2FPGXE","","<img src=""img/set1/S4.jpg"" width=""540"" height = ""360"" style=""border:16px solid orange"">","null","","","","","","","",""
"null","","html-keyboard-response","325","245547","0.0-254.0","3B2X28YI3X17CP60YKHOIAVJXO9B6A","AEWGY34WUIA32","3R5LWXWHR0UE010DORDQUF3E2FPGXE","","","null","","","","","","","",""
"468.3599999989383","","image-keyboard-response","326","246017","0.0-255.0","3B2X28YI3X17CP60YKHOIAVJXO9B6A","AEWGY34WUIA32","3R5LWXWHR0UE010DORDQUF3E2FPGXE","","img/set1/S4.jpg","74","4","structured_normal","74","true","structured_normal,random,structured_incentive","1,2,2,3","",""
"null","","html-keyboard-response","327","246370","0.0-256.0","3B2X28YI3X17CP60YKHOIAVJXO9B6A","AEWGY34WUIA32","3R5LWXWHR0UE010DORDQUF3E2FPGXE","","<img src=""img/set1/S4.jpg"" width=""540"" height = ""360"" style=""border:16px solid orange"">","null","","","","","","","",""
"null","","html-keyboard-response","328","246373","0.0-257.0","3B2X28YI3X17CP60YKHOIAVJXO9B6A","AEWGY34WUIA32","3R5LWXWHR0UE010DORDQUF3E2FPGXE","","","null","","","","","","","",""
"673.6950000049546","","image-keyboard-response","329","247049","0.0-258.0","3B2X28YI3X17CP60YKHOIAVJXO9B6A","AEWGY34WUIA32","3R5LWXWHR0UE010DORDQUF3E2FPGXE","","img/set1/S1.jpg","83","1","structured_normal","83","true","structured_normal,random,structured_incentive","1,2,2,3","",""
"null","","html-keyboard-response","330","247403","0.0-259.0","3B2X28YI3X17CP60YKHOIAVJXO9B6A","AEWGY34WUIA32","3R5LWXWHR0UE010DORDQUF3E2FPGXE","","<img src=""img/set1/S1.jpg"" width=""540"" height = ""360"" style=""border:16px solid orange"">","null","","","","","","","",""
"null","","html-keyboard-response","331","247405","0.0-260.0","3B2X28YI3X17CP60YKHOIAVJXO9B6A","AEWGY34WUIA32","3R5LWXWHR0UE010DORDQUF3E2FPGXE","","","null","","","","","","","",""
"603.389999945648","","image-keyboard-response","332","248010","0.0-261.0","3B2X28YI3X17CP60YKHOIAVJXO9B6A","AEWGY34WUIA32","3R5LWXWHR0UE010DORDQUF3E2FPGXE","","img/set1/S2.jpg","68","2","structured_normal","68","true","structured_normal,random,structured_incentive","1,2,2,3","",""
"null","","html-keyboard-response","333","248365","0.0-262.0","3B2X28YI3X17CP60YKHOIAVJXO9B6A","AEWGY34WUIA32","3R5LWXWHR0UE010DORDQUF3E2FPGXE","","<img src=""img/set1/S2.jpg"" width=""540"" height = ""360"" style=""border:16px solid orange"">","null","","","","","","","",""
"null","","html-keyboard-response","334","248367","0.0-263.0","3B2X28YI3X17CP60YKHOIAVJXO9B6A","AEWGY34WUIA32","3R5LWXWHR0UE010DORDQUF3E2FPGXE","","","null","","","","","","","",""
"672.130000020843","","image-keyboard-response","335","249041","0.0-264.0","3B2X28YI3X17CP60YKHOIAVJXO9B6A","AEWGY34WUIA32","3R5LWXWHR0UE010DORDQUF3E2FPGXE","","img/set1/S1.jpg","83","1","structured_normal","83","true","structured_normal,random,structured_incentive","1,2,2,3","",""
"null","","html-keyboard-response","336","249397","0.0-265.0","3B2X28YI3X17CP60YKHOIAVJXO9B6A","AEWGY34WUIA32","3R5LWXWHR0UE010DORDQUF3E2FPGXE","","<img src=""img/set1/S1.jpg"" width=""540"" height = ""360"" style=""border:16px solid orange"">","null","","","","","","","",""
"null","","html-keyboard-response","337","249400","0.0-266.0","3B2X28YI3X17CP60YKHOIAVJXO9B6A","AEWGY34WUIA32","3R5LWXWHR0UE010DORDQUF3E2FPGXE","","","null","","","","","","","",""
"639.4950000103563","","image-keyboard-response","338","250042","0.0-267.0","3B2X28YI3X17CP60YKHOIAVJXO9B6A","AEWGY34WUIA32","3R5LWXWHR0UE010DORDQUF3E2FPGXE","","img/set1/S2.jpg","68","2","structured_normal","68","true","structured_normal,random,structured_incentive","1,2,2,3","",""
"null","","html-keyboard-response","339","250396","0.0-268.0","3B2X28YI3X17CP60YKHOIAVJXO9B6A","AEWGY34WUIA32","3R5LWXWHR0UE010DORDQUF3E2FPGXE","","<img src=""img/set1/S2.jpg"" width=""540"" height = ""360"" style=""border:16px solid orange"">","null","","","","","","","",""
"null","","html-keyboard-response","340","250398","0.0-269.0","3B2X28YI3X17CP60YKHOIAVJXO9B6A","AEWGY34WUIA32","3R5LWXWHR0UE010DORDQUF3E2FPGXE","","","null","","","","","","","",""
"769.1249999916181","","image-keyboard-response","341","251169","0.0-270.0","3B2X28YI3X17CP60YKHOIAVJXO9B6A","AEWGY34WUIA32","3R5LWXWHR0UE010DORDQUF3E2FPGXE","","img/set1/S4.jpg","74","4","structured_normal","74","true","structured_normal,random,structured_incentive","1,2,2,3","",""
"null","","html-keyboard-response","342","251523","0.0-271.0","3B2X28YI3X17CP60YKHOIAVJXO9B6A","AEWGY34WUIA32","3R5LWXWHR0UE010DORDQUF3E2FPGXE","","<img src=""img/set1/S4.jpg"" width=""540"" height = ""360"" style=""border:16px solid orange"">","null","","","","","","","",""
"null","","html-keyboard-response","343","251525","0.0-272.0","3B2X28YI3X17CP60YKHOIAVJXO9B6A","AEWGY34WUIA32","3R5LWXWHR0UE010DORDQUF3E2FPGXE","","","null","","","","","","","",""
"722.6200000150129","","image-keyboard-response","344","252249","0.0-273.0","3B2X28YI3X17CP60YKHOIAVJXO9B6A","AEWGY34WUIA32","3R5LWXWHR0UE010DORDQUF3E2FPGXE","","img/set1/S3.jpg","72","3","structured_normal","72","true","structured_normal,random,structured_incentive","1,2,2,3","",""
"null","","html-keyboard-response","345","252603","0.0-274.0","3B2X28YI3X17CP60YKHOIAVJXO9B6A","AEWGY34WUIA32","3R5LWXWHR0UE010DORDQUF3E2FPGXE","","<img src=""img/set1/S3.jpg"" width=""540"" height = ""360"" style=""border:16px solid orange"">","null","","","","","","","",""
"null","","html-keyboard-response","346","252605","0.0-275.0","3B2X28YI3X17CP60YKHOIAVJXO9B6A","AEWGY34WUIA32","3R5LWXWHR0UE010DORDQUF3E2FPGXE","","","null","","","","","","","",""
"506.88000000081956","","image-keyboard-response","347","253114","0.0-276.0","3B2X28YI3X17CP60YKHOIAVJXO9B6A","AEWGY34WUIA32","3R5LWXWHR0UE010DORDQUF3E2FPGXE","","img/set1/S3.jpg","72","3","structured_normal","72","true","structured_normal,random,structured_incentive","1,2,2,3","",""
"null","","html-keyboard-response","348","253469","0.0-277.0","3B2X28YI3X17CP60YKHOIAVJXO9B6A","AEWGY34WUIA32","3R5LWXWHR0UE010DORDQUF3E2FPGXE","","<img src=""img/set1/S3.jpg"" width=""540"" height = ""360"" style=""border:16px solid orange"">","null","","","","","","","",""
"null","","html-keyboard-response","349","253471","0.0-278.0","3B2X28YI3X17CP60YKHOIAVJXO9B6A","AEWGY34WUIA32","3R5LWXWHR0UE010DORDQUF3E2FPGXE","","","null","","","","","","","",""
"656.6349999629892","","image-keyboard-response","350","254130","0.0-279.0","3B2X28YI3X17CP60YKHOIAVJXO9B6A","AEWGY34WUIA32","3R5LWXWHR0UE010DORDQUF3E2FPGXE","","img/set1/S4.jpg","74","4","structured_normal","74","true","structured_normal,random,structured_incentive","1,2,2,3","",""
"null","","html-keyboard-response","351","254483","0.0-280.0","3B2X28YI3X17CP60YKHOIAVJXO9B6A","AEWGY34WUIA32","3R5LWXWHR0UE010DORDQUF3E2FPGXE","","<img src=""img/set1/S4.jpg"" width=""540"" height = ""360"" style=""border:16px solid orange"">","null","","","","","","","",""
"null","","html-keyboard-response","352","254485","0.0-281.0","3B2X28YI3X17CP60YKHOIAVJXO9B6A","AEWGY34WUIA32","3R5LWXWHR0UE010DORDQUF3E2FPGXE","","","null","","","","","","","",""
"706.0599999967963","","image-keyboard-response","353","255193","0.0-282.0","3B2X28YI3X17CP60YKHOIAVJXO9B6A","AEWGY34WUIA32","3R5LWXWHR0UE010DORDQUF3E2FPGXE","","img/set1/S1.jpg","83","1","structured_normal","83","true","structured_normal,random,structured_incentive","1,2,2,3","",""
"null","","html-keyboard-response","354","255549","0.0-283.0","3B2X28YI3X17CP60YKHOIAVJXO9B6A","AEWGY34WUIA32","3R5LWXWHR0UE010DORDQUF3E2FPGXE","","<img src=""img/set1/S1.jpg"" width=""540"" height = ""360"" style=""border:16px solid orange"">","null","","","","","","","",""
"null","","html-keyboard-response","355","255553","0.0-284.0","3B2X28YI3X17CP60YKHOIAVJXO9B6A","AEWGY34WUIA32","3R5LWXWHR0UE010DORDQUF3E2FPGXE","","","null","","","","","","","",""
"663.4999999660067","","image-keyboard-response","356","256218","0.0-285.0","3B2X28YI3X17CP60YKHOIAVJXO9B6A","AEWGY34WUIA32","3R5LWXWHR0UE010DORDQUF3E2FPGXE","","img/set1/S2.jpg","68","2","structured_normal","68","true","structured_normal,random,structured_incentive","1,2,2,3","",""
"null","","html-keyboard-response","357","256573","0.0-286.0","3B2X28YI3X17CP60YKHOIAVJXO9B6A","AEWGY34WUIA32","3R5LWXWHR0UE010DORDQUF3E2FPGXE","","<img src=""img/set1/S2.jpg"" width=""540"" height = ""360"" style=""border:16px solid orange"">","null","","","","","","","",""
"null","","html-keyboard-response","358","256577","0.0-287.0","3B2X28YI3X17CP60YKHOIAVJXO9B6A","AEWGY34WUIA32","3R5LWXWHR0UE010DORDQUF3E2FPGXE","","","null","","","","","","","",""
"1030.6949999649078","","image-keyboard-response","359","257609","0.0-288.0","3B2X28YI3X17CP60YKHOIAVJXO9B6A","AEWGY34WUIA32","3R5LWXWHR0UE010DORDQUF3E2FPGXE","","img/set1/S3.jpg","72","3","structured_normal","72","true","structured_normal,random,structured_incentive","1,2,2,3","",""
"null","","html-keyboard-response","360","257963","0.0-289.0","3B2X28YI3X17CP60YKHOIAVJXO9B6A","AEWGY34WUIA32","3R5LWXWHR0UE010DORDQUF3E2FPGXE","","<img src=""img/set1/S3.jpg"" width=""540"" height = ""360"" style=""border:16px solid orange"">","null","","","","","","","",""
"null","","html-keyboard-response","361","257965","0.0-290.0","3B2X28YI3X17CP60YKHOIAVJXO9B6A","AEWGY34WUIA32","3R5LWXWHR0UE010DORDQUF3E2FPGXE","","","null","","","","","","","",""
"602.2950000478886","","image-keyboard-response","362","258570","0.0-291.0","3B2X28YI3X17CP60YKHOIAVJXO9B6A","AEWGY34WUIA32","3R5LWXWHR0UE010DORDQUF3E2FPGXE","","img/set1/S4.jpg","74","4","structured_normal","74","true","structured_normal,random,structured_incentive","1,2,2,3","",""
"null","","html-keyboard-response","363","258926","0.0-292.0","3B2X28YI3X17CP60YKHOIAVJXO9B6A","AEWGY34WUIA32","3R5LWXWHR0UE010DORDQUF3E2FPGXE","","<img src=""img/set1/S4.jpg"" width=""540"" height = ""360"" style=""border:16px solid orange"">","null","","","","","","","",""
"null","","html-keyboard-response","364","258929","0.0-293.0","3B2X28YI3X17CP60YKHOIAVJXO9B6A","AEWGY34WUIA32","3R5LWXWHR0UE010DORDQUF3E2FPGXE","","","null","","","","","","","",""
"583.115000044927","","image-keyboard-response","365","259514","0.0-294.0","3B2X28YI3X17CP60YKHOIAVJXO9B6A","AEWGY34WUIA32","3R5LWXWHR0UE010DORDQUF3E2FPGXE","","img/set1/S4.jpg","74","4","structured_normal","74","true","structured_normal,random,structured_incentive","1,2,2,3","",""
"null","","html-keyboard-response","366","259869","0.0-295.0","3B2X28YI3X17CP60YKHOIAVJXO9B6A","AEWGY34WUIA32","3R5LWXWHR0UE010DORDQUF3E2FPGXE","","<img src=""img/set1/S4.jpg"" width=""540"" height = ""360"" style=""border:16px solid orange"">","null","","","","","","","",""
"null","","html-keyboard-response","367","259872","0.0-296.0","3B2X28YI3X17CP60YKHOIAVJXO9B6A","AEWGY34WUIA32","3R5LWXWHR0UE010DORDQUF3E2FPGXE","","","null","","","","","","","",""
"775.5050000268966","","image-keyboard-response","368","260650","0.0-297.0","3B2X28YI3X17CP60YKHOIAVJXO9B6A","AEWGY34WUIA32","3R5LWXWHR0UE010DORDQUF3E2FPGXE","","img/set1/S1.jpg","83","1","structured_normal","83","true","structured_normal,random,structured_incentive","1,2,2,3","",""
"null","","html-keyboard-response","369","261006","0.0-298.0","3B2X28YI3X17CP60YKHOIAVJXO9B6A","AEWGY34WUIA32","3R5LWXWHR0UE010DORDQUF3E2FPGXE","","<img src=""img/set1/S1.jpg"" width=""540"" height = ""360"" style=""border:16px solid orange"">","null","","","","","","","",""
"null","","html-keyboard-response","370","261008","0.0-299.0","3B2X28YI3X17CP60YKHOIAVJXO9B6A","AEWGY34WUIA32","3R5LWXWHR0UE010DORDQUF3E2FPGXE","","","null","","","","","","","",""
"567.5799999735318","","image-keyboard-response","371","261578","0.0-300.0","3B2X28YI3X17CP60YKHOIAVJXO9B6A","AEWGY34WUIA32","3R5LWXWHR0UE010DORDQUF3E2FPGXE","","img/set1/S2.jpg","68","2","structured_normal","68","true","structured_normal,random,structured_incentive","1,2,2,3","",""
"null","","html-keyboard-response","372","261933","0.0-301.0","3B2X28YI3X17CP60YKHOIAVJXO9B6A","AEWGY34WUIA32","3R5LWXWHR0UE010DORDQUF3E2FPGXE","","<img src=""img/set1/S2.jpg"" width=""540"" height = ""360"" style=""border:16px solid orange"">","null","","","","","","","",""
"null","","html-keyboard-response","373","261935","0.0-302.0","3B2X28YI3X17CP60YKHOIAVJXO9B6A","AEWGY34WUIA32","3R5LWXWHR0UE010DORDQUF3E2FPGXE","","","null","","","","","","","",""
"697.5799999781884","","image-keyboard-response","374","262635","0.0-303.0","3B2X28YI3X17CP60YKHOIAVJXO9B6A","AEWGY34WUIA32","3R5LWXWHR0UE010DORDQUF3E2FPGXE","","img/set1/S2.jpg","68","2","structured_normal","68","true","structured_normal,random,structured_incentive","1,2,2,3","",""
"null","","html-keyboard-response","375","262989","0.0-304.0","3B2X28YI3X17CP60YKHOIAVJXO9B6A","AEWGY34WUIA32","3R5LWXWHR0UE010DORDQUF3E2FPGXE","","<img src=""img/set1/S2.jpg"" width=""540"" height = ""360"" style=""border:16px solid orange"">","null","","","","","","","",""
"null","","html-keyboard-response","376","262991","0.0-305.0","3B2X28YI3X17CP60YKHOIAVJXO9B6A","AEWGY34WUIA32","3R5LWXWHR0UE010DORDQUF3E2FPGXE","","","null","","","","","","","",""
"656.9000000017695","","image-keyboard-response","377","263650","0.0-306.0","3B2X28YI3X17CP60YKHOIAVJXO9B6A","AEWGY34WUIA32","3R5LWXWHR0UE010DORDQUF3E2FPGXE","","img/set1/S4.jpg","74","4","structured_normal","74","true","structured_normal,random,structured_incentive","1,2,2,3","",""
"null","","html-keyboard-response","378","264004","0.0-307.0","3B2X28YI3X17CP60YKHOIAVJXO9B6A","AEWGY34WUIA32","3R5LWXWHR0UE010DORDQUF3E2FPGXE","","<img src=""img/set1/S4.jpg"" width=""540"" height = ""360"" style=""border:16px solid orange"">","null","","","","","","","",""
"null","","html-keyboard-response","379","264007","0.0-308.0","3B2X28YI3X17CP60YKHOIAVJXO9B6A","AEWGY34WUIA32","3R5LWXWHR0UE010DORDQUF3E2FPGXE","","","null","","","","","","","",""
"712.7249999903142","","image-keyboard-response","380","264722","0.0-309.0","3B2X28YI3X17CP60YKHOIAVJXO9B6A","AEWGY34WUIA32","3R5LWXWHR0UE010DORDQUF3E2FPGXE","","img/set1/S1.jpg","83","1","structured_normal","83","true","structured_normal,random,structured_incentive","1,2,2,3","",""
"null","","html-keyboard-response","381","265078","0.0-310.0","3B2X28YI3X17CP60YKHOIAVJXO9B6A","AEWGY34WUIA32","3R5LWXWHR0UE010DORDQUF3E2FPGXE","","<img src=""img/set1/S1.jpg"" width=""540"" height = ""360"" style=""border:16px solid orange"">","null","","","","","","","",""
"null","","html-keyboard-response","382","265080","0.0-311.0","3B2X28YI3X17CP60YKHOIAVJXO9B6A","AEWGY34WUIA32","3R5LWXWHR0UE010DORDQUF3E2FPGXE","","","null","","","","","","","",""
"630.5200000060722","","image-keyboard-response","383","265714","0.0-312.0","3B2X28YI3X17CP60YKHOIAVJXO9B6A","AEWGY34WUIA32","3R5LWXWHR0UE010DORDQUF3E2FPGXE","","img/set1/S3.jpg","72","3","structured_normal","72","true","structured_normal,random,structured_incentive","1,2,2,3","",""
"null","","html-keyboard-response","384","266070","0.0-313.0","3B2X28YI3X17CP60YKHOIAVJXO9B6A","AEWGY34WUIA32","3R5LWXWHR0UE010DORDQUF3E2FPGXE","","<img src=""img/set1/S3.jpg"" width=""540"" height = ""360"" style=""border:16px solid orange"">","null","","","","","","","",""
"null","","html-keyboard-response","385","266073","0.0-314.0","3B2X28YI3X17CP60YKHOIAVJXO9B6A","AEWGY34WUIA32","3R5LWXWHR0UE010DORDQUF3E2FPGXE","","","null","","","","","","","",""
"1063.22499999078","","image-keyboard-response","386","267138","0.0-315.0","3B2X28YI3X17CP60YKHOIAVJXO9B6A","AEWGY34WUIA32","3R5LWXWHR0UE010DORDQUF3E2FPGXE","","img/set1/S1.jpg","83","1","structured_normal","83","true","structured_normal,random,structured_incentive","1,2,2,3","",""
"null","","html-keyboard-response","387","267494","0.0-316.0","3B2X28YI3X17CP60YKHOIAVJXO9B6A","AEWGY34WUIA32","3R5LWXWHR0UE010DORDQUF3E2FPGXE","","<img src=""img/set1/S1.jpg"" width=""540"" height = ""360"" style=""border:16px solid orange"">","null","","","","","","","",""
"null","","html-keyboard-response","388","267498","0.0-317.0","3B2X28YI3X17CP60YKHOIAVJXO9B6A","AEWGY34WUIA32","3R5LWXWHR0UE010DORDQUF3E2FPGXE","","","null","","","","","","","",""
"646.3700000313111","","image-keyboard-response","389","268146","0.0-318.0","3B2X28YI3X17CP60YKHOIAVJXO9B6A","AEWGY34WUIA32","3R5LWXWHR0UE010DORDQUF3E2FPGXE","","img/set1/S2.jpg","68","2","structured_normal","68","true","structured_normal,random,structured_incentive","1,2,2,3","",""
"null","","html-keyboard-response","390","268501","0.0-319.0","3B2X28YI3X17CP60YKHOIAVJXO9B6A","AEWGY34WUIA32","3R5LWXWHR0UE010DORDQUF3E2FPGXE","","<img src=""img/set1/S2.jpg"" width=""540"" height = ""360"" style=""border:16px solid orange"">","null","","","","","","","",""
"null","","html-keyboard-response","391","268504","0.0-320.0","3B2X28YI3X17CP60YKHOIAVJXO9B6A","AEWGY34WUIA32","3R5LWXWHR0UE010DORDQUF3E2FPGXE","","","null","","","","","","","",""
"574.945000000298","","image-keyboard-response","392","269082","0.0-321.0","3B2X28YI3X17CP60YKHOIAVJXO9B6A","AEWGY34WUIA32","3R5LWXWHR0UE010DORDQUF3E2FPGXE","","img/set1/S4.jpg","74","4","structured_normal","74","true","structured_normal,random,structured_incentive","1,2,2,3","",""
"null","","html-keyboard-response","393","269437","0.0-322.0","3B2X28YI3X17CP60YKHOIAVJXO9B6A","AEWGY34WUIA32","3R5LWXWHR0UE010DORDQUF3E2FPGXE","","<img src=""img/set1/S4.jpg"" width=""540"" height = ""360"" style=""border:16px solid orange"">","null","","","","","","","",""
"null","","html-keyboard-response","394","269440","0.0-323.0","3B2X28YI3X17CP60YKHOIAVJXO9B6A","AEWGY34WUIA32","3R5LWXWHR0UE010DORDQUF3E2FPGXE","","","null","","","","","","","",""
"728.5200000042096","","image-keyboard-response","395","270170","0.0-324.0","3B2X28YI3X17CP60YKHOIAVJXO9B6A","AEWGY34WUIA32","3R5LWXWHR0UE010DORDQUF3E2FPGXE","","img/set1/S1.jpg","83","1","structured_normal","83","true","structured_normal,random,structured_incentive","1,2,2,3","",""
"null","","html-keyboard-response","396","270526","0.0-325.0","3B2X28YI3X17CP60YKHOIAVJXO9B6A","AEWGY34WUIA32","3R5LWXWHR0UE010DORDQUF3E2FPGXE","","<img src=""img/set1/S1.jpg"" width=""540"" height = ""360"" style=""border:16px solid orange"">","null","","","","","","","",""
"null","","html-keyboard-response","397","270530","0.0-326.0","3B2X28YI3X17CP60YKHOIAVJXO9B6A","AEWGY34WUIA32","3R5LWXWHR0UE010DORDQUF3E2FPGXE","","","null","","","","","","","",""
"774.0549999871291","","image-keyboard-response","398","271306","0.0-327.0","3B2X28YI3X17CP60YKHOIAVJXO9B6A","AEWGY34WUIA32","3R5LWXWHR0UE010DORDQUF3E2FPGXE","","img/set1/S3.jpg","72","3","structured_normal","72","true","structured_normal,random,structured_incentive","1,2,2,3","",""
"null","","html-keyboard-response","399","271662","0.0-328.0","3B2X28YI3X17CP60YKHOIAVJXO9B6A","AEWGY34WUIA32","3R5LWXWHR0UE010DORDQUF3E2FPGXE","","<img src=""img/set1/S3.jpg"" width=""540"" height = ""360"" style=""border:16px solid orange"">","null","","","","","","","",""
"null","","html-keyboard-response","400","271664","0.0-329.0","3B2X28YI3X17CP60YKHOIAVJXO9B6A","AEWGY34WUIA32","3R5LWXWHR0UE010DORDQUF3E2FPGXE","","","null","","","","","","","",""
"720.2099999994971","","image-keyboard-response","401","272386","0.0-330.0","3B2X28YI3X17CP60YKHOIAVJXO9B6A","AEWGY34WUIA32","3R5LWXWHR0UE010DORDQUF3E2FPGXE","","img/set1/S2.jpg","68","2","structured_normal","68","true","structured_normal,random,structured_incentive","1,2,2,3","",""
"null","","html-keyboard-response","402","272739","0.0-331.0","3B2X28YI3X17CP60YKHOIAVJXO9B6A","AEWGY34WUIA32","3R5LWXWHR0UE010DORDQUF3E2FPGXE","","<img src=""img/set1/S2.jpg"" width=""540"" height = ""360"" style=""border:16px solid orange"">","null","","","","","","","",""
"null","","html-keyboard-response","403","272741","0.0-332.0","3B2X28YI3X17CP60YKHOIAVJXO9B6A","AEWGY34WUIA32","3R5LWXWHR0UE010DORDQUF3E2FPGXE","","","null","","","","","","","",""
"706.9400000036694","","image-keyboard-response","404","273450","0.0-333.0","3B2X28YI3X17CP60YKHOIAVJXO9B6A","AEWGY34WUIA32","3R5LWXWHR0UE010DORDQUF3E2FPGXE","","img/set1/S2.jpg","68","2","structured_normal","68","true","structured_normal,random,structured_incentive","1,2,2,3","",""
"null","","html-keyboard-response","405","273803","0.0-334.0","3B2X28YI3X17CP60YKHOIAVJXO9B6A","AEWGY34WUIA32","3R5LWXWHR0UE010DORDQUF3E2FPGXE","","<img src=""img/set1/S2.jpg"" width=""540"" height = ""360"" style=""border:16px solid orange"">","null","","","","","","","",""
"null","","html-keyboard-response","406","273805","0.0-335.0","3B2X28YI3X17CP60YKHOIAVJXO9B6A","AEWGY34WUIA32","3R5LWXWHR0UE010DORDQUF3E2FPGXE","","","null","","","","","","","",""
"763.5149999987334","","image-keyboard-response","407","274570","0.0-336.0","3B2X28YI3X17CP60YKHOIAVJXO9B6A","AEWGY34WUIA32","3R5LWXWHR0UE010DORDQUF3E2FPGXE","","img/set1/S3.jpg","72","3","structured_normal","72","true","structured_normal,random,structured_incentive","1,2,2,3","",""
"null","","html-keyboard-response","408","274925","0.0-337.0","3B2X28YI3X17CP60YKHOIAVJXO9B6A","AEWGY34WUIA32","3R5LWXWHR0UE010DORDQUF3E2FPGXE","","<img src=""img/set1/S3.jpg"" width=""540"" height = ""360"" style=""border:16px solid orange"">","null","","","","","","","",""
"null","","html-keyboard-response","409","274929","0.0-338.0","3B2X28YI3X17CP60YKHOIAVJXO9B6A","AEWGY34WUIA32","3R5LWXWHR0UE010DORDQUF3E2FPGXE","","","null","","","","","","","",""
