"rt","url","trial_type","trial_index","time_elapsed","internal_node_id","assignmentID","mturkID","hitID","view_history","stimulus","key_press","state","test_part","correct_response","correct","order_block","order_chunk","bonus","responses"
"4803.799999982119","consent.html","external-html","0","4945","0.0-0.0","3U4J9857OFXQGPK5HUMGOOVFSZTB79","AK3H5QRAROFGP","3XUSYT70ITN3RRKBJPNBFGD6FGOD06","","","","","","","","","","",""
"74424.39999997616","","instructions","1","79374","0.0-1.0","3U4J9857OFXQGPK5HUMGOOVFSZTB79","AK3H5QRAROFGP","3XUSYT70ITN3RRKBJPNBFGD6FGOD06","[{""page_index"":0,""viewing_time"":4482.899999976158},{""page_index"":1,""viewing_time"":7605.4000000059605},{""page_index"":2,""viewing_time"":8911.5},{""page_index"":3,""viewing_time"":16780.09999999404},{""page_index"":4,""viewing_time"":7817.9000000059605},{""page_index"":5,""viewing_time"":14433.40000000596},{""page_index"":6,""viewing_time"":7900.4000000059605},{""page_index"":7,""viewing_time"":6490.9000000059605}]","","","","","","","","","",""
"671.5999999940395","","image-keyboard-response","2","80051","0.0-2.0-0.0","3U4J9857OFXQGPK5HUMGOOVFSZTB79","AK3H5QRAROFGP","3XUSYT70ITN3RRKBJPNBFGD6FGOD06","","img/practice/S1.jpg","83","1","practice","83","true","","","",""
"null","","html-keyboard-response","3","80357","0.0-2.0-1.0","3U4J9857OFXQGPK5HUMGOOVFSZTB79","AK3H5QRAROFGP","3XUSYT70ITN3RRKBJPNBFGD6FGOD06","","<img src=""img/practice/S1.jpg"" width=""540"" height = ""360"" style=""border:16px solid orange"">","null","","","","","","","",""
"null","","html-keyboard-response","4","80360","0.0-2.0-2.0","3U4J9857OFXQGPK5HUMGOOVFSZTB79","AK3H5QRAROFGP","3XUSYT70ITN3RRKBJPNBFGD6FGOD06","","","null","","","","","","","",""
"618.3000000119209","","image-keyboard-response","5","80982","0.0-2.0-0.1","3U4J9857OFXQGPK5HUMGOOVFSZTB79","AK3H5QRAROFGP","3XUSYT70ITN3RRKBJPNBFGD6FGOD06","","img/practice/S2.jpg","68","2","practice","68","true","","","",""
"null","","html-keyboard-response","6","81290","0.0-2.0-1.1","3U4J9857OFXQGPK5HUMGOOVFSZTB79","AK3H5QRAROFGP","3XUSYT70ITN3RRKBJPNBFGD6FGOD06","","<img src=""img/practice/S2.jpg"" width=""540"" height = ""360"" style=""border:16px solid orange"">","null","","","","","","","",""
"null","","html-keyboard-response","7","81294","0.0-2.0-2.1","3U4J9857OFXQGPK5HUMGOOVFSZTB79","AK3H5QRAROFGP","3XUSYT70ITN3RRKBJPNBFGD6FGOD06","","","null","","","","","","","",""
"733.2999999821186","","image-keyboard-response","8","82029","0.0-2.0-0.2","3U4J9857OFXQGPK5HUMGOOVFSZTB79","AK3H5QRAROFGP","3XUSYT70ITN3RRKBJPNBFGD6FGOD06","","img/practice/S4.jpg","72","4","practice","74","false","","","",""
"null","","html-keyboard-response","9","82332","0.0-2.0-1.2","3U4J9857OFXQGPK5HUMGOOVFSZTB79","AK3H5QRAROFGP","3XUSYT70ITN3RRKBJPNBFGD6FGOD06","","<img src=""img/practice/S4.jpg"" width=""540"" height = ""360"">","null","","","","","","","",""
"null","","html-keyboard-response","10","82335","0.0-2.0-2.2","3U4J9857OFXQGPK5HUMGOOVFSZTB79","AK3H5QRAROFGP","3XUSYT70ITN3RRKBJPNBFGD6FGOD06","","","null","","","","","","","",""
"778.0999999940395","","image-keyboard-response","11","83115","0.0-2.0-0.3","3U4J9857OFXQGPK5HUMGOOVFSZTB79","AK3H5QRAROFGP","3XUSYT70ITN3RRKBJPNBFGD6FGOD06","","img/practice/S3.jpg","74","3","practice","72","false","","","",""
"null","","html-keyboard-response","12","83423","0.0-2.0-1.3","3U4J9857OFXQGPK5HUMGOOVFSZTB79","AK3H5QRAROFGP","3XUSYT70ITN3RRKBJPNBFGD6FGOD06","","<img src=""img/practice/S3.jpg"" width=""540"" height = ""360"">","null","","","","","","","",""
"null","","html-keyboard-response","13","83425","0.0-2.0-2.3","3U4J9857OFXQGPK5HUMGOOVFSZTB79","AK3H5QRAROFGP","3XUSYT70ITN3RRKBJPNBFGD6FGOD06","","","null","","","","","","","",""
"2140.5999999940395","","image-keyboard-response","14","85568","0.0-2.0-0.4","3U4J9857OFXQGPK5HUMGOOVFSZTB79","AK3H5QRAROFGP","3XUSYT70ITN3RRKBJPNBFGD6FGOD06","","img/practice/S3.jpg","72","3","practice","72","true","","","",""
"null","","html-keyboard-response","15","85875","0.0-2.0-1.4","3U4J9857OFXQGPK5HUMGOOVFSZTB79","AK3H5QRAROFGP","3XUSYT70ITN3RRKBJPNBFGD6FGOD06","","<img src=""img/practice/S3.jpg"" width=""540"" height = ""360"" style=""border:16px solid orange"">","null","","","","","","","",""
"null","","html-keyboard-response","16","85877","0.0-2.0-2.4","3U4J9857OFXQGPK5HUMGOOVFSZTB79","AK3H5QRAROFGP","3XUSYT70ITN3RRKBJPNBFGD6FGOD06","","","null","","","","","","","",""
"1377.4000000059605","","image-keyboard-response","17","87257","0.0-2.0-0.5","3U4J9857OFXQGPK5HUMGOOVFSZTB79","AK3H5QRAROFGP","3XUSYT70ITN3RRKBJPNBFGD6FGOD06","","img/practice/S4.jpg","74","4","practice","74","true","","","",""
"null","","html-keyboard-response","18","87565","0.0-2.0-1.5","3U4J9857OFXQGPK5HUMGOOVFSZTB79","AK3H5QRAROFGP","3XUSYT70ITN3RRKBJPNBFGD6FGOD06","","<img src=""img/practice/S4.jpg"" width=""540"" height = ""360"" style=""border:16px solid orange"">","null","","","","","","","",""
"null","","html-keyboard-response","19","87567","0.0-2.0-2.5","3U4J9857OFXQGPK5HUMGOOVFSZTB79","AK3H5QRAROFGP","3XUSYT70ITN3RRKBJPNBFGD6FGOD06","","","null","","","","","","","",""
"810.2000000178814","","image-keyboard-response","20","88379","0.0-2.0-0.6","3U4J9857OFXQGPK5HUMGOOVFSZTB79","AK3H5QRAROFGP","3XUSYT70ITN3RRKBJPNBFGD6FGOD06","","img/practice/S1.jpg","83","1","practice","83","true","","","",""
"null","","html-keyboard-response","21","88687","0.0-2.0-1.6","3U4J9857OFXQGPK5HUMGOOVFSZTB79","AK3H5QRAROFGP","3XUSYT70ITN3RRKBJPNBFGD6FGOD06","","<img src=""img/practice/S1.jpg"" width=""540"" height = ""360"" style=""border:16px solid orange"">","null","","","","","","","",""
"null","","html-keyboard-response","22","88690","0.0-2.0-2.6","3U4J9857OFXQGPK5HUMGOOVFSZTB79","AK3H5QRAROFGP","3XUSYT70ITN3RRKBJPNBFGD6FGOD06","","","null","","","","","","","",""
"685.5","","image-keyboard-response","23","89378","0.0-2.0-0.7","3U4J9857OFXQGPK5HUMGOOVFSZTB79","AK3H5QRAROFGP","3XUSYT70ITN3RRKBJPNBFGD6FGOD06","","img/practice/S2.jpg","68","2","practice","68","true","","","",""
"null","","html-keyboard-response","24","89682","0.0-2.0-1.7","3U4J9857OFXQGPK5HUMGOOVFSZTB79","AK3H5QRAROFGP","3XUSYT70ITN3RRKBJPNBFGD6FGOD06","","<img src=""img/practice/S2.jpg"" width=""540"" height = ""360"" style=""border:16px solid orange"">","null","","","","","","","",""
"null","","html-keyboard-response","25","89684","0.0-2.0-2.7","3U4J9857OFXQGPK5HUMGOOVFSZTB79","AK3H5QRAROFGP","3XUSYT70ITN3RRKBJPNBFGD6FGOD06","","","null","","","","","","","",""
"936","","image-keyboard-response","26","90621","0.0-2.0-0.8","3U4J9857OFXQGPK5HUMGOOVFSZTB79","AK3H5QRAROFGP","3XUSYT70ITN3RRKBJPNBFGD6FGOD06","","img/practice/S3.jpg","74","3","practice","72","false","","","",""
"null","","html-keyboard-response","27","90928","0.0-2.0-1.8","3U4J9857OFXQGPK5HUMGOOVFSZTB79","AK3H5QRAROFGP","3XUSYT70ITN3RRKBJPNBFGD6FGOD06","","<img src=""img/practice/S3.jpg"" width=""540"" height = ""360"">","null","","","","","","","",""
"null","","html-keyboard-response","28","90930","0.0-2.0-2.8","3U4J9857OFXQGPK5HUMGOOVFSZTB79","AK3H5QRAROFGP","3XUSYT70ITN3RRKBJPNBFGD6FGOD06","","","null","","","","","","","",""
"150.90000000596046","","image-keyboard-response","29","91084","0.0-2.0-0.9","3U4J9857OFXQGPK5HUMGOOVFSZTB79","AK3H5QRAROFGP","3XUSYT70ITN3RRKBJPNBFGD6FGOD06","","img/practice/S4.jpg","72","4","practice","74","false","","","",""
"null","","html-keyboard-response","30","91387","0.0-2.0-1.9","3U4J9857OFXQGPK5HUMGOOVFSZTB79","AK3H5QRAROFGP","3XUSYT70ITN3RRKBJPNBFGD6FGOD06","","<img src=""img/practice/S4.jpg"" width=""540"" height = ""360"">","null","","","","","","","",""
"null","","html-keyboard-response","31","91389","0.0-2.0-2.9","3U4J9857OFXQGPK5HUMGOOVFSZTB79","AK3H5QRAROFGP","3XUSYT70ITN3RRKBJPNBFGD6FGOD06","","","null","","","","","","","",""
"871","","image-keyboard-response","32","92262","0.0-2.0-0.10","3U4J9857OFXQGPK5HUMGOOVFSZTB79","AK3H5QRAROFGP","3XUSYT70ITN3RRKBJPNBFGD6FGOD06","","img/practice/S1.jpg","83","1","practice","83","true","","","",""
"null","","html-keyboard-response","33","92568","0.0-2.0-1.10","3U4J9857OFXQGPK5HUMGOOVFSZTB79","AK3H5QRAROFGP","3XUSYT70ITN3RRKBJPNBFGD6FGOD06","","<img src=""img/practice/S1.jpg"" width=""540"" height = ""360"" style=""border:16px solid orange"">","null","","","","","","","",""
"null","","html-keyboard-response","34","92569","0.0-2.0-2.10","3U4J9857OFXQGPK5HUMGOOVFSZTB79","AK3H5QRAROFGP","3XUSYT70ITN3RRKBJPNBFGD6FGOD06","","","null","","","","","","","",""
"751.2000000178814","","image-keyboard-response","35","93322","0.0-2.0-0.11","3U4J9857OFXQGPK5HUMGOOVFSZTB79","AK3H5QRAROFGP","3XUSYT70ITN3RRKBJPNBFGD6FGOD06","","img/practice/S2.jpg","68","2","practice","68","true","","","",""
"null","","html-keyboard-response","36","93626","0.0-2.0-1.11","3U4J9857OFXQGPK5HUMGOOVFSZTB79","AK3H5QRAROFGP","3XUSYT70ITN3RRKBJPNBFGD6FGOD06","","<img src=""img/practice/S2.jpg"" width=""540"" height = ""360"" style=""border:16px solid orange"">","null","","","","","","","",""
"null","","html-keyboard-response","37","93628","0.0-2.0-2.11","3U4J9857OFXQGPK5HUMGOOVFSZTB79","AK3H5QRAROFGP","3XUSYT70ITN3RRKBJPNBFGD6FGOD06","","","null","","","","","","","",""
"761.8000000119209","","image-keyboard-response","38","94391","0.0-2.0-0.12","3U4J9857OFXQGPK5HUMGOOVFSZTB79","AK3H5QRAROFGP","3XUSYT70ITN3RRKBJPNBFGD6FGOD06","","img/practice/S2.jpg","68","2","practice","68","true","","","",""
"null","","html-keyboard-response","39","94693","0.0-2.0-1.12","3U4J9857OFXQGPK5HUMGOOVFSZTB79","AK3H5QRAROFGP","3XUSYT70ITN3RRKBJPNBFGD6FGOD06","","<img src=""img/practice/S2.jpg"" width=""540"" height = ""360"" style=""border:16px solid orange"">","null","","","","","","","",""
"null","","html-keyboard-response","40","94694","0.0-2.0-2.12","3U4J9857OFXQGPK5HUMGOOVFSZTB79","AK3H5QRAROFGP","3XUSYT70ITN3RRKBJPNBFGD6FGOD06","","","null","","","","","","","",""
"902.7000000178814","","image-keyboard-response","41","95597","0.0-2.0-0.13","3U4J9857OFXQGPK5HUMGOOVFSZTB79","AK3H5QRAROFGP","3XUSYT70ITN3RRKBJPNBFGD6FGOD06","","img/practice/S3.jpg","72","3","practice","72","true","","","",""
"null","","html-keyboard-response","42","95904","0.0-2.0-1.13","3U4J9857OFXQGPK5HUMGOOVFSZTB79","AK3H5QRAROFGP","3XUSYT70ITN3RRKBJPNBFGD6FGOD06","","<img src=""img/practice/S3.jpg"" width=""540"" height = ""360"" style=""border:16px solid orange"">","null","","","","","","","",""
"null","","html-keyboard-response","43","95906","0.0-2.0-2.13","3U4J9857OFXQGPK5HUMGOOVFSZTB79","AK3H5QRAROFGP","3XUSYT70ITN3RRKBJPNBFGD6FGOD06","","","null","","","","","","","",""
"691.1999999880791","","image-keyboard-response","44","96599","0.0-2.0-0.14","3U4J9857OFXQGPK5HUMGOOVFSZTB79","AK3H5QRAROFGP","3XUSYT70ITN3RRKBJPNBFGD6FGOD06","","img/practice/S4.jpg","74","4","practice","74","true","","","",""
"null","","html-keyboard-response","45","96906","0.0-2.0-1.14","3U4J9857OFXQGPK5HUMGOOVFSZTB79","AK3H5QRAROFGP","3XUSYT70ITN3RRKBJPNBFGD6FGOD06","","<img src=""img/practice/S4.jpg"" width=""540"" height = ""360"" style=""border:16px solid orange"">","null","","","","","","","",""
"null","","html-keyboard-response","46","96907","0.0-2.0-2.14","3U4J9857OFXQGPK5HUMGOOVFSZTB79","AK3H5QRAROFGP","3XUSYT70ITN3RRKBJPNBFGD6FGOD06","","","null","","","","","","","",""
"480","","image-keyboard-response","47","97389","0.0-2.0-0.15","3U4J9857OFXQGPK5HUMGOOVFSZTB79","AK3H5QRAROFGP","3XUSYT70ITN3RRKBJPNBFGD6FGOD06","","img/practice/S1.jpg","83","1","practice","83","true","","","",""
"null","","html-keyboard-response","48","97696","0.0-2.0-1.15","3U4J9857OFXQGPK5HUMGOOVFSZTB79","AK3H5QRAROFGP","3XUSYT70ITN3RRKBJPNBFGD6FGOD06","","<img src=""img/practice/S1.jpg"" width=""540"" height = ""360"" style=""border:16px solid orange"">","null","","","","","","","",""
"null","","html-keyboard-response","49","97698","0.0-2.0-2.15","3U4J9857OFXQGPK5HUMGOOVFSZTB79","AK3H5QRAROFGP","3XUSYT70ITN3RRKBJPNBFGD6FGOD06","","","null","","","","","","","",""
"861.1999999880791","","image-keyboard-response","50","98561","0.0-2.0-0.16","3U4J9857OFXQGPK5HUMGOOVFSZTB79","AK3H5QRAROFGP","3XUSYT70ITN3RRKBJPNBFGD6FGOD06","","img/practice/S2.jpg","68","2","practice","68","true","","","",""
"null","","html-keyboard-response","51","98868","0.0-2.0-1.16","3U4J9857OFXQGPK5HUMGOOVFSZTB79","AK3H5QRAROFGP","3XUSYT70ITN3RRKBJPNBFGD6FGOD06","","<img src=""img/practice/S2.jpg"" width=""540"" height = ""360"" style=""border:16px solid orange"">","null","","","","","","","",""
"null","","html-keyboard-response","52","98869","0.0-2.0-2.16","3U4J9857OFXQGPK5HUMGOOVFSZTB79","AK3H5QRAROFGP","3XUSYT70ITN3RRKBJPNBFGD6FGOD06","","","null","","","","","","","",""
"790.3000000119209","","image-keyboard-response","53","99660","0.0-2.0-0.17","3U4J9857OFXQGPK5HUMGOOVFSZTB79","AK3H5QRAROFGP","3XUSYT70ITN3RRKBJPNBFGD6FGOD06","","img/practice/S1.jpg","83","1","practice","83","true","","","",""
"null","","html-keyboard-response","54","99966","0.0-2.0-1.17","3U4J9857OFXQGPK5HUMGOOVFSZTB79","AK3H5QRAROFGP","3XUSYT70ITN3RRKBJPNBFGD6FGOD06","","<img src=""img/practice/S1.jpg"" width=""540"" height = ""360"" style=""border:16px solid orange"">","null","","","","","","","",""
"null","","html-keyboard-response","55","99968","0.0-2.0-2.17","3U4J9857OFXQGPK5HUMGOOVFSZTB79","AK3H5QRAROFGP","3XUSYT70ITN3RRKBJPNBFGD6FGOD06","","","null","","","","","","","",""
"1089.699999988079","","image-keyboard-response","56","101060","0.0-2.0-0.18","3U4J9857OFXQGPK5HUMGOOVFSZTB79","AK3H5QRAROFGP","3XUSYT70ITN3RRKBJPNBFGD6FGOD06","","img/practice/S3.jpg","72","3","practice","72","true","","","",""
"null","","html-keyboard-response","57","101363","0.0-2.0-1.18","3U4J9857OFXQGPK5HUMGOOVFSZTB79","AK3H5QRAROFGP","3XUSYT70ITN3RRKBJPNBFGD6FGOD06","","<img src=""img/practice/S3.jpg"" width=""540"" height = ""360"" style=""border:16px solid orange"">","null","","","","","","","",""
"null","","html-keyboard-response","58","101365","0.0-2.0-2.18","3U4J9857OFXQGPK5HUMGOOVFSZTB79","AK3H5QRAROFGP","3XUSYT70ITN3RRKBJPNBFGD6FGOD06","","","null","","","","","","","",""
"826","","image-keyboard-response","59","102193","0.0-2.0-0.19","3U4J9857OFXQGPK5HUMGOOVFSZTB79","AK3H5QRAROFGP","3XUSYT70ITN3RRKBJPNBFGD6FGOD06","","img/practice/S4.jpg","74","4","practice","74","true","","","",""
"null","","html-keyboard-response","60","102497","0.0-2.0-1.19","3U4J9857OFXQGPK5HUMGOOVFSZTB79","AK3H5QRAROFGP","3XUSYT70ITN3RRKBJPNBFGD6FGOD06","","<img src=""img/practice/S4.jpg"" width=""540"" height = ""360"" style=""border:16px solid orange"">","null","","","","","","","",""
"null","","html-keyboard-response","61","102500","0.0-2.0-2.19","3U4J9857OFXQGPK5HUMGOOVFSZTB79","AK3H5QRAROFGP","3XUSYT70ITN3RRKBJPNBFGD6FGOD06","","","null","","","","","","","",""
"679.5","","image-keyboard-response","62","103181","0.0-2.0-0.20","3U4J9857OFXQGPK5HUMGOOVFSZTB79","AK3H5QRAROFGP","3XUSYT70ITN3RRKBJPNBFGD6FGOD06","","img/practice/S4.jpg","74","4","practice","74","true","","","",""
"null","","html-keyboard-response","63","103484","0.0-2.0-1.20","3U4J9857OFXQGPK5HUMGOOVFSZTB79","AK3H5QRAROFGP","3XUSYT70ITN3RRKBJPNBFGD6FGOD06","","<img src=""img/practice/S4.jpg"" width=""540"" height = ""360"" style=""border:16px solid orange"">","null","","","","","","","",""
"null","","html-keyboard-response","64","103486","0.0-2.0-2.20","3U4J9857OFXQGPK5HUMGOOVFSZTB79","AK3H5QRAROFGP","3XUSYT70ITN3RRKBJPNBFGD6FGOD06","","","null","","","","","","","",""
"716.3000000119209","","image-keyboard-response","65","104204","0.0-2.0-0.21","3U4J9857OFXQGPK5HUMGOOVFSZTB79","AK3H5QRAROFGP","3XUSYT70ITN3RRKBJPNBFGD6FGOD06","","img/practice/S1.jpg","83","1","practice","83","true","","","",""
"null","","html-keyboard-response","66","104510","0.0-2.0-1.21","3U4J9857OFXQGPK5HUMGOOVFSZTB79","AK3H5QRAROFGP","3XUSYT70ITN3RRKBJPNBFGD6FGOD06","","<img src=""img/practice/S1.jpg"" width=""540"" height = ""360"" style=""border:16px solid orange"">","null","","","","","","","",""
"null","","html-keyboard-response","67","104512","0.0-2.0-2.21","3U4J9857OFXQGPK5HUMGOOVFSZTB79","AK3H5QRAROFGP","3XUSYT70ITN3RRKBJPNBFGD6FGOD06","","","null","","","","","","","",""
"977.2999999821186","","image-keyboard-response","68","105492","0.0-2.0-0.22","3U4J9857OFXQGPK5HUMGOOVFSZTB79","AK3H5QRAROFGP","3XUSYT70ITN3RRKBJPNBFGD6FGOD06","","img/practice/S3.jpg","74","3","practice","72","false","","","",""
"null","","html-keyboard-response","69","105799","0.0-2.0-1.22","3U4J9857OFXQGPK5HUMGOOVFSZTB79","AK3H5QRAROFGP","3XUSYT70ITN3RRKBJPNBFGD6FGOD06","","<img src=""img/practice/S3.jpg"" width=""540"" height = ""360"">","null","","","","","","","",""
"null","","html-keyboard-response","70","105802","0.0-2.0-2.22","3U4J9857OFXQGPK5HUMGOOVFSZTB79","AK3H5QRAROFGP","3XUSYT70ITN3RRKBJPNBFGD6FGOD06","","","null","","","","","","","",""
"39.20000001788139","","image-keyboard-response","71","105842","0.0-2.0-0.23","3U4J9857OFXQGPK5HUMGOOVFSZTB79","AK3H5QRAROFGP","3XUSYT70ITN3RRKBJPNBFGD6FGOD06","","img/practice/S2.jpg","72","2","practice","68","false","","","",""
"null","","html-keyboard-response","72","106149","0.0-2.0-1.23","3U4J9857OFXQGPK5HUMGOOVFSZTB79","AK3H5QRAROFGP","3XUSYT70ITN3RRKBJPNBFGD6FGOD06","","<img src=""img/practice/S2.jpg"" width=""540"" height = ""360"">","null","","","","","","","",""
"null","","html-keyboard-response","73","106151","0.0-2.0-2.23","3U4J9857OFXQGPK5HUMGOOVFSZTB79","AK3H5QRAROFGP","3XUSYT70ITN3RRKBJPNBFGD6FGOD06","","","null","","","","","","","",""
"3604.100000023842","","instructions","74","109756","0.0-3.0","3U4J9857OFXQGPK5HUMGOOVFSZTB79","AK3H5QRAROFGP","3XUSYT70ITN3RRKBJPNBFGD6FGOD06","[{""page_index"":0,""viewing_time"":3604.100000023842}]","","","","","","","","","",""
"9970.699999988079","","instructions","75","119727","0.0-4.0","3U4J9857OFXQGPK5HUMGOOVFSZTB79","AK3H5QRAROFGP","3XUSYT70ITN3RRKBJPNBFGD6FGOD06","[{""page_index"":0,""viewing_time"":9970.59999999404}]","","","","","","","","","",""
"3041.5","","instructions","76","122768","0.0-5.0","3U4J9857OFXQGPK5HUMGOOVFSZTB79","AK3H5QRAROFGP","3XUSYT70ITN3RRKBJPNBFGD6FGOD06","[{""page_index"":0,""viewing_time"":3041.300000011921}]","","","","","","","","","",""
"593.0999999940395","","image-keyboard-response","77","123363","0.0-6.0","3U4J9857OFXQGPK5HUMGOOVFSZTB79","AK3H5QRAROFGP","3XUSYT70ITN3RRKBJPNBFGD6FGOD06","","img/set1/S1.jpg","83","1","random","83","true","random,structured_incentive,structured_normal","1,2,2,3","",""
"null","","html-keyboard-response","78","123718","0.0-7.0","3U4J9857OFXQGPK5HUMGOOVFSZTB79","AK3H5QRAROFGP","3XUSYT70ITN3RRKBJPNBFGD6FGOD06","","<img src=""img/set1/S1.jpg"" width=""540"" height = ""360"" style=""border:16px solid orange"">","null","","","","","","","",""
"null","","html-keyboard-response","79","123719","0.0-8.0","3U4J9857OFXQGPK5HUMGOOVFSZTB79","AK3H5QRAROFGP","3XUSYT70ITN3RRKBJPNBFGD6FGOD06","","","null","","","","","","","",""
"636.5","","image-keyboard-response","80","124357","0.0-9.0","3U4J9857OFXQGPK5HUMGOOVFSZTB79","AK3H5QRAROFGP","3XUSYT70ITN3RRKBJPNBFGD6FGOD06","","img/set1/S3.jpg","68","3","random","72","false","random,structured_incentive,structured_normal","1,2,2,3","",""
"null","","html-keyboard-response","81","124714","0.0-10.0","3U4J9857OFXQGPK5HUMGOOVFSZTB79","AK3H5QRAROFGP","3XUSYT70ITN3RRKBJPNBFGD6FGOD06","","<img src=""img/set1/S3.jpg"" width=""540"" height = ""360"">","null","","","","","","","",""
"null","","html-keyboard-response","82","124715","0.0-11.0","3U4J9857OFXQGPK5HUMGOOVFSZTB79","AK3H5QRAROFGP","3XUSYT70ITN3RRKBJPNBFGD6FGOD06","","","null","","","","","","","",""
"710.5999999940395","","image-keyboard-response","83","125428","0.0-12.0","3U4J9857OFXQGPK5HUMGOOVFSZTB79","AK3H5QRAROFGP","3XUSYT70ITN3RRKBJPNBFGD6FGOD06","","img/set1/S4.jpg","72","4","random","74","false","random,structured_incentive,structured_normal","1,2,2,3","",""
"null","","html-keyboard-response","84","125785","0.0-13.0","3U4J9857OFXQGPK5HUMGOOVFSZTB79","AK3H5QRAROFGP","3XUSYT70ITN3RRKBJPNBFGD6FGOD06","","<img src=""img/set1/S4.jpg"" width=""540"" height = ""360"">","null","","","","","","","",""
"null","","html-keyboard-response","85","125787","0.0-14.0","3U4J9857OFXQGPK5HUMGOOVFSZTB79","AK3H5QRAROFGP","3XUSYT70ITN3RRKBJPNBFGD6FGOD06","","","null","","","","","","","",""
"533.4000000059605","","image-keyboard-response","86","126322","0.0-15.0","3U4J9857OFXQGPK5HUMGOOVFSZTB79","AK3H5QRAROFGP","3XUSYT70ITN3RRKBJPNBFGD6FGOD06","","img/set1/S2.jpg","74","2","random","68","false","random,structured_incentive,structured_normal","1,2,2,3","",""
"null","","html-keyboard-response","87","126681","0.0-16.0","3U4J9857OFXQGPK5HUMGOOVFSZTB79","AK3H5QRAROFGP","3XUSYT70ITN3RRKBJPNBFGD6FGOD06","","<img src=""img/set1/S2.jpg"" width=""540"" height = ""360"">","null","","","","","","","",""
"null","","html-keyboard-response","88","126683","0.0-17.0","3U4J9857OFXQGPK5HUMGOOVFSZTB79","AK3H5QRAROFGP","3XUSYT70ITN3RRKBJPNBFGD6FGOD06","","","null","","","","","","","",""
"841.9000000059605","","image-keyboard-response","89","127527","0.0-18.0","3U4J9857OFXQGPK5HUMGOOVFSZTB79","AK3H5QRAROFGP","3XUSYT70ITN3RRKBJPNBFGD6FGOD06","","img/set1/S3.jpg","83","3","random","72","false","random,structured_incentive,structured_normal","1,2,2,3","",""
"null","","html-keyboard-response","90","127884","0.0-19.0","3U4J9857OFXQGPK5HUMGOOVFSZTB79","AK3H5QRAROFGP","3XUSYT70ITN3RRKBJPNBFGD6FGOD06","","<img src=""img/set1/S3.jpg"" width=""540"" height = ""360"">","null","","","","","","","",""
"null","","html-keyboard-response","91","127886","0.0-20.0","3U4J9857OFXQGPK5HUMGOOVFSZTB79","AK3H5QRAROFGP","3XUSYT70ITN3RRKBJPNBFGD6FGOD06","","","null","","","","","","","",""
"744.9000000059605","","image-keyboard-response","92","128632","0.0-21.0","3U4J9857OFXQGPK5HUMGOOVFSZTB79","AK3H5QRAROFGP","3XUSYT70ITN3RRKBJPNBFGD6FGOD06","","img/set1/S4.jpg","83","4","random","74","false","random,structured_incentive,structured_normal","1,2,2,3","",""
"null","","html-keyboard-response","93","128990","0.0-22.0","3U4J9857OFXQGPK5HUMGOOVFSZTB79","AK3H5QRAROFGP","3XUSYT70ITN3RRKBJPNBFGD6FGOD06","","<img src=""img/set1/S4.jpg"" width=""540"" height = ""360"">","null","","","","","","","",""
"null","","html-keyboard-response","94","128992","0.0-23.0","3U4J9857OFXQGPK5HUMGOOVFSZTB79","AK3H5QRAROFGP","3XUSYT70ITN3RRKBJPNBFGD6FGOD06","","","null","","","","","","","",""
"692.9000000059605","","image-keyboard-response","95","129686","0.0-24.0","3U4J9857OFXQGPK5HUMGOOVFSZTB79","AK3H5QRAROFGP","3XUSYT70ITN3RRKBJPNBFGD6FGOD06","","img/set1/S3.jpg","83","3","random","72","false","random,structured_incentive,structured_normal","1,2,2,3","",""
"null","","html-keyboard-response","96","130041","0.0-25.0","3U4J9857OFXQGPK5HUMGOOVFSZTB79","AK3H5QRAROFGP","3XUSYT70ITN3RRKBJPNBFGD6FGOD06","","<img src=""img/set1/S3.jpg"" width=""540"" height = ""360"">","null","","","","","","","",""
"null","","html-keyboard-response","97","130044","0.0-26.0","3U4J9857OFXQGPK5HUMGOOVFSZTB79","AK3H5QRAROFGP","3XUSYT70ITN3RRKBJPNBFGD6FGOD06","","","null","","","","","","","",""
"719.1999999880791","","image-keyboard-response","98","130764","0.0-27.0","3U4J9857OFXQGPK5HUMGOOVFSZTB79","AK3H5QRAROFGP","3XUSYT70ITN3RRKBJPNBFGD6FGOD06","","img/set1/S4.jpg","83","4","random","74","false","random,structured_incentive,structured_normal","1,2,2,3","",""
"null","","html-keyboard-response","99","131121","0.0-28.0","3U4J9857OFXQGPK5HUMGOOVFSZTB79","AK3H5QRAROFGP","3XUSYT70ITN3RRKBJPNBFGD6FGOD06","","<img src=""img/set1/S4.jpg"" width=""540"" height = ""360"">","null","","","","","","","",""
"null","","html-keyboard-response","100","131123","0.0-29.0","3U4J9857OFXQGPK5HUMGOOVFSZTB79","AK3H5QRAROFGP","3XUSYT70ITN3RRKBJPNBFGD6FGOD06","","","null","","","","","","","",""
"479.5","","image-keyboard-response","101","131605","0.0-30.0","3U4J9857OFXQGPK5HUMGOOVFSZTB79","AK3H5QRAROFGP","3XUSYT70ITN3RRKBJPNBFGD6FGOD06","","img/set1/S3.jpg","68","3","random","72","false","random,structured_incentive,structured_normal","1,2,2,3","",""
"null","","html-keyboard-response","102","131963","0.0-31.0","3U4J9857OFXQGPK5HUMGOOVFSZTB79","AK3H5QRAROFGP","3XUSYT70ITN3RRKBJPNBFGD6FGOD06","","<img src=""img/set1/S3.jpg"" width=""540"" height = ""360"">","null","","","","","","","",""
"null","","html-keyboard-response","103","131965","0.0-32.0","3U4J9857OFXQGPK5HUMGOOVFSZTB79","AK3H5QRAROFGP","3XUSYT70ITN3RRKBJPNBFGD6FGOD06","","","null","","","","","","","",""
"862.7000000178814","","image-keyboard-response","104","132829","0.0-33.0","3U4J9857OFXQGPK5HUMGOOVFSZTB79","AK3H5QRAROFGP","3XUSYT70ITN3RRKBJPNBFGD6FGOD06","","img/set1/S4.jpg","68","4","random","74","false","random,structured_incentive,structured_normal","1,2,2,3","",""
"null","","html-keyboard-response","105","133186","0.0-34.0","3U4J9857OFXQGPK5HUMGOOVFSZTB79","AK3H5QRAROFGP","3XUSYT70ITN3RRKBJPNBFGD6FGOD06","","<img src=""img/set1/S4.jpg"" width=""540"" height = ""360"">","null","","","","","","","",""
"null","","html-keyboard-response","106","133189","0.0-35.0","3U4J9857OFXQGPK5HUMGOOVFSZTB79","AK3H5QRAROFGP","3XUSYT70ITN3RRKBJPNBFGD6FGOD06","","","null","","","","","","","",""
"893.0999999940395","","image-keyboard-response","107","134084","0.0-36.0","3U4J9857OFXQGPK5HUMGOOVFSZTB79","AK3H5QRAROFGP","3XUSYT70ITN3RRKBJPNBFGD6FGOD06","","img/set1/S1.jpg","83","1","random","83","true","random,structured_incentive,structured_normal","1,2,2,3","",""
"null","","html-keyboard-response","108","134443","0.0-37.0","3U4J9857OFXQGPK5HUMGOOVFSZTB79","AK3H5QRAROFGP","3XUSYT70ITN3RRKBJPNBFGD6FGOD06","","<img src=""img/set1/S1.jpg"" width=""540"" height = ""360"" style=""border:16px solid orange"">","null","","","","","","","",""
"null","","html-keyboard-response","109","134445","0.0-38.0","3U4J9857OFXQGPK5HUMGOOVFSZTB79","AK3H5QRAROFGP","3XUSYT70ITN3RRKBJPNBFGD6FGOD06","","","null","","","","","","","",""
"634.5999999940395","","image-keyboard-response","110","135082","0.0-39.0","3U4J9857OFXQGPK5HUMGOOVFSZTB79","AK3H5QRAROFGP","3XUSYT70ITN3RRKBJPNBFGD6FGOD06","","img/set1/S3.jpg","72","3","random","72","true","random,structured_incentive,structured_normal","1,2,2,3","",""
"null","","html-keyboard-response","111","135440","0.0-40.0","3U4J9857OFXQGPK5HUMGOOVFSZTB79","AK3H5QRAROFGP","3XUSYT70ITN3RRKBJPNBFGD6FGOD06","","<img src=""img/set1/S3.jpg"" width=""540"" height = ""360"" style=""border:16px solid orange"">","null","","","","","","","",""
"null","","html-keyboard-response","112","135443","0.0-41.0","3U4J9857OFXQGPK5HUMGOOVFSZTB79","AK3H5QRAROFGP","3XUSYT70ITN3RRKBJPNBFGD6FGOD06","","","null","","","","","","","",""
"749.8000000119209","","image-keyboard-response","113","136194","0.0-42.0","3U4J9857OFXQGPK5HUMGOOVFSZTB79","AK3H5QRAROFGP","3XUSYT70ITN3RRKBJPNBFGD6FGOD06","","img/set1/S4.jpg","74","4","random","74","true","random,structured_incentive,structured_normal","1,2,2,3","",""
"null","","html-keyboard-response","114","136551","0.0-43.0","3U4J9857OFXQGPK5HUMGOOVFSZTB79","AK3H5QRAROFGP","3XUSYT70ITN3RRKBJPNBFGD6FGOD06","","<img src=""img/set1/S4.jpg"" width=""540"" height = ""360"" style=""border:16px solid orange"">","null","","","","","","","",""
"null","","html-keyboard-response","115","136553","0.0-44.0","3U4J9857OFXQGPK5HUMGOOVFSZTB79","AK3H5QRAROFGP","3XUSYT70ITN3RRKBJPNBFGD6FGOD06","","","null","","","","","","","",""
"575.5","","image-keyboard-response","116","137131","0.0-45.0","3U4J9857OFXQGPK5HUMGOOVFSZTB79","AK3H5QRAROFGP","3XUSYT70ITN3RRKBJPNBFGD6FGOD06","","img/set1/S4.jpg","74","4","random","74","true","random,structured_incentive,structured_normal","1,2,2,3","",""
"null","","html-keyboard-response","117","137485","0.0-46.0","3U4J9857OFXQGPK5HUMGOOVFSZTB79","AK3H5QRAROFGP","3XUSYT70ITN3RRKBJPNBFGD6FGOD06","","<img src=""img/set1/S4.jpg"" width=""540"" height = ""360"" style=""border:16px solid orange"">","null","","","","","","","",""
"null","","html-keyboard-response","118","137488","0.0-47.0","3U4J9857OFXQGPK5HUMGOOVFSZTB79","AK3H5QRAROFGP","3XUSYT70ITN3RRKBJPNBFGD6FGOD06","","","null","","","","","","","",""
"701.1000000238419","","image-keyboard-response","119","138191","0.0-48.0","3U4J9857OFXQGPK5HUMGOOVFSZTB79","AK3H5QRAROFGP","3XUSYT70ITN3RRKBJPNBFGD6FGOD06","","img/set1/S2.jpg","68","2","random","68","true","random,structured_incentive,structured_normal","1,2,2,3","",""
"null","","html-keyboard-response","120","138549","0.0-49.0","3U4J9857OFXQGPK5HUMGOOVFSZTB79","AK3H5QRAROFGP","3XUSYT70ITN3RRKBJPNBFGD6FGOD06","","<img src=""img/set1/S2.jpg"" width=""540"" height = ""360"" style=""border:16px solid orange"">","null","","","","","","","",""
"null","","html-keyboard-response","121","138551","0.0-50.0","3U4J9857OFXQGPK5HUMGOOVFSZTB79","AK3H5QRAROFGP","3XUSYT70ITN3RRKBJPNBFGD6FGOD06","","","null","","","","","","","",""
"967","","image-keyboard-response","122","139520","0.0-51.0","3U4J9857OFXQGPK5HUMGOOVFSZTB79","AK3H5QRAROFGP","3XUSYT70ITN3RRKBJPNBFGD6FGOD06","","img/set1/S4.jpg","72","4","random","74","false","random,structured_incentive,structured_normal","1,2,2,3","",""
"null","","html-keyboard-response","123","139874","0.0-52.0","3U4J9857OFXQGPK5HUMGOOVFSZTB79","AK3H5QRAROFGP","3XUSYT70ITN3RRKBJPNBFGD6FGOD06","","<img src=""img/set1/S4.jpg"" width=""540"" height = ""360"">","null","","","","","","","",""
"null","","html-keyboard-response","124","139875","0.0-53.0","3U4J9857OFXQGPK5HUMGOOVFSZTB79","AK3H5QRAROFGP","3XUSYT70ITN3RRKBJPNBFGD6FGOD06","","","null","","","","","","","",""
"170.90000000596046","","image-keyboard-response","125","140048","0.0-54.0","3U4J9857OFXQGPK5HUMGOOVFSZTB79","AK3H5QRAROFGP","3XUSYT70ITN3RRKBJPNBFGD6FGOD06","","img/set1/S3.jpg","74","3","random","72","false","random,structured_incentive,structured_normal","1,2,2,3","",""
"null","","html-keyboard-response","126","140406","0.0-55.0","3U4J9857OFXQGPK5HUMGOOVFSZTB79","AK3H5QRAROFGP","3XUSYT70ITN3RRKBJPNBFGD6FGOD06","","<img src=""img/set1/S3.jpg"" width=""540"" height = ""360"">","null","","","","","","","",""
"null","","html-keyboard-response","127","140408","0.0-56.0","3U4J9857OFXQGPK5HUMGOOVFSZTB79","AK3H5QRAROFGP","3XUSYT70ITN3RRKBJPNBFGD6FGOD06","","","null","","","","","","","",""
"660.0999999940395","","image-keyboard-response","128","141070","0.0-57.0","3U4J9857OFXQGPK5HUMGOOVFSZTB79","AK3H5QRAROFGP","3XUSYT70ITN3RRKBJPNBFGD6FGOD06","","img/set1/S3.jpg","68","3","random","72","false","random,structured_incentive,structured_normal","1,2,2,3","",""
"null","","html-keyboard-response","129","141429","0.0-58.0","3U4J9857OFXQGPK5HUMGOOVFSZTB79","AK3H5QRAROFGP","3XUSYT70ITN3RRKBJPNBFGD6FGOD06","","<img src=""img/set1/S3.jpg"" width=""540"" height = ""360"">","null","","","","","","","",""
"null","","html-keyboard-response","130","141431","0.0-59.0","3U4J9857OFXQGPK5HUMGOOVFSZTB79","AK3H5QRAROFGP","3XUSYT70ITN3RRKBJPNBFGD6FGOD06","","","null","","","","","","","",""
"723.1000000238419","","image-keyboard-response","131","142156","0.0-60.0","3U4J9857OFXQGPK5HUMGOOVFSZTB79","AK3H5QRAROFGP","3XUSYT70ITN3RRKBJPNBFGD6FGOD06","","img/set1/S3.jpg","74","3","random","72","false","random,structured_incentive,structured_normal","1,2,2,3","",""
"null","","html-keyboard-response","132","142515","0.0-61.0","3U4J9857OFXQGPK5HUMGOOVFSZTB79","AK3H5QRAROFGP","3XUSYT70ITN3RRKBJPNBFGD6FGOD06","","<img src=""img/set1/S3.jpg"" width=""540"" height = ""360"">","null","","","","","","","",""
"null","","html-keyboard-response","133","142517","0.0-62.0","3U4J9857OFXQGPK5HUMGOOVFSZTB79","AK3H5QRAROFGP","3XUSYT70ITN3RRKBJPNBFGD6FGOD06","","","null","","","","","","","",""
"962.3000000119209","","image-keyboard-response","134","143481","0.0-63.0","3U4J9857OFXQGPK5HUMGOOVFSZTB79","AK3H5QRAROFGP","3XUSYT70ITN3RRKBJPNBFGD6FGOD06","","img/set1/S1.jpg","83","1","random","83","true","random,structured_incentive,structured_normal","1,2,2,3","",""
"null","","html-keyboard-response","135","143840","0.0-64.0","3U4J9857OFXQGPK5HUMGOOVFSZTB79","AK3H5QRAROFGP","3XUSYT70ITN3RRKBJPNBFGD6FGOD06","","<img src=""img/set1/S1.jpg"" width=""540"" height = ""360"" style=""border:16px solid orange"">","null","","","","","","","",""
"null","","html-keyboard-response","136","143842","0.0-65.0","3U4J9857OFXQGPK5HUMGOOVFSZTB79","AK3H5QRAROFGP","3XUSYT70ITN3RRKBJPNBFGD6FGOD06","","","null","","","","","","","",""
"688.3000000119209","","image-keyboard-response","137","144533","0.0-66.0","3U4J9857OFXQGPK5HUMGOOVFSZTB79","AK3H5QRAROFGP","3XUSYT70ITN3RRKBJPNBFGD6FGOD06","","img/set1/S3.jpg","72","3","random","72","true","random,structured_incentive,structured_normal","1,2,2,3","",""
"null","","html-keyboard-response","138","144891","0.0-67.0","3U4J9857OFXQGPK5HUMGOOVFSZTB79","AK3H5QRAROFGP","3XUSYT70ITN3RRKBJPNBFGD6FGOD06","","<img src=""img/set1/S3.jpg"" width=""540"" height = ""360"" style=""border:16px solid orange"">","null","","","","","","","",""
"null","","html-keyboard-response","139","144893","0.0-68.0","3U4J9857OFXQGPK5HUMGOOVFSZTB79","AK3H5QRAROFGP","3XUSYT70ITN3RRKBJPNBFGD6FGOD06","","","null","","","","","","","",""
"1000.8000000119209","","image-keyboard-response","140","145894","0.0-69.0","3U4J9857OFXQGPK5HUMGOOVFSZTB79","AK3H5QRAROFGP","3XUSYT70ITN3RRKBJPNBFGD6FGOD06","","img/set1/S1.jpg","83","1","random","83","true","random,structured_incentive,structured_normal","1,2,2,3","",""
"null","","html-keyboard-response","141","146251","0.0-70.0","3U4J9857OFXQGPK5HUMGOOVFSZTB79","AK3H5QRAROFGP","3XUSYT70ITN3RRKBJPNBFGD6FGOD06","","<img src=""img/set1/S1.jpg"" width=""540"" height = ""360"" style=""border:16px solid orange"">","null","","","","","","","",""
"null","","html-keyboard-response","142","146254","0.0-71.0","3U4J9857OFXQGPK5HUMGOOVFSZTB79","AK3H5QRAROFGP","3XUSYT70ITN3RRKBJPNBFGD6FGOD06","","","null","","","","","","","",""
"656","","image-keyboard-response","143","146912","0.0-72.0","3U4J9857OFXQGPK5HUMGOOVFSZTB79","AK3H5QRAROFGP","3XUSYT70ITN3RRKBJPNBFGD6FGOD06","","img/set1/S1.jpg","83","1","random","83","true","random,structured_incentive,structured_normal","1,2,2,3","",""
"null","","html-keyboard-response","144","147270","0.0-73.0","3U4J9857OFXQGPK5HUMGOOVFSZTB79","AK3H5QRAROFGP","3XUSYT70ITN3RRKBJPNBFGD6FGOD06","","<img src=""img/set1/S1.jpg"" width=""540"" height = ""360"" style=""border:16px solid orange"">","null","","","","","","","",""
"null","","html-keyboard-response","145","147272","0.0-74.0","3U4J9857OFXQGPK5HUMGOOVFSZTB79","AK3H5QRAROFGP","3XUSYT70ITN3RRKBJPNBFGD6FGOD06","","","null","","","","","","","",""
"667.2999999821186","","image-keyboard-response","146","147942","0.0-75.0","3U4J9857OFXQGPK5HUMGOOVFSZTB79","AK3H5QRAROFGP","3XUSYT70ITN3RRKBJPNBFGD6FGOD06","","img/set1/S3.jpg","72","3","random","72","true","random,structured_incentive,structured_normal","1,2,2,3","",""
"null","","html-keyboard-response","147","148300","0.0-76.0","3U4J9857OFXQGPK5HUMGOOVFSZTB79","AK3H5QRAROFGP","3XUSYT70ITN3RRKBJPNBFGD6FGOD06","","<img src=""img/set1/S3.jpg"" width=""540"" height = ""360"" style=""border:16px solid orange"">","null","","","","","","","",""
"null","","html-keyboard-response","148","148302","0.0-77.0","3U4J9857OFXQGPK5HUMGOOVFSZTB79","AK3H5QRAROFGP","3XUSYT70ITN3RRKBJPNBFGD6FGOD06","","","null","","","","","","","",""
"808.2999999821186","","image-keyboard-response","149","149112","0.0-78.0","3U4J9857OFXQGPK5HUMGOOVFSZTB79","AK3H5QRAROFGP","3XUSYT70ITN3RRKBJPNBFGD6FGOD06","","img/set1/S2.jpg","68","2","random","68","true","random,structured_incentive,structured_normal","1,2,2,3","",""
"null","","html-keyboard-response","150","149470","0.0-79.0","3U4J9857OFXQGPK5HUMGOOVFSZTB79","AK3H5QRAROFGP","3XUSYT70ITN3RRKBJPNBFGD6FGOD06","","<img src=""img/set1/S2.jpg"" width=""540"" height = ""360"" style=""border:16px solid orange"">","null","","","","","","","",""
"null","","html-keyboard-response","151","149472","0.0-80.0","3U4J9857OFXQGPK5HUMGOOVFSZTB79","AK3H5QRAROFGP","3XUSYT70ITN3RRKBJPNBFGD6FGOD06","","","null","","","","","","","",""
"693.3000000119209","","image-keyboard-response","152","150168","0.0-81.0","3U4J9857OFXQGPK5HUMGOOVFSZTB79","AK3H5QRAROFGP","3XUSYT70ITN3RRKBJPNBFGD6FGOD06","","img/set1/S4.jpg","74","4","random","74","true","random,structured_incentive,structured_normal","1,2,2,3","",""
"null","","html-keyboard-response","153","150525","0.0-82.0","3U4J9857OFXQGPK5HUMGOOVFSZTB79","AK3H5QRAROFGP","3XUSYT70ITN3RRKBJPNBFGD6FGOD06","","<img src=""img/set1/S4.jpg"" width=""540"" height = ""360"" style=""border:16px solid orange"">","null","","","","","","","",""
"null","","html-keyboard-response","154","150528","0.0-83.0","3U4J9857OFXQGPK5HUMGOOVFSZTB79","AK3H5QRAROFGP","3XUSYT70ITN3RRKBJPNBFGD6FGOD06","","","null","","","","","","","",""
"663.4000000059605","","image-keyboard-response","155","151193","0.0-84.0","3U4J9857OFXQGPK5HUMGOOVFSZTB79","AK3H5QRAROFGP","3XUSYT70ITN3RRKBJPNBFGD6FGOD06","","img/set1/S2.jpg","68","2","random","68","true","random,structured_incentive,structured_normal","1,2,2,3","",""
"null","","html-keyboard-response","156","151553","0.0-85.0","3U4J9857OFXQGPK5HUMGOOVFSZTB79","AK3H5QRAROFGP","3XUSYT70ITN3RRKBJPNBFGD6FGOD06","","<img src=""img/set1/S2.jpg"" width=""540"" height = ""360"" style=""border:16px solid orange"">","null","","","","","","","",""
"null","","html-keyboard-response","157","151556","0.0-86.0","3U4J9857OFXQGPK5HUMGOOVFSZTB79","AK3H5QRAROFGP","3XUSYT70ITN3RRKBJPNBFGD6FGOD06","","","null","","","","","","","",""
"719.6999999880791","","image-keyboard-response","158","152278","0.0-87.0","3U4J9857OFXQGPK5HUMGOOVFSZTB79","AK3H5QRAROFGP","3XUSYT70ITN3RRKBJPNBFGD6FGOD06","","img/set1/S1.jpg","83","1","random","83","true","random,structured_incentive,structured_normal","1,2,2,3","",""
"null","","html-keyboard-response","159","152636","0.0-88.0","3U4J9857OFXQGPK5HUMGOOVFSZTB79","AK3H5QRAROFGP","3XUSYT70ITN3RRKBJPNBFGD6FGOD06","","<img src=""img/set1/S1.jpg"" width=""540"" height = ""360"" style=""border:16px solid orange"">","null","","","","","","","",""
"null","","html-keyboard-response","160","152638","0.0-89.0","3U4J9857OFXQGPK5HUMGOOVFSZTB79","AK3H5QRAROFGP","3XUSYT70ITN3RRKBJPNBFGD6FGOD06","","","null","","","","","","","",""
"941.0999999940395","","image-keyboard-response","161","153581","0.0-90.0","3U4J9857OFXQGPK5HUMGOOVFSZTB79","AK3H5QRAROFGP","3XUSYT70ITN3RRKBJPNBFGD6FGOD06","","img/set1/S4.jpg","68","4","random","74","false","random,structured_incentive,structured_normal","1,2,2,3","",""
"null","","html-keyboard-response","162","153934","0.0-91.0","3U4J9857OFXQGPK5HUMGOOVFSZTB79","AK3H5QRAROFGP","3XUSYT70ITN3RRKBJPNBFGD6FGOD06","","<img src=""img/set1/S4.jpg"" width=""540"" height = ""360"">","null","","","","","","","",""
"null","","html-keyboard-response","163","153936","0.0-92.0","3U4J9857OFXQGPK5HUMGOOVFSZTB79","AK3H5QRAROFGP","3XUSYT70ITN3RRKBJPNBFGD6FGOD06","","","null","","","","","","","",""
"933.8000000119209","","image-keyboard-response","164","154870","0.0-93.0","3U4J9857OFXQGPK5HUMGOOVFSZTB79","AK3H5QRAROFGP","3XUSYT70ITN3RRKBJPNBFGD6FGOD06","","img/set1/S2.jpg","68","2","random","68","true","random,structured_incentive,structured_normal","1,2,2,3","",""
"null","","html-keyboard-response","165","155227","0.0-94.0","3U4J9857OFXQGPK5HUMGOOVFSZTB79","AK3H5QRAROFGP","3XUSYT70ITN3RRKBJPNBFGD6FGOD06","","<img src=""img/set1/S2.jpg"" width=""540"" height = ""360"" style=""border:16px solid orange"">","null","","","","","","","",""
"null","","html-keyboard-response","166","155229","0.0-95.0","3U4J9857OFXQGPK5HUMGOOVFSZTB79","AK3H5QRAROFGP","3XUSYT70ITN3RRKBJPNBFGD6FGOD06","","","null","","","","","","","",""
"475.7999999821186","","image-keyboard-response","167","155706","0.0-96.0","3U4J9857OFXQGPK5HUMGOOVFSZTB79","AK3H5QRAROFGP","3XUSYT70ITN3RRKBJPNBFGD6FGOD06","","img/set1/S1.jpg","83","1","random","83","true","random,structured_incentive,structured_normal","1,2,2,3","",""
"null","","html-keyboard-response","168","156059","0.0-97.0","3U4J9857OFXQGPK5HUMGOOVFSZTB79","AK3H5QRAROFGP","3XUSYT70ITN3RRKBJPNBFGD6FGOD06","","<img src=""img/set1/S1.jpg"" width=""540"" height = ""360"" style=""border:16px solid orange"">","null","","","","","","","",""
"null","","html-keyboard-response","169","156061","0.0-98.0","3U4J9857OFXQGPK5HUMGOOVFSZTB79","AK3H5QRAROFGP","3XUSYT70ITN3RRKBJPNBFGD6FGOD06","","","null","","","","","","","",""
"749","","image-keyboard-response","170","156811","0.0-99.0","3U4J9857OFXQGPK5HUMGOOVFSZTB79","AK3H5QRAROFGP","3XUSYT70ITN3RRKBJPNBFGD6FGOD06","","img/set1/S3.jpg","72","3","random","72","true","random,structured_incentive,structured_normal","1,2,2,3","",""
"null","","html-keyboard-response","171","157168","0.0-100.0","3U4J9857OFXQGPK5HUMGOOVFSZTB79","AK3H5QRAROFGP","3XUSYT70ITN3RRKBJPNBFGD6FGOD06","","<img src=""img/set1/S3.jpg"" width=""540"" height = ""360"" style=""border:16px solid orange"">","null","","","","","","","",""
"null","","html-keyboard-response","172","157170","0.0-101.0","3U4J9857OFXQGPK5HUMGOOVFSZTB79","AK3H5QRAROFGP","3XUSYT70ITN3RRKBJPNBFGD6FGOD06","","","null","","","","","","","",""
"893.2999999821186","","image-keyboard-response","173","158065","0.0-102.0","3U4J9857OFXQGPK5HUMGOOVFSZTB79","AK3H5QRAROFGP","3XUSYT70ITN3RRKBJPNBFGD6FGOD06","","img/set1/S1.jpg","83","1","random","83","true","random,structured_incentive,structured_normal","1,2,2,3","",""
"null","","html-keyboard-response","174","158424","0.0-103.0","3U4J9857OFXQGPK5HUMGOOVFSZTB79","AK3H5QRAROFGP","3XUSYT70ITN3RRKBJPNBFGD6FGOD06","","<img src=""img/set1/S1.jpg"" width=""540"" height = ""360"" style=""border:16px solid orange"">","null","","","","","","","",""
"null","","html-keyboard-response","175","158426","0.0-104.0","3U4J9857OFXQGPK5HUMGOOVFSZTB79","AK3H5QRAROFGP","3XUSYT70ITN3RRKBJPNBFGD6FGOD06","","","null","","","","","","","",""
"712.7999999821186","","image-keyboard-response","176","159141","0.0-105.0","3U4J9857OFXQGPK5HUMGOOVFSZTB79","AK3H5QRAROFGP","3XUSYT70ITN3RRKBJPNBFGD6FGOD06","","img/set1/S3.jpg","72","3","random","72","true","random,structured_incentive,structured_normal","1,2,2,3","",""
"null","","html-keyboard-response","177","159499","0.0-106.0","3U4J9857OFXQGPK5HUMGOOVFSZTB79","AK3H5QRAROFGP","3XUSYT70ITN3RRKBJPNBFGD6FGOD06","","<img src=""img/set1/S3.jpg"" width=""540"" height = ""360"" style=""border:16px solid orange"">","null","","","","","","","",""
"null","","html-keyboard-response","178","159502","0.0-107.0","3U4J9857OFXQGPK5HUMGOOVFSZTB79","AK3H5QRAROFGP","3XUSYT70ITN3RRKBJPNBFGD6FGOD06","","","null","","","","","","","",""
"811.4000000059605","","image-keyboard-response","179","160315","0.0-108.0","3U4J9857OFXQGPK5HUMGOOVFSZTB79","AK3H5QRAROFGP","3XUSYT70ITN3RRKBJPNBFGD6FGOD06","","img/set1/S1.jpg","83","1","random","83","true","random,structured_incentive,structured_normal","1,2,2,3","",""
"null","","html-keyboard-response","180","160673","0.0-109.0","3U4J9857OFXQGPK5HUMGOOVFSZTB79","AK3H5QRAROFGP","3XUSYT70ITN3RRKBJPNBFGD6FGOD06","","<img src=""img/set1/S1.jpg"" width=""540"" height = ""360"" style=""border:16px solid orange"">","null","","","","","","","",""
"null","","html-keyboard-response","181","160676","0.0-110.0","3U4J9857OFXQGPK5HUMGOOVFSZTB79","AK3H5QRAROFGP","3XUSYT70ITN3RRKBJPNBFGD6FGOD06","","","null","","","","","","","",""
"787.4000000059605","","image-keyboard-response","182","161465","0.0-111.0","3U4J9857OFXQGPK5HUMGOOVFSZTB79","AK3H5QRAROFGP","3XUSYT70ITN3RRKBJPNBFGD6FGOD06","","img/set1/S2.jpg","68","2","random","68","true","random,structured_incentive,structured_normal","1,2,2,3","",""
"null","","html-keyboard-response","183","161818","0.0-112.0","3U4J9857OFXQGPK5HUMGOOVFSZTB79","AK3H5QRAROFGP","3XUSYT70ITN3RRKBJPNBFGD6FGOD06","","<img src=""img/set1/S2.jpg"" width=""540"" height = ""360"" style=""border:16px solid orange"">","null","","","","","","","",""
"null","","html-keyboard-response","184","161819","0.0-113.0","3U4J9857OFXQGPK5HUMGOOVFSZTB79","AK3H5QRAROFGP","3XUSYT70ITN3RRKBJPNBFGD6FGOD06","","","null","","","","","","","",""
"439.09999999403954","","image-keyboard-response","185","162260","0.0-114.0","3U4J9857OFXQGPK5HUMGOOVFSZTB79","AK3H5QRAROFGP","3XUSYT70ITN3RRKBJPNBFGD6FGOD06","","img/set1/S2.jpg","68","2","random","68","true","random,structured_incentive,structured_normal","1,2,2,3","",""
"null","","html-keyboard-response","186","162616","0.0-115.0","3U4J9857OFXQGPK5HUMGOOVFSZTB79","AK3H5QRAROFGP","3XUSYT70ITN3RRKBJPNBFGD6FGOD06","","<img src=""img/set1/S2.jpg"" width=""540"" height = ""360"" style=""border:16px solid orange"">","null","","","","","","","",""
"null","","html-keyboard-response","187","162617","0.0-116.0","3U4J9857OFXQGPK5HUMGOOVFSZTB79","AK3H5QRAROFGP","3XUSYT70ITN3RRKBJPNBFGD6FGOD06","","","null","","","","","","","",""
"463.2000000178814","","image-keyboard-response","188","163082","0.0-117.0","3U4J9857OFXQGPK5HUMGOOVFSZTB79","AK3H5QRAROFGP","3XUSYT70ITN3RRKBJPNBFGD6FGOD06","","img/set1/S2.jpg","68","2","random","68","true","random,structured_incentive,structured_normal","1,2,2,3","",""
"null","","html-keyboard-response","189","163440","0.0-118.0","3U4J9857OFXQGPK5HUMGOOVFSZTB79","AK3H5QRAROFGP","3XUSYT70ITN3RRKBJPNBFGD6FGOD06","","<img src=""img/set1/S2.jpg"" width=""540"" height = ""360"" style=""border:16px solid orange"">","null","","","","","","","",""
"null","","html-keyboard-response","190","163442","0.0-119.0","3U4J9857OFXQGPK5HUMGOOVFSZTB79","AK3H5QRAROFGP","3XUSYT70ITN3RRKBJPNBFGD6FGOD06","","","null","","","","","","","",""
"530.7999999821186","","image-keyboard-response","191","163976","0.0-120.0","3U4J9857OFXQGPK5HUMGOOVFSZTB79","AK3H5QRAROFGP","3XUSYT70ITN3RRKBJPNBFGD6FGOD06","","img/set1/S1.jpg","83","1","random","83","true","random,structured_incentive,structured_normal","1,2,2,3","",""
"null","","html-keyboard-response","192","164333","0.0-121.0","3U4J9857OFXQGPK5HUMGOOVFSZTB79","AK3H5QRAROFGP","3XUSYT70ITN3RRKBJPNBFGD6FGOD06","","<img src=""img/set1/S1.jpg"" width=""540"" height = ""360"" style=""border:16px solid orange"">","null","","","","","","","",""
"null","","html-keyboard-response","193","164335","0.0-122.0","3U4J9857OFXQGPK5HUMGOOVFSZTB79","AK3H5QRAROFGP","3XUSYT70ITN3RRKBJPNBFGD6FGOD06","","","null","","","","","","","",""
"652.3000000119209","","image-keyboard-response","194","164990","0.0-123.0","3U4J9857OFXQGPK5HUMGOOVFSZTB79","AK3H5QRAROFGP","3XUSYT70ITN3RRKBJPNBFGD6FGOD06","","img/set1/S2.jpg","68","2","random","68","true","random,structured_incentive,structured_normal","1,2,2,3","",""
"null","","html-keyboard-response","195","165343","0.0-124.0","3U4J9857OFXQGPK5HUMGOOVFSZTB79","AK3H5QRAROFGP","3XUSYT70ITN3RRKBJPNBFGD6FGOD06","","<img src=""img/set1/S2.jpg"" width=""540"" height = ""360"" style=""border:16px solid orange"">","null","","","","","","","",""
"null","","html-keyboard-response","196","165346","0.0-125.0","3U4J9857OFXQGPK5HUMGOOVFSZTB79","AK3H5QRAROFGP","3XUSYT70ITN3RRKBJPNBFGD6FGOD06","","","null","","","","","","","",""
"610","","image-keyboard-response","197","165957","0.0-126.0","3U4J9857OFXQGPK5HUMGOOVFSZTB79","AK3H5QRAROFGP","3XUSYT70ITN3RRKBJPNBFGD6FGOD06","","img/set1/S1.jpg","83","1","random","83","true","random,structured_incentive,structured_normal","1,2,2,3","",""
"null","","html-keyboard-response","198","166314","0.0-127.0","3U4J9857OFXQGPK5HUMGOOVFSZTB79","AK3H5QRAROFGP","3XUSYT70ITN3RRKBJPNBFGD6FGOD06","","<img src=""img/set1/S1.jpg"" width=""540"" height = ""360"" style=""border:16px solid orange"">","null","","","","","","","",""
"null","","html-keyboard-response","199","166317","0.0-128.0","3U4J9857OFXQGPK5HUMGOOVFSZTB79","AK3H5QRAROFGP","3XUSYT70ITN3RRKBJPNBFGD6FGOD06","","","null","","","","","","","",""
"476.59999999403954","","image-keyboard-response","200","166794","0.0-129.0","3U4J9857OFXQGPK5HUMGOOVFSZTB79","AK3H5QRAROFGP","3XUSYT70ITN3RRKBJPNBFGD6FGOD06","","img/set1/S2.jpg","68","2","random","68","true","random,structured_incentive,structured_normal","1,2,2,3","",""
"null","","html-keyboard-response","201","167151","0.0-130.0","3U4J9857OFXQGPK5HUMGOOVFSZTB79","AK3H5QRAROFGP","3XUSYT70ITN3RRKBJPNBFGD6FGOD06","","<img src=""img/set1/S2.jpg"" width=""540"" height = ""360"" style=""border:16px solid orange"">","null","","","","","","","",""
"null","","html-keyboard-response","202","167153","0.0-131.0","3U4J9857OFXQGPK5HUMGOOVFSZTB79","AK3H5QRAROFGP","3XUSYT70ITN3RRKBJPNBFGD6FGOD06","","","null","","","","","","","",""
"696.0999999940395","","image-keyboard-response","203","167851","0.0-132.0","3U4J9857OFXQGPK5HUMGOOVFSZTB79","AK3H5QRAROFGP","3XUSYT70ITN3RRKBJPNBFGD6FGOD06","","img/set1/S1.jpg","83","1","random","83","true","random,structured_incentive,structured_normal","1,2,2,3","",""
"null","","html-keyboard-response","204","168208","0.0-133.0","3U4J9857OFXQGPK5HUMGOOVFSZTB79","AK3H5QRAROFGP","3XUSYT70ITN3RRKBJPNBFGD6FGOD06","","<img src=""img/set1/S1.jpg"" width=""540"" height = ""360"" style=""border:16px solid orange"">","null","","","","","","","",""
"null","","html-keyboard-response","205","168210","0.0-134.0","3U4J9857OFXQGPK5HUMGOOVFSZTB79","AK3H5QRAROFGP","3XUSYT70ITN3RRKBJPNBFGD6FGOD06","","","null","","","","","","","",""
"518","","image-keyboard-response","206","168731","0.0-135.0","3U4J9857OFXQGPK5HUMGOOVFSZTB79","AK3H5QRAROFGP","3XUSYT70ITN3RRKBJPNBFGD6FGOD06","","img/set1/S2.jpg","68","2","random","68","true","random,structured_incentive,structured_normal","1,2,2,3","",""
"null","","html-keyboard-response","207","169089","0.0-136.0","3U4J9857OFXQGPK5HUMGOOVFSZTB79","AK3H5QRAROFGP","3XUSYT70ITN3RRKBJPNBFGD6FGOD06","","<img src=""img/set1/S2.jpg"" width=""540"" height = ""360"" style=""border:16px solid orange"">","null","","","","","","","",""
"null","","html-keyboard-response","208","169091","0.0-137.0","3U4J9857OFXQGPK5HUMGOOVFSZTB79","AK3H5QRAROFGP","3XUSYT70ITN3RRKBJPNBFGD6FGOD06","","","null","","","","","","","",""
"974.0999999940395","","image-keyboard-response","209","170067","0.0-138.0","3U4J9857OFXQGPK5HUMGOOVFSZTB79","AK3H5QRAROFGP","3XUSYT70ITN3RRKBJPNBFGD6FGOD06","","img/set1/S3.jpg","72","3","random","72","true","random,structured_incentive,structured_normal","1,2,2,3","",""
"null","","html-keyboard-response","210","170426","0.0-139.0","3U4J9857OFXQGPK5HUMGOOVFSZTB79","AK3H5QRAROFGP","3XUSYT70ITN3RRKBJPNBFGD6FGOD06","","<img src=""img/set1/S3.jpg"" width=""540"" height = ""360"" style=""border:16px solid orange"">","null","","","","","","","",""
"null","","html-keyboard-response","211","170428","0.0-140.0","3U4J9857OFXQGPK5HUMGOOVFSZTB79","AK3H5QRAROFGP","3XUSYT70ITN3RRKBJPNBFGD6FGOD06","","","null","","","","","","","",""
"818.3000000119209","","image-keyboard-response","212","171249","0.0-141.0","3U4J9857OFXQGPK5HUMGOOVFSZTB79","AK3H5QRAROFGP","3XUSYT70ITN3RRKBJPNBFGD6FGOD06","","img/set1/S1.jpg","83","1","random","83","true","random,structured_incentive,structured_normal","1,2,2,3","",""
"null","","html-keyboard-response","213","171605","0.0-142.0","3U4J9857OFXQGPK5HUMGOOVFSZTB79","AK3H5QRAROFGP","3XUSYT70ITN3RRKBJPNBFGD6FGOD06","","<img src=""img/set1/S1.jpg"" width=""540"" height = ""360"" style=""border:16px solid orange"">","null","","","","","","","",""
"null","","html-keyboard-response","214","171608","0.0-143.0","3U4J9857OFXQGPK5HUMGOOVFSZTB79","AK3H5QRAROFGP","3XUSYT70ITN3RRKBJPNBFGD6FGOD06","","","null","","","","","","","",""
"508.69999998807907","","image-keyboard-response","215","172119","0.0-144.0","3U4J9857OFXQGPK5HUMGOOVFSZTB79","AK3H5QRAROFGP","3XUSYT70ITN3RRKBJPNBFGD6FGOD06","","img/set1/S2.jpg","68","2","random","68","true","random,structured_incentive,structured_normal","1,2,2,3","",""
"null","","html-keyboard-response","216","172477","0.0-145.0","3U4J9857OFXQGPK5HUMGOOVFSZTB79","AK3H5QRAROFGP","3XUSYT70ITN3RRKBJPNBFGD6FGOD06","","<img src=""img/set1/S2.jpg"" width=""540"" height = ""360"" style=""border:16px solid orange"">","null","","","","","","","",""
"null","","html-keyboard-response","217","172479","0.0-146.0","3U4J9857OFXQGPK5HUMGOOVFSZTB79","AK3H5QRAROFGP","3XUSYT70ITN3RRKBJPNBFGD6FGOD06","","","null","","","","","","","",""
"629.5999999940395","","image-keyboard-response","218","173111","0.0-147.0","3U4J9857OFXQGPK5HUMGOOVFSZTB79","AK3H5QRAROFGP","3XUSYT70ITN3RRKBJPNBFGD6FGOD06","","img/set1/S1.jpg","83","1","random","83","true","random,structured_incentive,structured_normal","1,2,2,3","",""
"null","","html-keyboard-response","219","173469","0.0-148.0","3U4J9857OFXQGPK5HUMGOOVFSZTB79","AK3H5QRAROFGP","3XUSYT70ITN3RRKBJPNBFGD6FGOD06","","<img src=""img/set1/S1.jpg"" width=""540"" height = ""360"" style=""border:16px solid orange"">","null","","","","","","","",""
"null","","html-keyboard-response","220","173471","0.0-149.0","3U4J9857OFXQGPK5HUMGOOVFSZTB79","AK3H5QRAROFGP","3XUSYT70ITN3RRKBJPNBFGD6FGOD06","","","null","","","","","","","",""
"667.2999999821186","","image-keyboard-response","221","174141","0.0-150.0","3U4J9857OFXQGPK5HUMGOOVFSZTB79","AK3H5QRAROFGP","3XUSYT70ITN3RRKBJPNBFGD6FGOD06","","img/set1/S1.jpg","83","1","random","83","true","random,structured_incentive,structured_normal","1,2,2,3","",""
"null","","html-keyboard-response","222","174495","0.0-151.0","3U4J9857OFXQGPK5HUMGOOVFSZTB79","AK3H5QRAROFGP","3XUSYT70ITN3RRKBJPNBFGD6FGOD06","","<img src=""img/set1/S1.jpg"" width=""540"" height = ""360"" style=""border:16px solid orange"">","null","","","","","","","",""
"null","","html-keyboard-response","223","174497","0.0-152.0","3U4J9857OFXQGPK5HUMGOOVFSZTB79","AK3H5QRAROFGP","3XUSYT70ITN3RRKBJPNBFGD6FGOD06","","","null","","","","","","","",""
"460.30000001192093","","image-keyboard-response","224","174959","0.0-153.0","3U4J9857OFXQGPK5HUMGOOVFSZTB79","AK3H5QRAROFGP","3XUSYT70ITN3RRKBJPNBFGD6FGOD06","","img/set1/S1.jpg","83","1","random","83","true","random,structured_incentive,structured_normal","1,2,2,3","",""
"null","","html-keyboard-response","225","175316","0.0-154.0","3U4J9857OFXQGPK5HUMGOOVFSZTB79","AK3H5QRAROFGP","3XUSYT70ITN3RRKBJPNBFGD6FGOD06","","<img src=""img/set1/S1.jpg"" width=""540"" height = ""360"" style=""border:16px solid orange"">","null","","","","","","","",""
"null","","html-keyboard-response","226","175318","0.0-155.0","3U4J9857OFXQGPK5HUMGOOVFSZTB79","AK3H5QRAROFGP","3XUSYT70ITN3RRKBJPNBFGD6FGOD06","","","null","","","","","","","",""
"888.5","","image-keyboard-response","227","176208","0.0-156.0","3U4J9857OFXQGPK5HUMGOOVFSZTB79","AK3H5QRAROFGP","3XUSYT70ITN3RRKBJPNBFGD6FGOD06","","img/set1/S4.jpg","74","4","random","74","true","random,structured_incentive,structured_normal","1,2,2,3","",""
"null","","html-keyboard-response","228","176567","0.0-157.0","3U4J9857OFXQGPK5HUMGOOVFSZTB79","AK3H5QRAROFGP","3XUSYT70ITN3RRKBJPNBFGD6FGOD06","","<img src=""img/set1/S4.jpg"" width=""540"" height = ""360"" style=""border:16px solid orange"">","null","","","","","","","",""
"null","","html-keyboard-response","229","176569","0.0-158.0","3U4J9857OFXQGPK5HUMGOOVFSZTB79","AK3H5QRAROFGP","3XUSYT70ITN3RRKBJPNBFGD6FGOD06","","","null","","","","","","","",""
"597.3000000119209","","image-keyboard-response","230","177168","0.0-159.0","3U4J9857OFXQGPK5HUMGOOVFSZTB79","AK3H5QRAROFGP","3XUSYT70ITN3RRKBJPNBFGD6FGOD06","","img/set1/S3.jpg","72","3","random","72","true","random,structured_incentive,structured_normal","1,2,2,3","",""
"null","","html-keyboard-response","231","177527","0.0-160.0","3U4J9857OFXQGPK5HUMGOOVFSZTB79","AK3H5QRAROFGP","3XUSYT70ITN3RRKBJPNBFGD6FGOD06","","<img src=""img/set1/S3.jpg"" width=""540"" height = ""360"" style=""border:16px solid orange"">","null","","","","","","","",""
"null","","html-keyboard-response","232","177529","0.0-161.0","3U4J9857OFXQGPK5HUMGOOVFSZTB79","AK3H5QRAROFGP","3XUSYT70ITN3RRKBJPNBFGD6FGOD06","","","null","","","","","","","",""
"679.8000000119209","","image-keyboard-response","233","178211","0.0-162.0","3U4J9857OFXQGPK5HUMGOOVFSZTB79","AK3H5QRAROFGP","3XUSYT70ITN3RRKBJPNBFGD6FGOD06","","img/set1/S2.jpg","68","2","random","68","true","random,structured_incentive,structured_normal","1,2,2,3","",""
"null","","html-keyboard-response","234","178569","0.0-163.0","3U4J9857OFXQGPK5HUMGOOVFSZTB79","AK3H5QRAROFGP","3XUSYT70ITN3RRKBJPNBFGD6FGOD06","","<img src=""img/set1/S2.jpg"" width=""540"" height = ""360"" style=""border:16px solid orange"">","null","","","","","","","",""
"null","","html-keyboard-response","235","178571","0.0-164.0","3U4J9857OFXQGPK5HUMGOOVFSZTB79","AK3H5QRAROFGP","3XUSYT70ITN3RRKBJPNBFGD6FGOD06","","","null","","","","","","","",""
"557.3000000119209","","image-keyboard-response","236","179131","0.0-165.0","3U4J9857OFXQGPK5HUMGOOVFSZTB79","AK3H5QRAROFGP","3XUSYT70ITN3RRKBJPNBFGD6FGOD06","","img/set1/S1.jpg","83","1","random","83","true","random,structured_incentive,structured_normal","1,2,2,3","",""
"null","","html-keyboard-response","237","179489","0.0-166.0","3U4J9857OFXQGPK5HUMGOOVFSZTB79","AK3H5QRAROFGP","3XUSYT70ITN3RRKBJPNBFGD6FGOD06","","<img src=""img/set1/S1.jpg"" width=""540"" height = ""360"" style=""border:16px solid orange"">","null","","","","","","","",""
"null","","html-keyboard-response","238","179491","0.0-167.0","3U4J9857OFXQGPK5HUMGOOVFSZTB79","AK3H5QRAROFGP","3XUSYT70ITN3RRKBJPNBFGD6FGOD06","","","null","","","","","","","",""
"518","","image-keyboard-response","239","180011","0.0-168.0","3U4J9857OFXQGPK5HUMGOOVFSZTB79","AK3H5QRAROFGP","3XUSYT70ITN3RRKBJPNBFGD6FGOD06","","img/set1/S1.jpg","83","1","random","83","true","random,structured_incentive,structured_normal","1,2,2,3","",""
"null","","html-keyboard-response","240","180368","0.0-169.0","3U4J9857OFXQGPK5HUMGOOVFSZTB79","AK3H5QRAROFGP","3XUSYT70ITN3RRKBJPNBFGD6FGOD06","","<img src=""img/set1/S1.jpg"" width=""540"" height = ""360"" style=""border:16px solid orange"">","null","","","","","","","",""
"null","","html-keyboard-response","241","180370","0.0-170.0","3U4J9857OFXQGPK5HUMGOOVFSZTB79","AK3H5QRAROFGP","3XUSYT70ITN3RRKBJPNBFGD6FGOD06","","","null","","","","","","","",""
"521.7999999821186","","image-keyboard-response","242","180893","0.0-171.0","3U4J9857OFXQGPK5HUMGOOVFSZTB79","AK3H5QRAROFGP","3XUSYT70ITN3RRKBJPNBFGD6FGOD06","","img/set1/S4.jpg","68","4","random","74","false","random,structured_incentive,structured_normal","1,2,2,3","",""
"null","","html-keyboard-response","243","181249","0.0-172.0","3U4J9857OFXQGPK5HUMGOOVFSZTB79","AK3H5QRAROFGP","3XUSYT70ITN3RRKBJPNBFGD6FGOD06","","<img src=""img/set1/S4.jpg"" width=""540"" height = ""360"">","null","","","","","","","",""
"null","","html-keyboard-response","244","181251","0.0-173.0","3U4J9857OFXQGPK5HUMGOOVFSZTB79","AK3H5QRAROFGP","3XUSYT70ITN3RRKBJPNBFGD6FGOD06","","","null","","","","","","","",""
"826.5","","image-keyboard-response","245","182079","0.0-174.0","3U4J9857OFXQGPK5HUMGOOVFSZTB79","AK3H5QRAROFGP","3XUSYT70ITN3RRKBJPNBFGD6FGOD06","","img/set1/S2.jpg","68","2","random","68","true","random,structured_incentive,structured_normal","1,2,2,3","",""
"null","","html-keyboard-response","246","182438","0.0-175.0","3U4J9857OFXQGPK5HUMGOOVFSZTB79","AK3H5QRAROFGP","3XUSYT70ITN3RRKBJPNBFGD6FGOD06","","<img src=""img/set1/S2.jpg"" width=""540"" height = ""360"" style=""border:16px solid orange"">","null","","","","","","","",""
"null","","html-keyboard-response","247","182440","0.0-176.0","3U4J9857OFXQGPK5HUMGOOVFSZTB79","AK3H5QRAROFGP","3XUSYT70ITN3RRKBJPNBFGD6FGOD06","","","null","","","","","","","",""
"967.2000000178814","","image-keyboard-response","248","183409","0.0-177.0","3U4J9857OFXQGPK5HUMGOOVFSZTB79","AK3H5QRAROFGP","3XUSYT70ITN3RRKBJPNBFGD6FGOD06","","img/set1/S4.jpg","74","4","random","74","true","random,structured_incentive,structured_normal","1,2,2,3","",""
"null","","html-keyboard-response","249","183768","0.0-178.0","3U4J9857OFXQGPK5HUMGOOVFSZTB79","AK3H5QRAROFGP","3XUSYT70ITN3RRKBJPNBFGD6FGOD06","","<img src=""img/set1/S4.jpg"" width=""540"" height = ""360"" style=""border:16px solid orange"">","null","","","","","","","",""
"null","","html-keyboard-response","250","183770","0.0-179.0","3U4J9857OFXQGPK5HUMGOOVFSZTB79","AK3H5QRAROFGP","3XUSYT70ITN3RRKBJPNBFGD6FGOD06","","","null","","","","","","","",""
"768.5999999940395","","image-keyboard-response","251","184540","0.0-180.0","3U4J9857OFXQGPK5HUMGOOVFSZTB79","AK3H5QRAROFGP","3XUSYT70ITN3RRKBJPNBFGD6FGOD06","","img/set1/S2.jpg","68","2","random","68","true","random,structured_incentive,structured_normal","1,2,2,3","",""
"null","","html-keyboard-response","252","184893","0.0-181.0","3U4J9857OFXQGPK5HUMGOOVFSZTB79","AK3H5QRAROFGP","3XUSYT70ITN3RRKBJPNBFGD6FGOD06","","<img src=""img/set1/S2.jpg"" width=""540"" height = ""360"" style=""border:16px solid orange"">","null","","","","","","","",""
"null","","html-keyboard-response","253","184894","0.0-182.0","3U4J9857OFXQGPK5HUMGOOVFSZTB79","AK3H5QRAROFGP","3XUSYT70ITN3RRKBJPNBFGD6FGOD06","","","null","","","","","","","",""
"520","","image-keyboard-response","254","185416","0.0-183.0","3U4J9857OFXQGPK5HUMGOOVFSZTB79","AK3H5QRAROFGP","3XUSYT70ITN3RRKBJPNBFGD6FGOD06","","img/set1/S4.jpg","74","4","random","74","true","random,structured_incentive,structured_normal","1,2,2,3","",""
"null","","html-keyboard-response","255","185773","0.0-184.0","3U4J9857OFXQGPK5HUMGOOVFSZTB79","AK3H5QRAROFGP","3XUSYT70ITN3RRKBJPNBFGD6FGOD06","","<img src=""img/set1/S4.jpg"" width=""540"" height = ""360"" style=""border:16px solid orange"">","null","","","","","","","",""
"null","","html-keyboard-response","256","185775","0.0-185.0","3U4J9857OFXQGPK5HUMGOOVFSZTB79","AK3H5QRAROFGP","3XUSYT70ITN3RRKBJPNBFGD6FGOD06","","","null","","","","","","","",""
"652.6000000238419","","image-keyboard-response","257","186430","0.0-186.0","3U4J9857OFXQGPK5HUMGOOVFSZTB79","AK3H5QRAROFGP","3XUSYT70ITN3RRKBJPNBFGD6FGOD06","","img/set1/S2.jpg","68","2","random","68","true","random,structured_incentive,structured_normal","1,2,2,3","",""
"null","","html-keyboard-response","258","186784","0.0-187.0","3U4J9857OFXQGPK5HUMGOOVFSZTB79","AK3H5QRAROFGP","3XUSYT70ITN3RRKBJPNBFGD6FGOD06","","<img src=""img/set1/S2.jpg"" width=""540"" height = ""360"" style=""border:16px solid orange"">","null","","","","","","","",""
"null","","html-keyboard-response","259","186786","0.0-188.0","3U4J9857OFXQGPK5HUMGOOVFSZTB79","AK3H5QRAROFGP","3XUSYT70ITN3RRKBJPNBFGD6FGOD06","","","null","","","","","","","",""
"619.9000000059605","","image-keyboard-response","260","187408","0.0-189.0","3U4J9857OFXQGPK5HUMGOOVFSZTB79","AK3H5QRAROFGP","3XUSYT70ITN3RRKBJPNBFGD6FGOD06","","img/set1/S2.jpg","68","2","random","68","true","random,structured_incentive,structured_normal","1,2,2,3","",""
"null","","html-keyboard-response","261","187766","0.0-190.0","3U4J9857OFXQGPK5HUMGOOVFSZTB79","AK3H5QRAROFGP","3XUSYT70ITN3RRKBJPNBFGD6FGOD06","","<img src=""img/set1/S2.jpg"" width=""540"" height = ""360"" style=""border:16px solid orange"">","null","","","","","","","",""
"null","","html-keyboard-response","262","187768","0.0-191.0","3U4J9857OFXQGPK5HUMGOOVFSZTB79","AK3H5QRAROFGP","3XUSYT70ITN3RRKBJPNBFGD6FGOD06","","","null","","","","","","","",""
"768.7000000178814","","image-keyboard-response","263","188539","0.0-192.0","3U4J9857OFXQGPK5HUMGOOVFSZTB79","AK3H5QRAROFGP","3XUSYT70ITN3RRKBJPNBFGD6FGOD06","","img/set1/S4.jpg","74","4","random","74","true","random,structured_incentive,structured_normal","1,2,2,3","",""
"null","","html-keyboard-response","264","188897","0.0-193.0","3U4J9857OFXQGPK5HUMGOOVFSZTB79","AK3H5QRAROFGP","3XUSYT70ITN3RRKBJPNBFGD6FGOD06","","<img src=""img/set1/S4.jpg"" width=""540"" height = ""360"" style=""border:16px solid orange"">","null","","","","","","","",""
"null","","html-keyboard-response","265","188898","0.0-194.0","3U4J9857OFXQGPK5HUMGOOVFSZTB79","AK3H5QRAROFGP","3XUSYT70ITN3RRKBJPNBFGD6FGOD06","","","null","","","","","","","",""
"578.4000000059605","","image-keyboard-response","266","189478","0.0-195.0","3U4J9857OFXQGPK5HUMGOOVFSZTB79","AK3H5QRAROFGP","3XUSYT70ITN3RRKBJPNBFGD6FGOD06","","img/set1/S4.jpg","74","4","random","74","true","random,structured_incentive,structured_normal","1,2,2,3","",""
"null","","html-keyboard-response","267","189832","0.0-196.0","3U4J9857OFXQGPK5HUMGOOVFSZTB79","AK3H5QRAROFGP","3XUSYT70ITN3RRKBJPNBFGD6FGOD06","","<img src=""img/set1/S4.jpg"" width=""540"" height = ""360"" style=""border:16px solid orange"">","null","","","","","","","",""
"null","","html-keyboard-response","268","189834","0.0-197.0","3U4J9857OFXQGPK5HUMGOOVFSZTB79","AK3H5QRAROFGP","3XUSYT70ITN3RRKBJPNBFGD6FGOD06","","","null","","","","","","","",""
"496.30000001192093","","image-keyboard-response","269","190333","0.0-198.0","3U4J9857OFXQGPK5HUMGOOVFSZTB79","AK3H5QRAROFGP","3XUSYT70ITN3RRKBJPNBFGD6FGOD06","","img/set1/S4.jpg","74","4","random","74","true","random,structured_incentive,structured_normal","1,2,2,3","",""
"null","","html-keyboard-response","270","190691","0.0-199.0","3U4J9857OFXQGPK5HUMGOOVFSZTB79","AK3H5QRAROFGP","3XUSYT70ITN3RRKBJPNBFGD6FGOD06","","<img src=""img/set1/S4.jpg"" width=""540"" height = ""360"" style=""border:16px solid orange"">","null","","","","","","","",""
"null","","html-keyboard-response","271","190693","0.0-200.0","3U4J9857OFXQGPK5HUMGOOVFSZTB79","AK3H5QRAROFGP","3XUSYT70ITN3RRKBJPNBFGD6FGOD06","","","null","","","","","","","",""
"412","","image-keyboard-response","272","191107","0.0-201.0","3U4J9857OFXQGPK5HUMGOOVFSZTB79","AK3H5QRAROFGP","3XUSYT70ITN3RRKBJPNBFGD6FGOD06","","img/set1/S4.jpg","74","4","random","74","true","random,structured_incentive,structured_normal","1,2,2,3","",""
"null","","html-keyboard-response","273","191464","0.0-202.0","3U4J9857OFXQGPK5HUMGOOVFSZTB79","AK3H5QRAROFGP","3XUSYT70ITN3RRKBJPNBFGD6FGOD06","","<img src=""img/set1/S4.jpg"" width=""540"" height = ""360"" style=""border:16px solid orange"">","null","","","","","","","",""
"null","","html-keyboard-response","274","191465","0.0-203.0","3U4J9857OFXQGPK5HUMGOOVFSZTB79","AK3H5QRAROFGP","3XUSYT70ITN3RRKBJPNBFGD6FGOD06","","","null","","","","","","","",""
"596.8000000119209","","image-keyboard-response","275","192062","0.0-204.0","3U4J9857OFXQGPK5HUMGOOVFSZTB79","AK3H5QRAROFGP","3XUSYT70ITN3RRKBJPNBFGD6FGOD06","","img/set1/S3.jpg","72","3","random","72","true","random,structured_incentive,structured_normal","1,2,2,3","",""
"null","","html-keyboard-response","276","192419","0.0-205.0","3U4J9857OFXQGPK5HUMGOOVFSZTB79","AK3H5QRAROFGP","3XUSYT70ITN3RRKBJPNBFGD6FGOD06","","<img src=""img/set1/S3.jpg"" width=""540"" height = ""360"" style=""border:16px solid orange"">","null","","","","","","","",""
"null","","html-keyboard-response","277","192422","0.0-206.0","3U4J9857OFXQGPK5HUMGOOVFSZTB79","AK3H5QRAROFGP","3XUSYT70ITN3RRKBJPNBFGD6FGOD06","","","null","","","","","","","",""
"554.5999999940395","","image-keyboard-response","278","192977","0.0-207.0","3U4J9857OFXQGPK5HUMGOOVFSZTB79","AK3H5QRAROFGP","3XUSYT70ITN3RRKBJPNBFGD6FGOD06","","img/set1/S4.jpg","74","4","random","74","true","random,structured_incentive,structured_normal","1,2,2,3","",""
"null","","html-keyboard-response","279","193334","0.0-208.0","3U4J9857OFXQGPK5HUMGOOVFSZTB79","AK3H5QRAROFGP","3XUSYT70ITN3RRKBJPNBFGD6FGOD06","","<img src=""img/set1/S4.jpg"" width=""540"" height = ""360"" style=""border:16px solid orange"">","null","","","","","","","",""
"null","","html-keyboard-response","280","193337","0.0-209.0","3U4J9857OFXQGPK5HUMGOOVFSZTB79","AK3H5QRAROFGP","3XUSYT70ITN3RRKBJPNBFGD6FGOD06","","","null","","","","","","","",""
"618.8000000119209","","image-keyboard-response","281","193956","0.0-210.0","3U4J9857OFXQGPK5HUMGOOVFSZTB79","AK3H5QRAROFGP","3XUSYT70ITN3RRKBJPNBFGD6FGOD06","","img/set1/S2.jpg","68","2","random","68","true","random,structured_incentive,structured_normal","1,2,2,3","",""
"null","","html-keyboard-response","282","194313","0.0-211.0","3U4J9857OFXQGPK5HUMGOOVFSZTB79","AK3H5QRAROFGP","3XUSYT70ITN3RRKBJPNBFGD6FGOD06","","<img src=""img/set1/S2.jpg"" width=""540"" height = ""360"" style=""border:16px solid orange"">","null","","","","","","","",""
"null","","html-keyboard-response","283","194315","0.0-212.0","3U4J9857OFXQGPK5HUMGOOVFSZTB79","AK3H5QRAROFGP","3XUSYT70ITN3RRKBJPNBFGD6FGOD06","","","null","","","","","","","",""
"542.2000000178814","","image-keyboard-response","284","194858","0.0-213.0","3U4J9857OFXQGPK5HUMGOOVFSZTB79","AK3H5QRAROFGP","3XUSYT70ITN3RRKBJPNBFGD6FGOD06","","img/set1/S1.jpg","83","1","random","83","true","random,structured_incentive,structured_normal","1,2,2,3","",""
"null","","html-keyboard-response","285","195215","0.0-214.0","3U4J9857OFXQGPK5HUMGOOVFSZTB79","AK3H5QRAROFGP","3XUSYT70ITN3RRKBJPNBFGD6FGOD06","","<img src=""img/set1/S1.jpg"" width=""540"" height = ""360"" style=""border:16px solid orange"">","null","","","","","","","",""
"null","","html-keyboard-response","286","195217","0.0-215.0","3U4J9857OFXQGPK5HUMGOOVFSZTB79","AK3H5QRAROFGP","3XUSYT70ITN3RRKBJPNBFGD6FGOD06","","","null","","","","","","","",""
"779.5","","image-keyboard-response","287","195998","0.0-216.0","3U4J9857OFXQGPK5HUMGOOVFSZTB79","AK3H5QRAROFGP","3XUSYT70ITN3RRKBJPNBFGD6FGOD06","","img/set1/S4.jpg","74","4","random","74","true","random,structured_incentive,structured_normal","1,2,2,3","",""
"null","","html-keyboard-response","288","196352","0.0-217.0","3U4J9857OFXQGPK5HUMGOOVFSZTB79","AK3H5QRAROFGP","3XUSYT70ITN3RRKBJPNBFGD6FGOD06","","<img src=""img/set1/S4.jpg"" width=""540"" height = ""360"" style=""border:16px solid orange"">","null","","","","","","","",""
"null","","html-keyboard-response","289","196355","0.0-218.0","3U4J9857OFXQGPK5HUMGOOVFSZTB79","AK3H5QRAROFGP","3XUSYT70ITN3RRKBJPNBFGD6FGOD06","","","null","","","","","","","",""
"695.7000000178814","","image-keyboard-response","290","197052","0.0-219.0","3U4J9857OFXQGPK5HUMGOOVFSZTB79","AK3H5QRAROFGP","3XUSYT70ITN3RRKBJPNBFGD6FGOD06","","img/set1/S1.jpg","68","1","random","83","false","random,structured_incentive,structured_normal","1,2,2,3","",""
"null","","html-keyboard-response","291","197409","0.0-220.0","3U4J9857OFXQGPK5HUMGOOVFSZTB79","AK3H5QRAROFGP","3XUSYT70ITN3RRKBJPNBFGD6FGOD06","","<img src=""img/set1/S1.jpg"" width=""540"" height = ""360"">","null","","","","","","","",""
"null","","html-keyboard-response","292","197411","0.0-221.0","3U4J9857OFXQGPK5HUMGOOVFSZTB79","AK3H5QRAROFGP","3XUSYT70ITN3RRKBJPNBFGD6FGOD06","","","null","","","","","","","",""
"11.5","","image-keyboard-response","293","197425","0.0-222.0","3U4J9857OFXQGPK5HUMGOOVFSZTB79","AK3H5QRAROFGP","3XUSYT70ITN3RRKBJPNBFGD6FGOD06","","img/set1/S1.jpg","83","1","random","83","true","random,structured_incentive,structured_normal","1,2,2,3","",""
"null","","html-keyboard-response","294","197781","0.0-223.0","3U4J9857OFXQGPK5HUMGOOVFSZTB79","AK3H5QRAROFGP","3XUSYT70ITN3RRKBJPNBFGD6FGOD06","","<img src=""img/set1/S1.jpg"" width=""540"" height = ""360"" style=""border:16px solid orange"">","null","","","","","","","",""
"null","","html-keyboard-response","295","197783","0.0-224.0","3U4J9857OFXQGPK5HUMGOOVFSZTB79","AK3H5QRAROFGP","3XUSYT70ITN3RRKBJPNBFGD6FGOD06","","","null","","","","","","","",""
"1492","","image-keyboard-response","296","199277","0.0-225.0","3U4J9857OFXQGPK5HUMGOOVFSZTB79","AK3H5QRAROFGP","3XUSYT70ITN3RRKBJPNBFGD6FGOD06","","img/set1/S3.jpg","72","3","random","72","true","random,structured_incentive,structured_normal","1,2,2,3","",""
"null","","html-keyboard-response","297","199635","0.0-226.0","3U4J9857OFXQGPK5HUMGOOVFSZTB79","AK3H5QRAROFGP","3XUSYT70ITN3RRKBJPNBFGD6FGOD06","","<img src=""img/set1/S3.jpg"" width=""540"" height = ""360"" style=""border:16px solid orange"">","null","","","","","","","",""
"null","","html-keyboard-response","298","199637","0.0-227.0","3U4J9857OFXQGPK5HUMGOOVFSZTB79","AK3H5QRAROFGP","3XUSYT70ITN3RRKBJPNBFGD6FGOD06","","","null","","","","","","","",""
"486.19999998807907","","image-keyboard-response","299","200126","0.0-228.0","3U4J9857OFXQGPK5HUMGOOVFSZTB79","AK3H5QRAROFGP","3XUSYT70ITN3RRKBJPNBFGD6FGOD06","","img/set1/S3.jpg","72","3","random","72","true","random,structured_incentive,structured_normal","1,2,2,3","",""
"null","","html-keyboard-response","300","200480","0.0-229.0","3U4J9857OFXQGPK5HUMGOOVFSZTB79","AK3H5QRAROFGP","3XUSYT70ITN3RRKBJPNBFGD6FGOD06","","<img src=""img/set1/S3.jpg"" width=""540"" height = ""360"" style=""border:16px solid orange"">","null","","","","","","","",""
"null","","html-keyboard-response","301","200483","0.0-230.0","3U4J9857OFXQGPK5HUMGOOVFSZTB79","AK3H5QRAROFGP","3XUSYT70ITN3RRKBJPNBFGD6FGOD06","","","null","","","","","","","",""
"818.1999999880791","","image-keyboard-response","302","201303","0.0-231.0","3U4J9857OFXQGPK5HUMGOOVFSZTB79","AK3H5QRAROFGP","3XUSYT70ITN3RRKBJPNBFGD6FGOD06","","img/set1/S4.jpg","74","4","random","74","true","random,structured_incentive,structured_normal","1,2,2,3","",""
"null","","html-keyboard-response","303","201660","0.0-232.0","3U4J9857OFXQGPK5HUMGOOVFSZTB79","AK3H5QRAROFGP","3XUSYT70ITN3RRKBJPNBFGD6FGOD06","","<img src=""img/set1/S4.jpg"" width=""540"" height = ""360"" style=""border:16px solid orange"">","null","","","","","","","",""
"null","","html-keyboard-response","304","201662","0.0-233.0","3U4J9857OFXQGPK5HUMGOOVFSZTB79","AK3H5QRAROFGP","3XUSYT70ITN3RRKBJPNBFGD6FGOD06","","","null","","","","","","","",""
"645.2999999821186","","image-keyboard-response","305","202309","0.0-234.0","3U4J9857OFXQGPK5HUMGOOVFSZTB79","AK3H5QRAROFGP","3XUSYT70ITN3RRKBJPNBFGD6FGOD06","","img/set1/S2.jpg","68","2","random","68","true","random,structured_incentive,structured_normal","1,2,2,3","",""
"null","","html-keyboard-response","306","202667","0.0-235.0","3U4J9857OFXQGPK5HUMGOOVFSZTB79","AK3H5QRAROFGP","3XUSYT70ITN3RRKBJPNBFGD6FGOD06","","<img src=""img/set1/S2.jpg"" width=""540"" height = ""360"" style=""border:16px solid orange"">","null","","","","","","","",""
"null","","html-keyboard-response","307","202669","0.0-236.0","3U4J9857OFXQGPK5HUMGOOVFSZTB79","AK3H5QRAROFGP","3XUSYT70ITN3RRKBJPNBFGD6FGOD06","","","null","","","","","","","",""
"736.6999999880791","","image-keyboard-response","308","203407","0.0-237.0","3U4J9857OFXQGPK5HUMGOOVFSZTB79","AK3H5QRAROFGP","3XUSYT70ITN3RRKBJPNBFGD6FGOD06","","img/set1/S4.jpg","74","4","random","74","true","random,structured_incentive,structured_normal","1,2,2,3","",""
"null","","html-keyboard-response","309","203765","0.0-238.0","3U4J9857OFXQGPK5HUMGOOVFSZTB79","AK3H5QRAROFGP","3XUSYT70ITN3RRKBJPNBFGD6FGOD06","","<img src=""img/set1/S4.jpg"" width=""540"" height = ""360"" style=""border:16px solid orange"">","null","","","","","","","",""
"null","","html-keyboard-response","310","203767","0.0-239.0","3U4J9857OFXQGPK5HUMGOOVFSZTB79","AK3H5QRAROFGP","3XUSYT70ITN3RRKBJPNBFGD6FGOD06","","","null","","","","","","","",""
"572.1999999880791","","image-keyboard-response","311","204342","0.0-240.0","3U4J9857OFXQGPK5HUMGOOVFSZTB79","AK3H5QRAROFGP","3XUSYT70ITN3RRKBJPNBFGD6FGOD06","","img/set1/S4.jpg","74","4","random","74","true","random,structured_incentive,structured_normal","1,2,2,3","",""
"null","","html-keyboard-response","312","204700","0.0-241.0","3U4J9857OFXQGPK5HUMGOOVFSZTB79","AK3H5QRAROFGP","3XUSYT70ITN3RRKBJPNBFGD6FGOD06","","<img src=""img/set1/S4.jpg"" width=""540"" height = ""360"" style=""border:16px solid orange"">","null","","","","","","","",""
"null","","html-keyboard-response","313","204702","0.0-242.0","3U4J9857OFXQGPK5HUMGOOVFSZTB79","AK3H5QRAROFGP","3XUSYT70ITN3RRKBJPNBFGD6FGOD06","","","null","","","","","","","",""
"427.40000000596046","","image-keyboard-response","314","205132","0.0-243.0","3U4J9857OFXQGPK5HUMGOOVFSZTB79","AK3H5QRAROFGP","3XUSYT70ITN3RRKBJPNBFGD6FGOD06","","img/set1/S4.jpg","74","4","random","74","true","random,structured_incentive,structured_normal","1,2,2,3","",""
"null","","html-keyboard-response","315","205490","0.0-244.0","3U4J9857OFXQGPK5HUMGOOVFSZTB79","AK3H5QRAROFGP","3XUSYT70ITN3RRKBJPNBFGD6FGOD06","","<img src=""img/set1/S4.jpg"" width=""540"" height = ""360"" style=""border:16px solid orange"">","null","","","","","","","",""
"null","","html-keyboard-response","316","205493","0.0-245.0","3U4J9857OFXQGPK5HUMGOOVFSZTB79","AK3H5QRAROFGP","3XUSYT70ITN3RRKBJPNBFGD6FGOD06","","","null","","","","","","","",""
"411.7999999821186","","image-keyboard-response","317","205906","0.0-246.0","3U4J9857OFXQGPK5HUMGOOVFSZTB79","AK3H5QRAROFGP","3XUSYT70ITN3RRKBJPNBFGD6FGOD06","","img/set1/S4.jpg","74","4","random","74","true","random,structured_incentive,structured_normal","1,2,2,3","",""
"null","","html-keyboard-response","318","206263","0.0-247.0","3U4J9857OFXQGPK5HUMGOOVFSZTB79","AK3H5QRAROFGP","3XUSYT70ITN3RRKBJPNBFGD6FGOD06","","<img src=""img/set1/S4.jpg"" width=""540"" height = ""360"" style=""border:16px solid orange"">","null","","","","","","","",""
"null","","html-keyboard-response","319","206265","0.0-248.0","3U4J9857OFXQGPK5HUMGOOVFSZTB79","AK3H5QRAROFGP","3XUSYT70ITN3RRKBJPNBFGD6FGOD06","","","null","","","","","","","",""
"629.9000000059605","","image-keyboard-response","320","206896","0.0-249.0","3U4J9857OFXQGPK5HUMGOOVFSZTB79","AK3H5QRAROFGP","3XUSYT70ITN3RRKBJPNBFGD6FGOD06","","img/set1/S2.jpg","68","2","random","68","true","random,structured_incentive,structured_normal","1,2,2,3","",""
"null","","html-keyboard-response","321","207251","0.0-250.0","3U4J9857OFXQGPK5HUMGOOVFSZTB79","AK3H5QRAROFGP","3XUSYT70ITN3RRKBJPNBFGD6FGOD06","","<img src=""img/set1/S2.jpg"" width=""540"" height = ""360"" style=""border:16px solid orange"">","null","","","","","","","",""
"null","","html-keyboard-response","322","207253","0.0-251.0","3U4J9857OFXQGPK5HUMGOOVFSZTB79","AK3H5QRAROFGP","3XUSYT70ITN3RRKBJPNBFGD6FGOD06","","","null","","","","","","","",""
"397.69999998807907","","image-keyboard-response","323","207653","0.0-252.0","3U4J9857OFXQGPK5HUMGOOVFSZTB79","AK3H5QRAROFGP","3XUSYT70ITN3RRKBJPNBFGD6FGOD06","","img/set1/S2.jpg","68","2","random","68","true","random,structured_incentive,structured_normal","1,2,2,3","",""
"null","","html-keyboard-response","324","208011","0.0-253.0","3U4J9857OFXQGPK5HUMGOOVFSZTB79","AK3H5QRAROFGP","3XUSYT70ITN3RRKBJPNBFGD6FGOD06","","<img src=""img/set1/S2.jpg"" width=""540"" height = ""360"" style=""border:16px solid orange"">","null","","","","","","","",""
"null","","html-keyboard-response","325","208012","0.0-254.0","3U4J9857OFXQGPK5HUMGOOVFSZTB79","AK3H5QRAROFGP","3XUSYT70ITN3RRKBJPNBFGD6FGOD06","","","null","","","","","","","",""
"669.9000000059605","","image-keyboard-response","326","208684","0.0-255.0","3U4J9857OFXQGPK5HUMGOOVFSZTB79","AK3H5QRAROFGP","3XUSYT70ITN3RRKBJPNBFGD6FGOD06","","img/set1/S3.jpg","72","3","random","72","true","random,structured_incentive,structured_normal","1,2,2,3","",""
"null","","html-keyboard-response","327","209041","0.0-256.0","3U4J9857OFXQGPK5HUMGOOVFSZTB79","AK3H5QRAROFGP","3XUSYT70ITN3RRKBJPNBFGD6FGOD06","","<img src=""img/set1/S3.jpg"" width=""540"" height = ""360"" style=""border:16px solid orange"">","null","","","","","","","",""
"null","","html-keyboard-response","328","209042","0.0-257.0","3U4J9857OFXQGPK5HUMGOOVFSZTB79","AK3H5QRAROFGP","3XUSYT70ITN3RRKBJPNBFGD6FGOD06","","","null","","","","","","","",""
"747.9000000059605","","image-keyboard-response","329","209792","0.0-258.0","3U4J9857OFXQGPK5HUMGOOVFSZTB79","AK3H5QRAROFGP","3XUSYT70ITN3RRKBJPNBFGD6FGOD06","","img/set1/S1.jpg","83","1","random","83","true","random,structured_incentive,structured_normal","1,2,2,3","",""
"null","","html-keyboard-response","330","210148","0.0-259.0","3U4J9857OFXQGPK5HUMGOOVFSZTB79","AK3H5QRAROFGP","3XUSYT70ITN3RRKBJPNBFGD6FGOD06","","<img src=""img/set1/S1.jpg"" width=""540"" height = ""360"" style=""border:16px solid orange"">","null","","","","","","","",""
"null","","html-keyboard-response","331","210150","0.0-260.0","3U4J9857OFXQGPK5HUMGOOVFSZTB79","AK3H5QRAROFGP","3XUSYT70ITN3RRKBJPNBFGD6FGOD06","","","null","","","","","","","",""
"860.5","","image-keyboard-response","332","211011","0.0-261.0","3U4J9857OFXQGPK5HUMGOOVFSZTB79","AK3H5QRAROFGP","3XUSYT70ITN3RRKBJPNBFGD6FGOD06","","img/set1/S3.jpg","72","3","random","72","true","random,structured_incentive,structured_normal","1,2,2,3","",""
"null","","html-keyboard-response","333","211367","0.0-262.0","3U4J9857OFXQGPK5HUMGOOVFSZTB79","AK3H5QRAROFGP","3XUSYT70ITN3RRKBJPNBFGD6FGOD06","","<img src=""img/set1/S3.jpg"" width=""540"" height = ""360"" style=""border:16px solid orange"">","null","","","","","","","",""
"null","","html-keyboard-response","334","211370","0.0-263.0","3U4J9857OFXQGPK5HUMGOOVFSZTB79","AK3H5QRAROFGP","3XUSYT70ITN3RRKBJPNBFGD6FGOD06","","","null","","","","","","","",""
"732.3000000119209","","image-keyboard-response","335","212103","0.0-264.0","3U4J9857OFXQGPK5HUMGOOVFSZTB79","AK3H5QRAROFGP","3XUSYT70ITN3RRKBJPNBFGD6FGOD06","","img/set1/S1.jpg","83","1","random","83","true","random,structured_incentive,structured_normal","1,2,2,3","",""
"null","","html-keyboard-response","336","212460","0.0-265.0","3U4J9857OFXQGPK5HUMGOOVFSZTB79","AK3H5QRAROFGP","3XUSYT70ITN3RRKBJPNBFGD6FGOD06","","<img src=""img/set1/S1.jpg"" width=""540"" height = ""360"" style=""border:16px solid orange"">","null","","","","","","","",""
"null","","html-keyboard-response","337","212462","0.0-266.0","3U4J9857OFXQGPK5HUMGOOVFSZTB79","AK3H5QRAROFGP","3XUSYT70ITN3RRKBJPNBFGD6FGOD06","","","null","","","","","","","",""
"578.6999999880791","","image-keyboard-response","338","213042","0.0-267.0","3U4J9857OFXQGPK5HUMGOOVFSZTB79","AK3H5QRAROFGP","3XUSYT70ITN3RRKBJPNBFGD6FGOD06","","img/set1/S1.jpg","83","1","random","83","true","random,structured_incentive,structured_normal","1,2,2,3","",""
"null","","html-keyboard-response","339","213399","0.0-268.0","3U4J9857OFXQGPK5HUMGOOVFSZTB79","AK3H5QRAROFGP","3XUSYT70ITN3RRKBJPNBFGD6FGOD06","","<img src=""img/set1/S1.jpg"" width=""540"" height = ""360"" style=""border:16px solid orange"">","null","","","","","","","",""
"null","","html-keyboard-response","340","213401","0.0-269.0","3U4J9857OFXQGPK5HUMGOOVFSZTB79","AK3H5QRAROFGP","3XUSYT70ITN3RRKBJPNBFGD6FGOD06","","","null","","","","","","","",""
"783.8999999761581","","image-keyboard-response","341","214188","0.0-270.0","3U4J9857OFXQGPK5HUMGOOVFSZTB79","AK3H5QRAROFGP","3XUSYT70ITN3RRKBJPNBFGD6FGOD06","","img/set1/S2.jpg","68","2","random","68","true","random,structured_incentive,structured_normal","1,2,2,3","",""
"null","","html-keyboard-response","342","214544","0.0-271.0","3U4J9857OFXQGPK5HUMGOOVFSZTB79","AK3H5QRAROFGP","3XUSYT70ITN3RRKBJPNBFGD6FGOD06","","<img src=""img/set1/S2.jpg"" width=""540"" height = ""360"" style=""border:16px solid orange"">","null","","","","","","","",""
"null","","html-keyboard-response","343","214546","0.0-272.0","3U4J9857OFXQGPK5HUMGOOVFSZTB79","AK3H5QRAROFGP","3XUSYT70ITN3RRKBJPNBFGD6FGOD06","","","null","","","","","","","",""
"424.09999999403954","","image-keyboard-response","344","214971","0.0-273.0","3U4J9857OFXQGPK5HUMGOOVFSZTB79","AK3H5QRAROFGP","3XUSYT70ITN3RRKBJPNBFGD6FGOD06","","img/set1/S2.jpg","68","2","random","68","true","random,structured_incentive,structured_normal","1,2,2,3","",""
"null","","html-keyboard-response","345","215328","0.0-274.0","3U4J9857OFXQGPK5HUMGOOVFSZTB79","AK3H5QRAROFGP","3XUSYT70ITN3RRKBJPNBFGD6FGOD06","","<img src=""img/set1/S2.jpg"" width=""540"" height = ""360"" style=""border:16px solid orange"">","null","","","","","","","",""
"null","","html-keyboard-response","346","215331","0.0-275.0","3U4J9857OFXQGPK5HUMGOOVFSZTB79","AK3H5QRAROFGP","3XUSYT70ITN3RRKBJPNBFGD6FGOD06","","","null","","","","","","","",""
"720.8000000119209","","image-keyboard-response","347","216053","0.0-276.0","3U4J9857OFXQGPK5HUMGOOVFSZTB79","AK3H5QRAROFGP","3XUSYT70ITN3RRKBJPNBFGD6FGOD06","","img/set1/S3.jpg","72","3","random","72","true","random,structured_incentive,structured_normal","1,2,2,3","",""
"null","","html-keyboard-response","348","216409","0.0-277.0","3U4J9857OFXQGPK5HUMGOOVFSZTB79","AK3H5QRAROFGP","3XUSYT70ITN3RRKBJPNBFGD6FGOD06","","<img src=""img/set1/S3.jpg"" width=""540"" height = ""360"" style=""border:16px solid orange"">","null","","","","","","","",""
"null","","html-keyboard-response","349","216412","0.0-278.0","3U4J9857OFXQGPK5HUMGOOVFSZTB79","AK3H5QRAROFGP","3XUSYT70ITN3RRKBJPNBFGD6FGOD06","","","null","","","","","","","",""
"729.4000000059605","","image-keyboard-response","350","217142","0.0-279.0","3U4J9857OFXQGPK5HUMGOOVFSZTB79","AK3H5QRAROFGP","3XUSYT70ITN3RRKBJPNBFGD6FGOD06","","img/set1/S4.jpg","74","4","random","74","true","random,structured_incentive,structured_normal","1,2,2,3","",""
"null","","html-keyboard-response","351","217495","0.0-280.0","3U4J9857OFXQGPK5HUMGOOVFSZTB79","AK3H5QRAROFGP","3XUSYT70ITN3RRKBJPNBFGD6FGOD06","","<img src=""img/set1/S4.jpg"" width=""540"" height = ""360"" style=""border:16px solid orange"">","null","","","","","","","",""
"null","","html-keyboard-response","352","217498","0.0-281.0","3U4J9857OFXQGPK5HUMGOOVFSZTB79","AK3H5QRAROFGP","3XUSYT70ITN3RRKBJPNBFGD6FGOD06","","","null","","","","","","","",""
"571.3000000119209","","image-keyboard-response","353","218070","0.0-282.0","3U4J9857OFXQGPK5HUMGOOVFSZTB79","AK3H5QRAROFGP","3XUSYT70ITN3RRKBJPNBFGD6FGOD06","","img/set1/S3.jpg","72","3","random","72","true","random,structured_incentive,structured_normal","1,2,2,3","",""
"null","","html-keyboard-response","354","218427","0.0-283.0","3U4J9857OFXQGPK5HUMGOOVFSZTB79","AK3H5QRAROFGP","3XUSYT70ITN3RRKBJPNBFGD6FGOD06","","<img src=""img/set1/S3.jpg"" width=""540"" height = ""360"" style=""border:16px solid orange"">","null","","","","","","","",""
"null","","html-keyboard-response","355","218430","0.0-284.0","3U4J9857OFXQGPK5HUMGOOVFSZTB79","AK3H5QRAROFGP","3XUSYT70ITN3RRKBJPNBFGD6FGOD06","","","null","","","","","","","",""
"696.5","","image-keyboard-response","356","219128","0.0-285.0","3U4J9857OFXQGPK5HUMGOOVFSZTB79","AK3H5QRAROFGP","3XUSYT70ITN3RRKBJPNBFGD6FGOD06","","img/set1/S4.jpg","74","4","random","74","true","random,structured_incentive,structured_normal","1,2,2,3","",""
"null","","html-keyboard-response","357","219486","0.0-286.0","3U4J9857OFXQGPK5HUMGOOVFSZTB79","AK3H5QRAROFGP","3XUSYT70ITN3RRKBJPNBFGD6FGOD06","","<img src=""img/set1/S4.jpg"" width=""540"" height = ""360"" style=""border:16px solid orange"">","null","","","","","","","",""
"null","","html-keyboard-response","358","219488","0.0-287.0","3U4J9857OFXQGPK5HUMGOOVFSZTB79","AK3H5QRAROFGP","3XUSYT70ITN3RRKBJPNBFGD6FGOD06","","","null","","","","","","","",""
"723.2999999821186","","image-keyboard-response","359","220213","0.0-288.0","3U4J9857OFXQGPK5HUMGOOVFSZTB79","AK3H5QRAROFGP","3XUSYT70ITN3RRKBJPNBFGD6FGOD06","","img/set1/S1.jpg","83","1","random","83","true","random,structured_incentive,structured_normal","1,2,2,3","",""
"null","","html-keyboard-response","360","220568","0.0-289.0","3U4J9857OFXQGPK5HUMGOOVFSZTB79","AK3H5QRAROFGP","3XUSYT70ITN3RRKBJPNBFGD6FGOD06","","<img src=""img/set1/S1.jpg"" width=""540"" height = ""360"" style=""border:16px solid orange"">","null","","","","","","","",""
"null","","html-keyboard-response","361","220570","0.0-290.0","3U4J9857OFXQGPK5HUMGOOVFSZTB79","AK3H5QRAROFGP","3XUSYT70ITN3RRKBJPNBFGD6FGOD06","","","null","","","","","","","",""
"778.1000000238419","","image-keyboard-response","362","221350","0.0-291.0","3U4J9857OFXQGPK5HUMGOOVFSZTB79","AK3H5QRAROFGP","3XUSYT70ITN3RRKBJPNBFGD6FGOD06","","img/set1/S4.jpg","74","4","random","74","true","random,structured_incentive,structured_normal","1,2,2,3","",""
"null","","html-keyboard-response","363","221709","0.0-292.0","3U4J9857OFXQGPK5HUMGOOVFSZTB79","AK3H5QRAROFGP","3XUSYT70ITN3RRKBJPNBFGD6FGOD06","","<img src=""img/set1/S4.jpg"" width=""540"" height = ""360"" style=""border:16px solid orange"">","null","","","","","","","",""
"null","","html-keyboard-response","364","221711","0.0-293.0","3U4J9857OFXQGPK5HUMGOOVFSZTB79","AK3H5QRAROFGP","3XUSYT70ITN3RRKBJPNBFGD6FGOD06","","","null","","","","","","","",""
"647.7000000178814","","image-keyboard-response","365","222361","0.0-294.0","3U4J9857OFXQGPK5HUMGOOVFSZTB79","AK3H5QRAROFGP","3XUSYT70ITN3RRKBJPNBFGD6FGOD06","","img/set1/S2.jpg","68","2","random","68","true","random,structured_incentive,structured_normal","1,2,2,3","",""
"null","","html-keyboard-response","366","222716","0.0-295.0","3U4J9857OFXQGPK5HUMGOOVFSZTB79","AK3H5QRAROFGP","3XUSYT70ITN3RRKBJPNBFGD6FGOD06","","<img src=""img/set1/S2.jpg"" width=""540"" height = ""360"" style=""border:16px solid orange"">","null","","","","","","","",""
"null","","html-keyboard-response","367","222718","0.0-296.0","3U4J9857OFXQGPK5HUMGOOVFSZTB79","AK3H5QRAROFGP","3XUSYT70ITN3RRKBJPNBFGD6FGOD06","","","null","","","","","","","",""
"797.8000000119209","","image-keyboard-response","368","223518","0.0-297.0","3U4J9857OFXQGPK5HUMGOOVFSZTB79","AK3H5QRAROFGP","3XUSYT70ITN3RRKBJPNBFGD6FGOD06","","img/set1/S4.jpg","74","4","random","74","true","random,structured_incentive,structured_normal","1,2,2,3","",""
"null","","html-keyboard-response","369","223872","0.0-298.0","3U4J9857OFXQGPK5HUMGOOVFSZTB79","AK3H5QRAROFGP","3XUSYT70ITN3RRKBJPNBFGD6FGOD06","","<img src=""img/set1/S4.jpg"" width=""540"" height = ""360"" style=""border:16px solid orange"">","null","","","","","","","",""
"null","","html-keyboard-response","370","223874","0.0-299.0","3U4J9857OFXQGPK5HUMGOOVFSZTB79","AK3H5QRAROFGP","3XUSYT70ITN3RRKBJPNBFGD6FGOD06","","","null","","","","","","","",""
"865.7000000178814","","image-keyboard-response","371","224741","0.0-300.0","3U4J9857OFXQGPK5HUMGOOVFSZTB79","AK3H5QRAROFGP","3XUSYT70ITN3RRKBJPNBFGD6FGOD06","","img/set1/S3.jpg","68","3","random","72","false","random,structured_incentive,structured_normal","1,2,2,3","",""
"null","","html-keyboard-response","372","225100","0.0-301.0","3U4J9857OFXQGPK5HUMGOOVFSZTB79","AK3H5QRAROFGP","3XUSYT70ITN3RRKBJPNBFGD6FGOD06","","<img src=""img/set1/S3.jpg"" width=""540"" height = ""360"">","null","","","","","","","",""
"null","","html-keyboard-response","373","225102","0.0-302.0","3U4J9857OFXQGPK5HUMGOOVFSZTB79","AK3H5QRAROFGP","3XUSYT70ITN3RRKBJPNBFGD6FGOD06","","","null","","","","","","","",""
"643.9000000059605","","image-keyboard-response","374","225748","0.0-303.0","3U4J9857OFXQGPK5HUMGOOVFSZTB79","AK3H5QRAROFGP","3XUSYT70ITN3RRKBJPNBFGD6FGOD06","","img/set1/S2.jpg","68","2","random","68","true","random,structured_incentive,structured_normal","1,2,2,3","",""
"null","","html-keyboard-response","375","226101","0.0-304.0","3U4J9857OFXQGPK5HUMGOOVFSZTB79","AK3H5QRAROFGP","3XUSYT70ITN3RRKBJPNBFGD6FGOD06","","<img src=""img/set1/S2.jpg"" width=""540"" height = ""360"" style=""border:16px solid orange"">","null","","","","","","","",""
"null","","html-keyboard-response","376","226102","0.0-305.0","3U4J9857OFXQGPK5HUMGOOVFSZTB79","AK3H5QRAROFGP","3XUSYT70ITN3RRKBJPNBFGD6FGOD06","","","null","","","","","","","",""
"779.9000000059605","","image-keyboard-response","377","226884","0.0-306.0","3U4J9857OFXQGPK5HUMGOOVFSZTB79","AK3H5QRAROFGP","3XUSYT70ITN3RRKBJPNBFGD6FGOD06","","img/set1/S3.jpg","72","3","random","72","true","random,structured_incentive,structured_normal","1,2,2,3","",""
"null","","html-keyboard-response","378","227239","0.0-307.0","3U4J9857OFXQGPK5HUMGOOVFSZTB79","AK3H5QRAROFGP","3XUSYT70ITN3RRKBJPNBFGD6FGOD06","","<img src=""img/set1/S3.jpg"" width=""540"" height = ""360"" style=""border:16px solid orange"">","null","","","","","","","",""
"null","","html-keyboard-response","379","227241","0.0-308.0","3U4J9857OFXQGPK5HUMGOOVFSZTB79","AK3H5QRAROFGP","3XUSYT70ITN3RRKBJPNBFGD6FGOD06","","","null","","","","","","","",""
"719.0999999940395","","image-keyboard-response","380","227961","0.0-309.0","3U4J9857OFXQGPK5HUMGOOVFSZTB79","AK3H5QRAROFGP","3XUSYT70ITN3RRKBJPNBFGD6FGOD06","","img/set1/S2.jpg","68","2","random","68","true","random,structured_incentive,structured_normal","1,2,2,3","",""
"null","","html-keyboard-response","381","228319","0.0-310.0","3U4J9857OFXQGPK5HUMGOOVFSZTB79","AK3H5QRAROFGP","3XUSYT70ITN3RRKBJPNBFGD6FGOD06","","<img src=""img/set1/S2.jpg"" width=""540"" height = ""360"" style=""border:16px solid orange"">","null","","","","","","","",""
"null","","html-keyboard-response","382","228322","0.0-311.0","3U4J9857OFXQGPK5HUMGOOVFSZTB79","AK3H5QRAROFGP","3XUSYT70ITN3RRKBJPNBFGD6FGOD06","","","null","","","","","","","",""
"790","","image-keyboard-response","383","229113","0.0-312.0","3U4J9857OFXQGPK5HUMGOOVFSZTB79","AK3H5QRAROFGP","3XUSYT70ITN3RRKBJPNBFGD6FGOD06","","img/set1/S3.jpg","72","3","random","72","true","random,structured_incentive,structured_normal","1,2,2,3","",""
"null","","html-keyboard-response","384","229468","0.0-313.0","3U4J9857OFXQGPK5HUMGOOVFSZTB79","AK3H5QRAROFGP","3XUSYT70ITN3RRKBJPNBFGD6FGOD06","","<img src=""img/set1/S3.jpg"" width=""540"" height = ""360"" style=""border:16px solid orange"">","null","","","","","","","",""
"null","","html-keyboard-response","385","229470","0.0-314.0","3U4J9857OFXQGPK5HUMGOOVFSZTB79","AK3H5QRAROFGP","3XUSYT70ITN3RRKBJPNBFGD6FGOD06","","","null","","","","","","","",""
"462.39999997615814","","image-keyboard-response","386","229934","0.0-315.0","3U4J9857OFXQGPK5HUMGOOVFSZTB79","AK3H5QRAROFGP","3XUSYT70ITN3RRKBJPNBFGD6FGOD06","","img/set1/S3.jpg","72","3","random","72","true","random,structured_incentive,structured_normal","1,2,2,3","",""
"null","","html-keyboard-response","387","230291","0.0-316.0","3U4J9857OFXQGPK5HUMGOOVFSZTB79","AK3H5QRAROFGP","3XUSYT70ITN3RRKBJPNBFGD6FGOD06","","<img src=""img/set1/S3.jpg"" width=""540"" height = ""360"" style=""border:16px solid orange"">","null","","","","","","","",""
"null","","html-keyboard-response","388","230293","0.0-317.0","3U4J9857OFXQGPK5HUMGOOVFSZTB79","AK3H5QRAROFGP","3XUSYT70ITN3RRKBJPNBFGD6FGOD06","","","null","","","","","","","",""
"847.5999999940395","","image-keyboard-response","389","231143","0.0-318.0","3U4J9857OFXQGPK5HUMGOOVFSZTB79","AK3H5QRAROFGP","3XUSYT70ITN3RRKBJPNBFGD6FGOD06","","img/set1/S4.jpg","74","4","random","74","true","random,structured_incentive,structured_normal","1,2,2,3","",""
"null","","html-keyboard-response","390","231496","0.0-319.0","3U4J9857OFXQGPK5HUMGOOVFSZTB79","AK3H5QRAROFGP","3XUSYT70ITN3RRKBJPNBFGD6FGOD06","","<img src=""img/set1/S4.jpg"" width=""540"" height = ""360"" style=""border:16px solid orange"">","null","","","","","","","",""
"null","","html-keyboard-response","391","231499","0.0-320.0","3U4J9857OFXQGPK5HUMGOOVFSZTB79","AK3H5QRAROFGP","3XUSYT70ITN3RRKBJPNBFGD6FGOD06","","","null","","","","","","","",""
"681","","image-keyboard-response","392","232182","0.0-321.0","3U4J9857OFXQGPK5HUMGOOVFSZTB79","AK3H5QRAROFGP","3XUSYT70ITN3RRKBJPNBFGD6FGOD06","","img/set1/S1.jpg","83","1","random","83","true","random,structured_incentive,structured_normal","1,2,2,3","",""
"null","","html-keyboard-response","393","232540","0.0-322.0","3U4J9857OFXQGPK5HUMGOOVFSZTB79","AK3H5QRAROFGP","3XUSYT70ITN3RRKBJPNBFGD6FGOD06","","<img src=""img/set1/S1.jpg"" width=""540"" height = ""360"" style=""border:16px solid orange"">","null","","","","","","","",""
"null","","html-keyboard-response","394","232542","0.0-323.0","3U4J9857OFXQGPK5HUMGOOVFSZTB79","AK3H5QRAROFGP","3XUSYT70ITN3RRKBJPNBFGD6FGOD06","","","null","","","","","","","",""
"735","","image-keyboard-response","395","233279","0.0-324.0","3U4J9857OFXQGPK5HUMGOOVFSZTB79","AK3H5QRAROFGP","3XUSYT70ITN3RRKBJPNBFGD6FGOD06","","img/set1/S3.jpg","72","3","random","72","true","random,structured_incentive,structured_normal","1,2,2,3","",""
"null","","html-keyboard-response","396","233636","0.0-325.0","3U4J9857OFXQGPK5HUMGOOVFSZTB79","AK3H5QRAROFGP","3XUSYT70ITN3RRKBJPNBFGD6FGOD06","","<img src=""img/set1/S3.jpg"" width=""540"" height = ""360"" style=""border:16px solid orange"">","null","","","","","","","",""
"null","","html-keyboard-response","397","233638","0.0-326.0","3U4J9857OFXQGPK5HUMGOOVFSZTB79","AK3H5QRAROFGP","3XUSYT70ITN3RRKBJPNBFGD6FGOD06","","","null","","","","","","","",""
"739","","image-keyboard-response","398","234379","0.0-327.0","3U4J9857OFXQGPK5HUMGOOVFSZTB79","AK3H5QRAROFGP","3XUSYT70ITN3RRKBJPNBFGD6FGOD06","","img/set1/S4.jpg","74","4","random","74","true","random,structured_incentive,structured_normal","1,2,2,3","",""
"null","","html-keyboard-response","399","234738","0.0-328.0","3U4J9857OFXQGPK5HUMGOOVFSZTB79","AK3H5QRAROFGP","3XUSYT70ITN3RRKBJPNBFGD6FGOD06","","<img src=""img/set1/S4.jpg"" width=""540"" height = ""360"" style=""border:16px solid orange"">","null","","","","","","","",""
"null","","html-keyboard-response","400","234740","0.0-329.0","3U4J9857OFXQGPK5HUMGOOVFSZTB79","AK3H5QRAROFGP","3XUSYT70ITN3RRKBJPNBFGD6FGOD06","","","null","","","","","","","",""
"671.9000000059605","","image-keyboard-response","401","235414","0.0-330.0","3U4J9857OFXQGPK5HUMGOOVFSZTB79","AK3H5QRAROFGP","3XUSYT70ITN3RRKBJPNBFGD6FGOD06","","img/set1/S1.jpg","68","1","random","83","false","random,structured_incentive,structured_normal","1,2,2,3","",""
"null","","html-keyboard-response","402","235772","0.0-331.0","3U4J9857OFXQGPK5HUMGOOVFSZTB79","AK3H5QRAROFGP","3XUSYT70ITN3RRKBJPNBFGD6FGOD06","","<img src=""img/set1/S1.jpg"" width=""540"" height = ""360"">","null","","","","","","","",""
"null","","html-keyboard-response","403","235775","0.0-332.0","3U4J9857OFXQGPK5HUMGOOVFSZTB79","AK3H5QRAROFGP","3XUSYT70ITN3RRKBJPNBFGD6FGOD06","","","null","","","","","","","",""
"1191.300000011921","","image-keyboard-response","404","236968","0.0-333.0","3U4J9857OFXQGPK5HUMGOOVFSZTB79","AK3H5QRAROFGP","3XUSYT70ITN3RRKBJPNBFGD6FGOD06","","img/set1/S3.jpg","72","3","random","72","true","random,structured_incentive,structured_normal","1,2,2,3","",""
"null","","html-keyboard-response","405","237327","0.0-334.0","3U4J9857OFXQGPK5HUMGOOVFSZTB79","AK3H5QRAROFGP","3XUSYT70ITN3RRKBJPNBFGD6FGOD06","","<img src=""img/set1/S3.jpg"" width=""540"" height = ""360"" style=""border:16px solid orange"">","null","","","","","","","",""
"null","","html-keyboard-response","406","237329","0.0-335.0","3U4J9857OFXQGPK5HUMGOOVFSZTB79","AK3H5QRAROFGP","3XUSYT70ITN3RRKBJPNBFGD6FGOD06","","","null","","","","","","","",""
"651.9000000059605","","image-keyboard-response","407","237983","0.0-336.0","3U4J9857OFXQGPK5HUMGOOVFSZTB79","AK3H5QRAROFGP","3XUSYT70ITN3RRKBJPNBFGD6FGOD06","","img/set1/S2.jpg","68","2","random","68","true","random,structured_incentive,structured_normal","1,2,2,3","",""
"null","","html-keyboard-response","408","238341","0.0-337.0","3U4J9857OFXQGPK5HUMGOOVFSZTB79","AK3H5QRAROFGP","3XUSYT70ITN3RRKBJPNBFGD6FGOD06","","<img src=""img/set1/S2.jpg"" width=""540"" height = ""360"" style=""border:16px solid orange"">","null","","","","","","","",""
"null","","html-keyboard-response","409","238343","0.0-338.0","3U4J9857OFXQGPK5HUMGOOVFSZTB79","AK3H5QRAROFGP","3XUSYT70ITN3RRKBJPNBFGD6FGOD06","","","null","","","","","","","",""
"735.2000000178814","","image-keyboard-response","410","239080","0.0-339.0","3U4J9857OFXQGPK5HUMGOOVFSZTB79","AK3H5QRAROFGP","3XUSYT70ITN3RRKBJPNBFGD6FGOD06","","img/set1/S4.jpg","74","4","random","74","true","random,structured_incentive,structured_normal","1,2,2,3","",""
"null","","html-keyboard-response","411","239437","0.0-340.0","3U4J9857OFXQGPK5HUMGOOVFSZTB79","AK3H5QRAROFGP","3XUSYT70ITN3RRKBJPNBFGD6FGOD06","","<img src=""img/set1/S4.jpg"" width=""540"" height = ""360"" style=""border:16px solid orange"">","null","","","","","","","",""
"null","","html-keyboard-response","412","239439","0.0-341.0","3U4J9857OFXQGPK5HUMGOOVFSZTB79","AK3H5QRAROFGP","3XUSYT70ITN3RRKBJPNBFGD6FGOD06","","","null","","","","","","","",""
"848.0999999940395","","image-keyboard-response","413","240290","0.0-342.0","3U4J9857OFXQGPK5HUMGOOVFSZTB79","AK3H5QRAROFGP","3XUSYT70ITN3RRKBJPNBFGD6FGOD06","","img/set1/S2.jpg","68","2","random","68","true","random,structured_incentive,structured_normal","1,2,2,3","",""
"null","","html-keyboard-response","414","240648","0.0-343.0","3U4J9857OFXQGPK5HUMGOOVFSZTB79","AK3H5QRAROFGP","3XUSYT70ITN3RRKBJPNBFGD6FGOD06","","<img src=""img/set1/S2.jpg"" width=""540"" height = ""360"" style=""border:16px solid orange"">","null","","","","","","","",""
"null","","html-keyboard-response","415","240650","0.0-344.0","3U4J9857OFXQGPK5HUMGOOVFSZTB79","AK3H5QRAROFGP","3XUSYT70ITN3RRKBJPNBFGD6FGOD06","","","null","","","","","","","",""
