"rt","url","trial_type","trial_index","time_elapsed","internal_node_id","assignmentID","mturkID","hitID","view_history","stimulus","key_press","state","test_part","correct_response","correct","order_block","order_chunk","bonus","responses"
"28302.60000000149","consent.html","external-html","0","28571","0.0-0.0","3HMIGG0U4MSQTBIZ1RS6AZPBOSGY8X","AKNYT1NTK2UFK","3DFYDSXB2WMWAZWJRSN67LWQ0PPJUT","","","","","","","","","","",""
"229182.8999999985","","instructions","1","257766","0.0-1.0","3HMIGG0U4MSQTBIZ1RS6AZPBOSGY8X","AKNYT1NTK2UFK","3DFYDSXB2WMWAZWJRSN67LWQ0PPJUT","[{""page_index"":0,""viewing_time"":5639.10000000149},{""page_index"":1,""viewing_time"":119191.59999999404},{""page_index"":2,""viewing_time"":13683.10000000149},{""page_index"":3,""viewing_time"":55642.30000000447},{""page_index"":4,""viewing_time"":4421.79999999702},{""page_index"":5,""viewing_time"":10592.79999999702},{""page_index"":6,""viewing_time"":7320.70000000298},{""page_index"":7,""viewing_time"":12688.5}]","","","","","","","","","",""
"845.1999999955297","","image-keyboard-response","2","258620","0.0-2.0-0.0","3HMIGG0U4MSQTBIZ1RS6AZPBOSGY8X","AKNYT1NTK2UFK","3DFYDSXB2WMWAZWJRSN67LWQ0PPJUT","","img/practice/S3.jpg","83","3","practice","72","false","","","",""
"null","","html-keyboard-response","3","258925","0.0-2.0-1.0","3HMIGG0U4MSQTBIZ1RS6AZPBOSGY8X","AKNYT1NTK2UFK","3DFYDSXB2WMWAZWJRSN67LWQ0PPJUT","","<img src=""img/practice/S3.jpg"" width=""540"" height = ""360"">","null","","","","","","","",""
"null","","html-keyboard-response","4","258932","0.0-2.0-2.0","3HMIGG0U4MSQTBIZ1RS6AZPBOSGY8X","AKNYT1NTK2UFK","3DFYDSXB2WMWAZWJRSN67LWQ0PPJUT","","","null","","","","","","","",""
"710.4000000059605","","image-keyboard-response","5","259646","0.0-2.0-0.1","3HMIGG0U4MSQTBIZ1RS6AZPBOSGY8X","AKNYT1NTK2UFK","3DFYDSXB2WMWAZWJRSN67LWQ0PPJUT","","img/practice/S4.jpg","68","4","practice","74","false","","","",""
"null","","html-keyboard-response","6","259961","0.0-2.0-1.1","3HMIGG0U4MSQTBIZ1RS6AZPBOSGY8X","AKNYT1NTK2UFK","3DFYDSXB2WMWAZWJRSN67LWQ0PPJUT","","<img src=""img/practice/S4.jpg"" width=""540"" height = ""360"">","null","","","","","","","",""
"null","","html-keyboard-response","7","259968","0.0-2.0-2.1","3HMIGG0U4MSQTBIZ1RS6AZPBOSGY8X","AKNYT1NTK2UFK","3DFYDSXB2WMWAZWJRSN67LWQ0PPJUT","","","null","","","","","","","",""
"1116.6999999955297","","image-keyboard-response","8","261088","0.0-2.0-0.2","3HMIGG0U4MSQTBIZ1RS6AZPBOSGY8X","AKNYT1NTK2UFK","3DFYDSXB2WMWAZWJRSN67LWQ0PPJUT","","img/practice/S2.jpg","74","2","practice","68","false","","","",""
"null","","html-keyboard-response","9","261393","0.0-2.0-1.2","3HMIGG0U4MSQTBIZ1RS6AZPBOSGY8X","AKNYT1NTK2UFK","3DFYDSXB2WMWAZWJRSN67LWQ0PPJUT","","<img src=""img/practice/S2.jpg"" width=""540"" height = ""360"">","null","","","","","","","",""
"null","","html-keyboard-response","10","261407","0.0-2.0-2.2","3HMIGG0U4MSQTBIZ1RS6AZPBOSGY8X","AKNYT1NTK2UFK","3DFYDSXB2WMWAZWJRSN67LWQ0PPJUT","","","null","","","","","","","",""
"null","","image-keyboard-response","11","263912","0.0-2.0-0.3","3HMIGG0U4MSQTBIZ1RS6AZPBOSGY8X","AKNYT1NTK2UFK","3DFYDSXB2WMWAZWJRSN67LWQ0PPJUT","","img/practice/S1.jpg","null","1","practice","83","false","","","",""
"null","","html-keyboard-response","12","264219","0.0-2.0-1.3","3HMIGG0U4MSQTBIZ1RS6AZPBOSGY8X","AKNYT1NTK2UFK","3DFYDSXB2WMWAZWJRSN67LWQ0PPJUT","","<img src=""img/practice/S1.jpg"" width=""540"" height = ""360"">","null","","","","","","","",""
"null","","html-keyboard-response","13","264228","0.0-2.0-2.3","3HMIGG0U4MSQTBIZ1RS6AZPBOSGY8X","AKNYT1NTK2UFK","3DFYDSXB2WMWAZWJRSN67LWQ0PPJUT","","","null","","","","","","","",""
"767.4000000059605","","image-keyboard-response","14","265002","0.0-2.0-0.4","3HMIGG0U4MSQTBIZ1RS6AZPBOSGY8X","AKNYT1NTK2UFK","3DFYDSXB2WMWAZWJRSN67LWQ0PPJUT","","img/practice/S4.jpg","74","4","practice","74","true","","","",""
"null","","html-keyboard-response","15","265306","0.0-2.0-1.4","3HMIGG0U4MSQTBIZ1RS6AZPBOSGY8X","AKNYT1NTK2UFK","3DFYDSXB2WMWAZWJRSN67LWQ0PPJUT","","<img src=""img/practice/S4.jpg"" width=""540"" height = ""360"" style=""border:16px solid orange"">","null","","","","","","","",""
"null","","html-keyboard-response","16","265316","0.0-2.0-2.4","3HMIGG0U4MSQTBIZ1RS6AZPBOSGY8X","AKNYT1NTK2UFK","3DFYDSXB2WMWAZWJRSN67LWQ0PPJUT","","","null","","","","","","","",""
"819.7999999970198","","image-keyboard-response","17","266139","0.0-2.0-0.5","3HMIGG0U4MSQTBIZ1RS6AZPBOSGY8X","AKNYT1NTK2UFK","3DFYDSXB2WMWAZWJRSN67LWQ0PPJUT","","img/practice/S2.jpg","72","2","practice","68","false","","","",""
"null","","html-keyboard-response","18","266442","0.0-2.0-1.5","3HMIGG0U4MSQTBIZ1RS6AZPBOSGY8X","AKNYT1NTK2UFK","3DFYDSXB2WMWAZWJRSN67LWQ0PPJUT","","<img src=""img/practice/S2.jpg"" width=""540"" height = ""360"">","null","","","","","","","",""
"null","","html-keyboard-response","19","266447","0.0-2.0-2.5","3HMIGG0U4MSQTBIZ1RS6AZPBOSGY8X","AKNYT1NTK2UFK","3DFYDSXB2WMWAZWJRSN67LWQ0PPJUT","","","null","","","","","","","",""
"192.69999999552965","","image-keyboard-response","20","266643","0.0-2.0-0.6","3HMIGG0U4MSQTBIZ1RS6AZPBOSGY8X","AKNYT1NTK2UFK","3DFYDSXB2WMWAZWJRSN67LWQ0PPJUT","","img/practice/S1.jpg","68","1","practice","83","false","","","",""
"null","","html-keyboard-response","21","266946","0.0-2.0-1.6","3HMIGG0U4MSQTBIZ1RS6AZPBOSGY8X","AKNYT1NTK2UFK","3DFYDSXB2WMWAZWJRSN67LWQ0PPJUT","","<img src=""img/practice/S1.jpg"" width=""540"" height = ""360"">","null","","","","","","","",""
"null","","html-keyboard-response","22","266953","0.0-2.0-2.6","3HMIGG0U4MSQTBIZ1RS6AZPBOSGY8X","AKNYT1NTK2UFK","3DFYDSXB2WMWAZWJRSN67LWQ0PPJUT","","","null","","","","","","","",""
"164.89999999850988","","image-keyboard-response","23","267120","0.0-2.0-0.7","3HMIGG0U4MSQTBIZ1RS6AZPBOSGY8X","AKNYT1NTK2UFK","3DFYDSXB2WMWAZWJRSN67LWQ0PPJUT","","img/practice/S3.jpg","68","3","practice","72","false","","","",""
"null","","html-keyboard-response","24","267425","0.0-2.0-1.7","3HMIGG0U4MSQTBIZ1RS6AZPBOSGY8X","AKNYT1NTK2UFK","3DFYDSXB2WMWAZWJRSN67LWQ0PPJUT","","<img src=""img/practice/S3.jpg"" width=""540"" height = ""360"">","null","","","","","","","",""
"null","","html-keyboard-response","25","267434","0.0-2.0-2.7","3HMIGG0U4MSQTBIZ1RS6AZPBOSGY8X","AKNYT1NTK2UFK","3DFYDSXB2WMWAZWJRSN67LWQ0PPJUT","","","null","","","","","","","",""
"409.90000000596046","","image-keyboard-response","26","267846","0.0-2.0-0.8","3HMIGG0U4MSQTBIZ1RS6AZPBOSGY8X","AKNYT1NTK2UFK","3DFYDSXB2WMWAZWJRSN67LWQ0PPJUT","","img/practice/S3.jpg","68","3","practice","72","false","","","",""
"null","","html-keyboard-response","27","268152","0.0-2.0-1.8","3HMIGG0U4MSQTBIZ1RS6AZPBOSGY8X","AKNYT1NTK2UFK","3DFYDSXB2WMWAZWJRSN67LWQ0PPJUT","","<img src=""img/practice/S3.jpg"" width=""540"" height = ""360"">","null","","","","","","","",""
"null","","html-keyboard-response","28","268162","0.0-2.0-2.8","3HMIGG0U4MSQTBIZ1RS6AZPBOSGY8X","AKNYT1NTK2UFK","3DFYDSXB2WMWAZWJRSN67LWQ0PPJUT","","","null","","","","","","","",""
"384.6000000014901","","image-keyboard-response","29","268550","0.0-2.0-0.9","3HMIGG0U4MSQTBIZ1RS6AZPBOSGY8X","AKNYT1NTK2UFK","3DFYDSXB2WMWAZWJRSN67LWQ0PPJUT","","img/practice/S1.jpg","83","1","practice","83","true","","","",""
"null","","html-keyboard-response","30","268854","0.0-2.0-1.9","3HMIGG0U4MSQTBIZ1RS6AZPBOSGY8X","AKNYT1NTK2UFK","3DFYDSXB2WMWAZWJRSN67LWQ0PPJUT","","<img src=""img/practice/S1.jpg"" width=""540"" height = ""360"" style=""border:16px solid orange"">","null","","","","","","","",""
"null","","html-keyboard-response","31","268858","0.0-2.0-2.9","3HMIGG0U4MSQTBIZ1RS6AZPBOSGY8X","AKNYT1NTK2UFK","3DFYDSXB2WMWAZWJRSN67LWQ0PPJUT","","","null","","","","","","","",""
"998.1000000014901","","image-keyboard-response","32","269858","0.0-2.0-0.10","3HMIGG0U4MSQTBIZ1RS6AZPBOSGY8X","AKNYT1NTK2UFK","3DFYDSXB2WMWAZWJRSN67LWQ0PPJUT","","img/practice/S4.jpg","68","4","practice","74","false","","","",""
"null","","html-keyboard-response","33","270169","0.0-2.0-1.10","3HMIGG0U4MSQTBIZ1RS6AZPBOSGY8X","AKNYT1NTK2UFK","3DFYDSXB2WMWAZWJRSN67LWQ0PPJUT","","<img src=""img/practice/S4.jpg"" width=""540"" height = ""360"">","null","","","","","","","",""
"null","","html-keyboard-response","34","270181","0.0-2.0-2.10","3HMIGG0U4MSQTBIZ1RS6AZPBOSGY8X","AKNYT1NTK2UFK","3DFYDSXB2WMWAZWJRSN67LWQ0PPJUT","","","null","","","","","","","",""
"934.8999999985099","","image-keyboard-response","35","271119","0.0-2.0-0.11","3HMIGG0U4MSQTBIZ1RS6AZPBOSGY8X","AKNYT1NTK2UFK","3DFYDSXB2WMWAZWJRSN67LWQ0PPJUT","","img/practice/S2.jpg","72","2","practice","68","false","","","",""
"null","","html-keyboard-response","36","271423","0.0-2.0-1.11","3HMIGG0U4MSQTBIZ1RS6AZPBOSGY8X","AKNYT1NTK2UFK","3DFYDSXB2WMWAZWJRSN67LWQ0PPJUT","","<img src=""img/practice/S2.jpg"" width=""540"" height = ""360"">","null","","","","","","","",""
"null","","html-keyboard-response","37","271427","0.0-2.0-2.11","3HMIGG0U4MSQTBIZ1RS6AZPBOSGY8X","AKNYT1NTK2UFK","3DFYDSXB2WMWAZWJRSN67LWQ0PPJUT","","","null","","","","","","","",""
"743.8999999985099","","image-keyboard-response","38","272173","0.0-2.0-0.12","3HMIGG0U4MSQTBIZ1RS6AZPBOSGY8X","AKNYT1NTK2UFK","3DFYDSXB2WMWAZWJRSN67LWQ0PPJUT","","img/practice/S3.jpg","72","3","practice","72","true","","","",""
"null","","html-keyboard-response","39","272476","0.0-2.0-1.12","3HMIGG0U4MSQTBIZ1RS6AZPBOSGY8X","AKNYT1NTK2UFK","3DFYDSXB2WMWAZWJRSN67LWQ0PPJUT","","<img src=""img/practice/S3.jpg"" width=""540"" height = ""360"" style=""border:16px solid orange"">","null","","","","","","","",""
"null","","html-keyboard-response","40","272483","0.0-2.0-2.12","3HMIGG0U4MSQTBIZ1RS6AZPBOSGY8X","AKNYT1NTK2UFK","3DFYDSXB2WMWAZWJRSN67LWQ0PPJUT","","","null","","","","","","","",""
"809.8000000044703","","image-keyboard-response","41","273294","0.0-2.0-0.13","3HMIGG0U4MSQTBIZ1RS6AZPBOSGY8X","AKNYT1NTK2UFK","3DFYDSXB2WMWAZWJRSN67LWQ0PPJUT","","img/practice/S4.jpg","74","4","practice","74","true","","","",""
"null","","html-keyboard-response","42","273596","0.0-2.0-1.13","3HMIGG0U4MSQTBIZ1RS6AZPBOSGY8X","AKNYT1NTK2UFK","3DFYDSXB2WMWAZWJRSN67LWQ0PPJUT","","<img src=""img/practice/S4.jpg"" width=""540"" height = ""360"" style=""border:16px solid orange"">","null","","","","","","","",""
"null","","html-keyboard-response","43","273601","0.0-2.0-2.13","3HMIGG0U4MSQTBIZ1RS6AZPBOSGY8X","AKNYT1NTK2UFK","3DFYDSXB2WMWAZWJRSN67LWQ0PPJUT","","","null","","","","","","","",""
"722.6000000014901","","image-keyboard-response","44","274326","0.0-2.0-0.14","3HMIGG0U4MSQTBIZ1RS6AZPBOSGY8X","AKNYT1NTK2UFK","3DFYDSXB2WMWAZWJRSN67LWQ0PPJUT","","img/practice/S1.jpg","68","1","practice","83","false","","","",""
"null","","html-keyboard-response","45","274631","0.0-2.0-1.14","3HMIGG0U4MSQTBIZ1RS6AZPBOSGY8X","AKNYT1NTK2UFK","3DFYDSXB2WMWAZWJRSN67LWQ0PPJUT","","<img src=""img/practice/S1.jpg"" width=""540"" height = ""360"">","null","","","","","","","",""
"null","","html-keyboard-response","46","274642","0.0-2.0-2.14","3HMIGG0U4MSQTBIZ1RS6AZPBOSGY8X","AKNYT1NTK2UFK","3DFYDSXB2WMWAZWJRSN67LWQ0PPJUT","","","null","","","","","","","",""
"582.5","","image-keyboard-response","47","275228","0.0-2.0-0.15","3HMIGG0U4MSQTBIZ1RS6AZPBOSGY8X","AKNYT1NTK2UFK","3DFYDSXB2WMWAZWJRSN67LWQ0PPJUT","","img/practice/S2.jpg","83","2","practice","68","false","","","",""
"null","","html-keyboard-response","48","275532","0.0-2.0-1.15","3HMIGG0U4MSQTBIZ1RS6AZPBOSGY8X","AKNYT1NTK2UFK","3DFYDSXB2WMWAZWJRSN67LWQ0PPJUT","","<img src=""img/practice/S2.jpg"" width=""540"" height = ""360"">","null","","","","","","","",""
"null","","html-keyboard-response","49","275536","0.0-2.0-2.15","3HMIGG0U4MSQTBIZ1RS6AZPBOSGY8X","AKNYT1NTK2UFK","3DFYDSXB2WMWAZWJRSN67LWQ0PPJUT","","","null","","","","","","","",""
"826.8999999985099","","image-keyboard-response","50","276365","0.0-2.0-0.16","3HMIGG0U4MSQTBIZ1RS6AZPBOSGY8X","AKNYT1NTK2UFK","3DFYDSXB2WMWAZWJRSN67LWQ0PPJUT","","img/practice/S2.jpg","72","2","practice","68","false","","","",""
"null","","html-keyboard-response","51","276668","0.0-2.0-1.16","3HMIGG0U4MSQTBIZ1RS6AZPBOSGY8X","AKNYT1NTK2UFK","3DFYDSXB2WMWAZWJRSN67LWQ0PPJUT","","<img src=""img/practice/S2.jpg"" width=""540"" height = ""360"">","null","","","","","","","",""
"null","","html-keyboard-response","52","276675","0.0-2.0-2.16","3HMIGG0U4MSQTBIZ1RS6AZPBOSGY8X","AKNYT1NTK2UFK","3DFYDSXB2WMWAZWJRSN67LWQ0PPJUT","","","null","","","","","","","",""
"891.5","","image-keyboard-response","53","277569","0.0-2.0-0.17","3HMIGG0U4MSQTBIZ1RS6AZPBOSGY8X","AKNYT1NTK2UFK","3DFYDSXB2WMWAZWJRSN67LWQ0PPJUT","","img/practice/S4.jpg","72","4","practice","74","false","","","",""
"null","","html-keyboard-response","54","277873","0.0-2.0-1.17","3HMIGG0U4MSQTBIZ1RS6AZPBOSGY8X","AKNYT1NTK2UFK","3DFYDSXB2WMWAZWJRSN67LWQ0PPJUT","","<img src=""img/practice/S4.jpg"" width=""540"" height = ""360"">","null","","","","","","","",""
"null","","html-keyboard-response","55","277886","0.0-2.0-2.17","3HMIGG0U4MSQTBIZ1RS6AZPBOSGY8X","AKNYT1NTK2UFK","3DFYDSXB2WMWAZWJRSN67LWQ0PPJUT","","","null","","","","","","","",""
"905.3000000044703","","image-keyboard-response","56","278794","0.0-2.0-0.18","3HMIGG0U4MSQTBIZ1RS6AZPBOSGY8X","AKNYT1NTK2UFK","3DFYDSXB2WMWAZWJRSN67LWQ0PPJUT","","img/practice/S3.jpg","72","3","practice","72","true","","","",""
"null","","html-keyboard-response","57","279100","0.0-2.0-1.18","3HMIGG0U4MSQTBIZ1RS6AZPBOSGY8X","AKNYT1NTK2UFK","3DFYDSXB2WMWAZWJRSN67LWQ0PPJUT","","<img src=""img/practice/S3.jpg"" width=""540"" height = ""360"" style=""border:16px solid orange"">","null","","","","","","","",""
"null","","html-keyboard-response","58","279118","0.0-2.0-2.18","3HMIGG0U4MSQTBIZ1RS6AZPBOSGY8X","AKNYT1NTK2UFK","3DFYDSXB2WMWAZWJRSN67LWQ0PPJUT","","","null","","","","","","","",""
"761","","image-keyboard-response","59","279882","0.0-2.0-0.19","3HMIGG0U4MSQTBIZ1RS6AZPBOSGY8X","AKNYT1NTK2UFK","3DFYDSXB2WMWAZWJRSN67LWQ0PPJUT","","img/practice/S1.jpg","74","1","practice","83","false","","","",""
"null","","html-keyboard-response","60","280186","0.0-2.0-1.19","3HMIGG0U4MSQTBIZ1RS6AZPBOSGY8X","AKNYT1NTK2UFK","3DFYDSXB2WMWAZWJRSN67LWQ0PPJUT","","<img src=""img/practice/S1.jpg"" width=""540"" height = ""360"">","null","","","","","","","",""
"null","","html-keyboard-response","61","280198","0.0-2.0-2.19","3HMIGG0U4MSQTBIZ1RS6AZPBOSGY8X","AKNYT1NTK2UFK","3DFYDSXB2WMWAZWJRSN67LWQ0PPJUT","","","null","","","","","","","",""
"833.1999999955297","","image-keyboard-response","62","281036","0.0-2.0-0.20","3HMIGG0U4MSQTBIZ1RS6AZPBOSGY8X","AKNYT1NTK2UFK","3DFYDSXB2WMWAZWJRSN67LWQ0PPJUT","","img/practice/S1.jpg","68","1","practice","83","false","","","",""
"null","","html-keyboard-response","63","281340","0.0-2.0-1.20","3HMIGG0U4MSQTBIZ1RS6AZPBOSGY8X","AKNYT1NTK2UFK","3DFYDSXB2WMWAZWJRSN67LWQ0PPJUT","","<img src=""img/practice/S1.jpg"" width=""540"" height = ""360"">","null","","","","","","","",""
"null","","html-keyboard-response","64","281349","0.0-2.0-2.20","3HMIGG0U4MSQTBIZ1RS6AZPBOSGY8X","AKNYT1NTK2UFK","3DFYDSXB2WMWAZWJRSN67LWQ0PPJUT","","","null","","","","","","","",""
"786.8999999985099","","image-keyboard-response","65","282139","0.0-2.0-0.21","3HMIGG0U4MSQTBIZ1RS6AZPBOSGY8X","AKNYT1NTK2UFK","3DFYDSXB2WMWAZWJRSN67LWQ0PPJUT","","img/practice/S3.jpg","72","3","practice","72","true","","","",""
"null","","html-keyboard-response","66","282444","0.0-2.0-1.21","3HMIGG0U4MSQTBIZ1RS6AZPBOSGY8X","AKNYT1NTK2UFK","3DFYDSXB2WMWAZWJRSN67LWQ0PPJUT","","<img src=""img/practice/S3.jpg"" width=""540"" height = ""360"" style=""border:16px solid orange"">","null","","","","","","","",""
"null","","html-keyboard-response","67","282450","0.0-2.0-2.21","3HMIGG0U4MSQTBIZ1RS6AZPBOSGY8X","AKNYT1NTK2UFK","3DFYDSXB2WMWAZWJRSN67LWQ0PPJUT","","","null","","","","","","","",""
"948.1000000014901","","image-keyboard-response","68","283400","0.0-2.0-0.22","3HMIGG0U4MSQTBIZ1RS6AZPBOSGY8X","AKNYT1NTK2UFK","3DFYDSXB2WMWAZWJRSN67LWQ0PPJUT","","img/practice/S2.jpg","83","2","practice","68","false","","","",""
"null","","html-keyboard-response","69","283703","0.0-2.0-1.22","3HMIGG0U4MSQTBIZ1RS6AZPBOSGY8X","AKNYT1NTK2UFK","3DFYDSXB2WMWAZWJRSN67LWQ0PPJUT","","<img src=""img/practice/S2.jpg"" width=""540"" height = ""360"">","null","","","","","","","",""
"null","","html-keyboard-response","70","283711","0.0-2.0-2.22","3HMIGG0U4MSQTBIZ1RS6AZPBOSGY8X","AKNYT1NTK2UFK","3DFYDSXB2WMWAZWJRSN67LWQ0PPJUT","","","null","","","","","","","",""
"775.3999999985099","","image-keyboard-response","71","284488","0.0-2.0-0.23","3HMIGG0U4MSQTBIZ1RS6AZPBOSGY8X","AKNYT1NTK2UFK","3DFYDSXB2WMWAZWJRSN67LWQ0PPJUT","","img/practice/S4.jpg","68","4","practice","74","false","","","",""
"null","","html-keyboard-response","72","284790","0.0-2.0-1.23","3HMIGG0U4MSQTBIZ1RS6AZPBOSGY8X","AKNYT1NTK2UFK","3DFYDSXB2WMWAZWJRSN67LWQ0PPJUT","","<img src=""img/practice/S4.jpg"" width=""540"" height = ""360"">","null","","","","","","","",""
"null","","html-keyboard-response","73","284793","0.0-2.0-2.23","3HMIGG0U4MSQTBIZ1RS6AZPBOSGY8X","AKNYT1NTK2UFK","3DFYDSXB2WMWAZWJRSN67LWQ0PPJUT","","","null","","","","","","","",""
"5581.79999999702","","instructions","74","290376","0.0-3.0","3HMIGG0U4MSQTBIZ1RS6AZPBOSGY8X","AKNYT1NTK2UFK","3DFYDSXB2WMWAZWJRSN67LWQ0PPJUT","[{""page_index"":0,""viewing_time"":5581.5}]","","","","","","","","","",""
"7510.60000000149","","instructions","75","297888","0.0-4.0","3HMIGG0U4MSQTBIZ1RS6AZPBOSGY8X","AKNYT1NTK2UFK","3DFYDSXB2WMWAZWJRSN67LWQ0PPJUT","[{""page_index"":0,""viewing_time"":7510.20000000298}]","","","","","","","","","",""
"6958.10000000149","","instructions","76","304848","0.0-5.0","3HMIGG0U4MSQTBIZ1RS6AZPBOSGY8X","AKNYT1NTK2UFK","3DFYDSXB2WMWAZWJRSN67LWQ0PPJUT","[{""page_index"":0,""viewing_time"":6957.5}]","","","","","","","","","",""
"720.1999999955297","","image-keyboard-response","77","305570","0.0-6.0","3HMIGG0U4MSQTBIZ1RS6AZPBOSGY8X","AKNYT1NTK2UFK","3DFYDSXB2WMWAZWJRSN67LWQ0PPJUT","","img/set1/S3.jpg","83","3","random","72","false","random,structured_normal,structured_incentive","1,2,2,3","",""
"null","","html-keyboard-response","78","305927","0.0-7.0","3HMIGG0U4MSQTBIZ1RS6AZPBOSGY8X","AKNYT1NTK2UFK","3DFYDSXB2WMWAZWJRSN67LWQ0PPJUT","","<img src=""img/set1/S3.jpg"" width=""540"" height = ""360"">","null","","","","","","","",""
"null","","html-keyboard-response","79","305939","0.0-8.0","3HMIGG0U4MSQTBIZ1RS6AZPBOSGY8X","AKNYT1NTK2UFK","3DFYDSXB2WMWAZWJRSN67LWQ0PPJUT","","","null","","","","","","","",""
"790.2000000029802","","image-keyboard-response","80","306731","0.0-9.0","3HMIGG0U4MSQTBIZ1RS6AZPBOSGY8X","AKNYT1NTK2UFK","3DFYDSXB2WMWAZWJRSN67LWQ0PPJUT","","img/set1/S2.jpg","83","2","random","68","false","random,structured_normal,structured_incentive","1,2,2,3","",""
"null","","html-keyboard-response","81","307085","0.0-10.0","3HMIGG0U4MSQTBIZ1RS6AZPBOSGY8X","AKNYT1NTK2UFK","3DFYDSXB2WMWAZWJRSN67LWQ0PPJUT","","<img src=""img/set1/S2.jpg"" width=""540"" height = ""360"">","null","","","","","","","",""
"null","","html-keyboard-response","82","307090","0.0-11.0","3HMIGG0U4MSQTBIZ1RS6AZPBOSGY8X","AKNYT1NTK2UFK","3DFYDSXB2WMWAZWJRSN67LWQ0PPJUT","","","null","","","","","","","",""
"712.1000000014901","","image-keyboard-response","83","307805","0.0-12.0","3HMIGG0U4MSQTBIZ1RS6AZPBOSGY8X","AKNYT1NTK2UFK","3DFYDSXB2WMWAZWJRSN67LWQ0PPJUT","","img/set1/S4.jpg","83","4","random","74","false","random,structured_normal,structured_incentive","1,2,2,3","",""
"null","","html-keyboard-response","84","308160","0.0-13.0","3HMIGG0U4MSQTBIZ1RS6AZPBOSGY8X","AKNYT1NTK2UFK","3DFYDSXB2WMWAZWJRSN67LWQ0PPJUT","","<img src=""img/set1/S4.jpg"" width=""540"" height = ""360"">","null","","","","","","","",""
"null","","html-keyboard-response","85","308174","0.0-14.0","3HMIGG0U4MSQTBIZ1RS6AZPBOSGY8X","AKNYT1NTK2UFK","3DFYDSXB2WMWAZWJRSN67LWQ0PPJUT","","","null","","","","","","","",""
"829.7999999970198","","image-keyboard-response","86","309006","0.0-15.0","3HMIGG0U4MSQTBIZ1RS6AZPBOSGY8X","AKNYT1NTK2UFK","3DFYDSXB2WMWAZWJRSN67LWQ0PPJUT","","img/set1/S2.jpg","68","2","random","68","true","random,structured_normal,structured_incentive","1,2,2,3","",""
"null","","html-keyboard-response","87","309362","0.0-16.0","3HMIGG0U4MSQTBIZ1RS6AZPBOSGY8X","AKNYT1NTK2UFK","3DFYDSXB2WMWAZWJRSN67LWQ0PPJUT","","<img src=""img/set1/S2.jpg"" width=""540"" height = ""360"" style=""border:16px solid orange"">","null","","","","","","","",""
"null","","html-keyboard-response","88","309368","0.0-17.0","3HMIGG0U4MSQTBIZ1RS6AZPBOSGY8X","AKNYT1NTK2UFK","3DFYDSXB2WMWAZWJRSN67LWQ0PPJUT","","","null","","","","","","","",""
"1133.1000000014901","","image-keyboard-response","89","310503","0.0-18.0","3HMIGG0U4MSQTBIZ1RS6AZPBOSGY8X","AKNYT1NTK2UFK","3DFYDSXB2WMWAZWJRSN67LWQ0PPJUT","","img/set1/S1.jpg","72","1","random","83","false","random,structured_normal,structured_incentive","1,2,2,3","",""
"null","","html-keyboard-response","90","310857","0.0-19.0","3HMIGG0U4MSQTBIZ1RS6AZPBOSGY8X","AKNYT1NTK2UFK","3DFYDSXB2WMWAZWJRSN67LWQ0PPJUT","","<img src=""img/set1/S1.jpg"" width=""540"" height = ""360"">","null","","","","","","","",""
"null","","html-keyboard-response","91","310871","0.0-20.0","3HMIGG0U4MSQTBIZ1RS6AZPBOSGY8X","AKNYT1NTK2UFK","3DFYDSXB2WMWAZWJRSN67LWQ0PPJUT","","","null","","","","","","","",""
"754.1999999955297","","image-keyboard-response","92","311628","0.0-21.0","3HMIGG0U4MSQTBIZ1RS6AZPBOSGY8X","AKNYT1NTK2UFK","3DFYDSXB2WMWAZWJRSN67LWQ0PPJUT","","img/set1/S2.jpg","68","2","random","68","true","random,structured_normal,structured_incentive","1,2,2,3","",""
"null","","html-keyboard-response","93","311985","0.0-22.0","3HMIGG0U4MSQTBIZ1RS6AZPBOSGY8X","AKNYT1NTK2UFK","3DFYDSXB2WMWAZWJRSN67LWQ0PPJUT","","<img src=""img/set1/S2.jpg"" width=""540"" height = ""360"" style=""border:16px solid orange"">","null","","","","","","","",""
"null","","html-keyboard-response","94","311999","0.0-23.0","3HMIGG0U4MSQTBIZ1RS6AZPBOSGY8X","AKNYT1NTK2UFK","3DFYDSXB2WMWAZWJRSN67LWQ0PPJUT","","","null","","","","","","","",""
"814.7999999970198","","image-keyboard-response","95","312816","0.0-24.0","3HMIGG0U4MSQTBIZ1RS6AZPBOSGY8X","AKNYT1NTK2UFK","3DFYDSXB2WMWAZWJRSN67LWQ0PPJUT","","img/set1/S3.jpg","83","3","random","72","false","random,structured_normal,structured_incentive","1,2,2,3","",""
"null","","html-keyboard-response","96","313170","0.0-25.0","3HMIGG0U4MSQTBIZ1RS6AZPBOSGY8X","AKNYT1NTK2UFK","3DFYDSXB2WMWAZWJRSN67LWQ0PPJUT","","<img src=""img/set1/S3.jpg"" width=""540"" height = ""360"">","null","","","","","","","",""
"null","","html-keyboard-response","97","313175","0.0-26.0","3HMIGG0U4MSQTBIZ1RS6AZPBOSGY8X","AKNYT1NTK2UFK","3DFYDSXB2WMWAZWJRSN67LWQ0PPJUT","","","null","","","","","","","",""
"907.7999999970198","","image-keyboard-response","98","314085","0.0-27.0","3HMIGG0U4MSQTBIZ1RS6AZPBOSGY8X","AKNYT1NTK2UFK","3DFYDSXB2WMWAZWJRSN67LWQ0PPJUT","","img/set1/S3.jpg","72","3","random","72","true","random,structured_normal,structured_incentive","1,2,2,3","",""
"null","","html-keyboard-response","99","314440","0.0-28.0","3HMIGG0U4MSQTBIZ1RS6AZPBOSGY8X","AKNYT1NTK2UFK","3DFYDSXB2WMWAZWJRSN67LWQ0PPJUT","","<img src=""img/set1/S3.jpg"" width=""540"" height = ""360"" style=""border:16px solid orange"">","null","","","","","","","",""
"null","","html-keyboard-response","100","314445","0.0-29.0","3HMIGG0U4MSQTBIZ1RS6AZPBOSGY8X","AKNYT1NTK2UFK","3DFYDSXB2WMWAZWJRSN67LWQ0PPJUT","","","null","","","","","","","",""
"831.6999999955297","","image-keyboard-response","101","315281","0.0-30.0","3HMIGG0U4MSQTBIZ1RS6AZPBOSGY8X","AKNYT1NTK2UFK","3DFYDSXB2WMWAZWJRSN67LWQ0PPJUT","","img/set1/S1.jpg","72","1","random","83","false","random,structured_normal,structured_incentive","1,2,2,3","",""
"null","","html-keyboard-response","102","315636","0.0-31.0","3HMIGG0U4MSQTBIZ1RS6AZPBOSGY8X","AKNYT1NTK2UFK","3DFYDSXB2WMWAZWJRSN67LWQ0PPJUT","","<img src=""img/set1/S1.jpg"" width=""540"" height = ""360"">","null","","","","","","","",""
"null","","html-keyboard-response","103","315649","0.0-32.0","3HMIGG0U4MSQTBIZ1RS6AZPBOSGY8X","AKNYT1NTK2UFK","3DFYDSXB2WMWAZWJRSN67LWQ0PPJUT","","","null","","","","","","","",""
"632.7000000029802","","image-keyboard-response","104","316286","0.0-33.0","3HMIGG0U4MSQTBIZ1RS6AZPBOSGY8X","AKNYT1NTK2UFK","3DFYDSXB2WMWAZWJRSN67LWQ0PPJUT","","img/set1/S1.jpg","74","1","random","83","false","random,structured_normal,structured_incentive","1,2,2,3","",""
"null","","html-keyboard-response","105","316640","0.0-34.0","3HMIGG0U4MSQTBIZ1RS6AZPBOSGY8X","AKNYT1NTK2UFK","3DFYDSXB2WMWAZWJRSN67LWQ0PPJUT","","<img src=""img/set1/S1.jpg"" width=""540"" height = ""360"">","null","","","","","","","",""
"null","","html-keyboard-response","106","316645","0.0-35.0","3HMIGG0U4MSQTBIZ1RS6AZPBOSGY8X","AKNYT1NTK2UFK","3DFYDSXB2WMWAZWJRSN67LWQ0PPJUT","","","null","","","","","","","",""
"608.2999999970198","","image-keyboard-response","107","317257","0.0-36.0","3HMIGG0U4MSQTBIZ1RS6AZPBOSGY8X","AKNYT1NTK2UFK","3DFYDSXB2WMWAZWJRSN67LWQ0PPJUT","","img/set1/S1.jpg","68","1","random","83","false","random,structured_normal,structured_incentive","1,2,2,3","",""
"null","","html-keyboard-response","108","317612","0.0-37.0","3HMIGG0U4MSQTBIZ1RS6AZPBOSGY8X","AKNYT1NTK2UFK","3DFYDSXB2WMWAZWJRSN67LWQ0PPJUT","","<img src=""img/set1/S1.jpg"" width=""540"" height = ""360"">","null","","","","","","","",""
"null","","html-keyboard-response","109","317616","0.0-38.0","3HMIGG0U4MSQTBIZ1RS6AZPBOSGY8X","AKNYT1NTK2UFK","3DFYDSXB2WMWAZWJRSN67LWQ0PPJUT","","","null","","","","","","","",""
"943.1000000014901","","image-keyboard-response","110","318561","0.0-39.0","3HMIGG0U4MSQTBIZ1RS6AZPBOSGY8X","AKNYT1NTK2UFK","3DFYDSXB2WMWAZWJRSN67LWQ0PPJUT","","img/set1/S4.jpg","83","4","random","74","false","random,structured_normal,structured_incentive","1,2,2,3","",""
"null","","html-keyboard-response","111","318916","0.0-40.0","3HMIGG0U4MSQTBIZ1RS6AZPBOSGY8X","AKNYT1NTK2UFK","3DFYDSXB2WMWAZWJRSN67LWQ0PPJUT","","<img src=""img/set1/S4.jpg"" width=""540"" height = ""360"">","null","","","","","","","",""
"null","","html-keyboard-response","112","318926","0.0-41.0","3HMIGG0U4MSQTBIZ1RS6AZPBOSGY8X","AKNYT1NTK2UFK","3DFYDSXB2WMWAZWJRSN67LWQ0PPJUT","","","null","","","","","","","",""
"750.5","","image-keyboard-response","113","319680","0.0-42.0","3HMIGG0U4MSQTBIZ1RS6AZPBOSGY8X","AKNYT1NTK2UFK","3DFYDSXB2WMWAZWJRSN67LWQ0PPJUT","","img/set1/S2.jpg","68","2","random","68","true","random,structured_normal,structured_incentive","1,2,2,3","",""
"null","","html-keyboard-response","114","320034","0.0-43.0","3HMIGG0U4MSQTBIZ1RS6AZPBOSGY8X","AKNYT1NTK2UFK","3DFYDSXB2WMWAZWJRSN67LWQ0PPJUT","","<img src=""img/set1/S2.jpg"" width=""540"" height = ""360"" style=""border:16px solid orange"">","null","","","","","","","",""
"null","","html-keyboard-response","115","320038","0.0-44.0","3HMIGG0U4MSQTBIZ1RS6AZPBOSGY8X","AKNYT1NTK2UFK","3DFYDSXB2WMWAZWJRSN67LWQ0PPJUT","","","null","","","","","","","",""
"674.6999999955297","","image-keyboard-response","116","320715","0.0-45.0","3HMIGG0U4MSQTBIZ1RS6AZPBOSGY8X","AKNYT1NTK2UFK","3DFYDSXB2WMWAZWJRSN67LWQ0PPJUT","","img/set1/S2.jpg","68","2","random","68","true","random,structured_normal,structured_incentive","1,2,2,3","",""
"null","","html-keyboard-response","117","321069","0.0-46.0","3HMIGG0U4MSQTBIZ1RS6AZPBOSGY8X","AKNYT1NTK2UFK","3DFYDSXB2WMWAZWJRSN67LWQ0PPJUT","","<img src=""img/set1/S2.jpg"" width=""540"" height = ""360"" style=""border:16px solid orange"">","null","","","","","","","",""
"null","","html-keyboard-response","118","321084","0.0-47.0","3HMIGG0U4MSQTBIZ1RS6AZPBOSGY8X","AKNYT1NTK2UFK","3DFYDSXB2WMWAZWJRSN67LWQ0PPJUT","","","null","","","","","","","",""
"816.1000000014901","","image-keyboard-response","119","321903","0.0-48.0","3HMIGG0U4MSQTBIZ1RS6AZPBOSGY8X","AKNYT1NTK2UFK","3DFYDSXB2WMWAZWJRSN67LWQ0PPJUT","","img/set1/S1.jpg","72","1","random","83","false","random,structured_normal,structured_incentive","1,2,2,3","",""
"null","","html-keyboard-response","120","322257","0.0-49.0","3HMIGG0U4MSQTBIZ1RS6AZPBOSGY8X","AKNYT1NTK2UFK","3DFYDSXB2WMWAZWJRSN67LWQ0PPJUT","","<img src=""img/set1/S1.jpg"" width=""540"" height = ""360"">","null","","","","","","","",""
"null","","html-keyboard-response","121","322271","0.0-50.0","3HMIGG0U4MSQTBIZ1RS6AZPBOSGY8X","AKNYT1NTK2UFK","3DFYDSXB2WMWAZWJRSN67LWQ0PPJUT","","","null","","","","","","","",""
"697.7999999970198","","image-keyboard-response","122","322972","0.0-51.0","3HMIGG0U4MSQTBIZ1RS6AZPBOSGY8X","AKNYT1NTK2UFK","3DFYDSXB2WMWAZWJRSN67LWQ0PPJUT","","img/set1/S4.jpg","68","4","random","74","false","random,structured_normal,structured_incentive","1,2,2,3","",""
"null","","html-keyboard-response","123","323326","0.0-52.0","3HMIGG0U4MSQTBIZ1RS6AZPBOSGY8X","AKNYT1NTK2UFK","3DFYDSXB2WMWAZWJRSN67LWQ0PPJUT","","<img src=""img/set1/S4.jpg"" width=""540"" height = ""360"">","null","","","","","","","",""
"null","","html-keyboard-response","124","323332","0.0-53.0","3HMIGG0U4MSQTBIZ1RS6AZPBOSGY8X","AKNYT1NTK2UFK","3DFYDSXB2WMWAZWJRSN67LWQ0PPJUT","","","null","","","","","","","",""
"679.5","","image-keyboard-response","125","324014","0.0-54.0","3HMIGG0U4MSQTBIZ1RS6AZPBOSGY8X","AKNYT1NTK2UFK","3DFYDSXB2WMWAZWJRSN67LWQ0PPJUT","","img/set1/S4.jpg","83","4","random","74","false","random,structured_normal,structured_incentive","1,2,2,3","",""
"null","","html-keyboard-response","126","324370","0.0-55.0","3HMIGG0U4MSQTBIZ1RS6AZPBOSGY8X","AKNYT1NTK2UFK","3DFYDSXB2WMWAZWJRSN67LWQ0PPJUT","","<img src=""img/set1/S4.jpg"" width=""540"" height = ""360"">","null","","","","","","","",""
"null","","html-keyboard-response","127","324381","0.0-56.0","3HMIGG0U4MSQTBIZ1RS6AZPBOSGY8X","AKNYT1NTK2UFK","3DFYDSXB2WMWAZWJRSN67LWQ0PPJUT","","","null","","","","","","","",""
"742.9000000059605","","image-keyboard-response","128","325125","0.0-57.0","3HMIGG0U4MSQTBIZ1RS6AZPBOSGY8X","AKNYT1NTK2UFK","3DFYDSXB2WMWAZWJRSN67LWQ0PPJUT","","img/set1/S3.jpg","74","3","random","72","false","random,structured_normal,structured_incentive","1,2,2,3","",""
"null","","html-keyboard-response","129","325480","0.0-58.0","3HMIGG0U4MSQTBIZ1RS6AZPBOSGY8X","AKNYT1NTK2UFK","3DFYDSXB2WMWAZWJRSN67LWQ0PPJUT","","<img src=""img/set1/S3.jpg"" width=""540"" height = ""360"">","null","","","","","","","",""
"null","","html-keyboard-response","130","325487","0.0-59.0","3HMIGG0U4MSQTBIZ1RS6AZPBOSGY8X","AKNYT1NTK2UFK","3DFYDSXB2WMWAZWJRSN67LWQ0PPJUT","","","null","","","","","","","",""
"700.1999999955297","","image-keyboard-response","131","326189","0.0-60.0","3HMIGG0U4MSQTBIZ1RS6AZPBOSGY8X","AKNYT1NTK2UFK","3DFYDSXB2WMWAZWJRSN67LWQ0PPJUT","","img/set1/S4.jpg","72","4","random","74","false","random,structured_normal,structured_incentive","1,2,2,3","",""
"null","","html-keyboard-response","132","326544","0.0-61.0","3HMIGG0U4MSQTBIZ1RS6AZPBOSGY8X","AKNYT1NTK2UFK","3DFYDSXB2WMWAZWJRSN67LWQ0PPJUT","","<img src=""img/set1/S4.jpg"" width=""540"" height = ""360"">","null","","","","","","","",""
"null","","html-keyboard-response","133","326554","0.0-62.0","3HMIGG0U4MSQTBIZ1RS6AZPBOSGY8X","AKNYT1NTK2UFK","3DFYDSXB2WMWAZWJRSN67LWQ0PPJUT","","","null","","","","","","","",""
"581.7999999970198","","image-keyboard-response","134","327139","0.0-63.0","3HMIGG0U4MSQTBIZ1RS6AZPBOSGY8X","AKNYT1NTK2UFK","3DFYDSXB2WMWAZWJRSN67LWQ0PPJUT","","img/set1/S4.jpg","68","4","random","74","false","random,structured_normal,structured_incentive","1,2,2,3","",""
"null","","html-keyboard-response","135","327495","0.0-64.0","3HMIGG0U4MSQTBIZ1RS6AZPBOSGY8X","AKNYT1NTK2UFK","3DFYDSXB2WMWAZWJRSN67LWQ0PPJUT","","<img src=""img/set1/S4.jpg"" width=""540"" height = ""360"">","null","","","","","","","",""
"null","","html-keyboard-response","136","327500","0.0-65.0","3HMIGG0U4MSQTBIZ1RS6AZPBOSGY8X","AKNYT1NTK2UFK","3DFYDSXB2WMWAZWJRSN67LWQ0PPJUT","","","null","","","","","","","",""
"885.5999999940395","","image-keyboard-response","137","328390","0.0-66.0","3HMIGG0U4MSQTBIZ1RS6AZPBOSGY8X","AKNYT1NTK2UFK","3DFYDSXB2WMWAZWJRSN67LWQ0PPJUT","","img/set1/S1.jpg","72","1","random","83","false","random,structured_normal,structured_incentive","1,2,2,3","",""
"null","","html-keyboard-response","138","328745","0.0-67.0","3HMIGG0U4MSQTBIZ1RS6AZPBOSGY8X","AKNYT1NTK2UFK","3DFYDSXB2WMWAZWJRSN67LWQ0PPJUT","","<img src=""img/set1/S1.jpg"" width=""540"" height = ""360"">","null","","","","","","","",""
"null","","html-keyboard-response","139","328774","0.0-68.0","3HMIGG0U4MSQTBIZ1RS6AZPBOSGY8X","AKNYT1NTK2UFK","3DFYDSXB2WMWAZWJRSN67LWQ0PPJUT","","","null","","","","","","","",""
"816","","image-keyboard-response","140","329595","0.0-69.0","3HMIGG0U4MSQTBIZ1RS6AZPBOSGY8X","AKNYT1NTK2UFK","3DFYDSXB2WMWAZWJRSN67LWQ0PPJUT","","img/set1/S4.jpg","83","4","random","74","false","random,structured_normal,structured_incentive","1,2,2,3","",""
"null","","html-keyboard-response","141","329950","0.0-70.0","3HMIGG0U4MSQTBIZ1RS6AZPBOSGY8X","AKNYT1NTK2UFK","3DFYDSXB2WMWAZWJRSN67LWQ0PPJUT","","<img src=""img/set1/S4.jpg"" width=""540"" height = ""360"">","null","","","","","","","",""
"null","","html-keyboard-response","142","329961","0.0-71.0","3HMIGG0U4MSQTBIZ1RS6AZPBOSGY8X","AKNYT1NTK2UFK","3DFYDSXB2WMWAZWJRSN67LWQ0PPJUT","","","null","","","","","","","",""
"560.7999999970198","","image-keyboard-response","143","330526","0.0-72.0","3HMIGG0U4MSQTBIZ1RS6AZPBOSGY8X","AKNYT1NTK2UFK","3DFYDSXB2WMWAZWJRSN67LWQ0PPJUT","","img/set1/S4.jpg","68","4","random","74","false","random,structured_normal,structured_incentive","1,2,2,3","",""
"null","","html-keyboard-response","144","330880","0.0-73.0","3HMIGG0U4MSQTBIZ1RS6AZPBOSGY8X","AKNYT1NTK2UFK","3DFYDSXB2WMWAZWJRSN67LWQ0PPJUT","","<img src=""img/set1/S4.jpg"" width=""540"" height = ""360"">","null","","","","","","","",""
"null","","html-keyboard-response","145","330884","0.0-74.0","3HMIGG0U4MSQTBIZ1RS6AZPBOSGY8X","AKNYT1NTK2UFK","3DFYDSXB2WMWAZWJRSN67LWQ0PPJUT","","","null","","","","","","","",""
"786.1000000014901","","image-keyboard-response","146","331674","0.0-75.0","3HMIGG0U4MSQTBIZ1RS6AZPBOSGY8X","AKNYT1NTK2UFK","3DFYDSXB2WMWAZWJRSN67LWQ0PPJUT","","img/set1/S3.jpg","68","3","random","72","false","random,structured_normal,structured_incentive","1,2,2,3","",""
"null","","html-keyboard-response","147","332031","0.0-76.0","3HMIGG0U4MSQTBIZ1RS6AZPBOSGY8X","AKNYT1NTK2UFK","3DFYDSXB2WMWAZWJRSN67LWQ0PPJUT","","<img src=""img/set1/S3.jpg"" width=""540"" height = ""360"">","null","","","","","","","",""
"null","","html-keyboard-response","148","332037","0.0-77.0","3HMIGG0U4MSQTBIZ1RS6AZPBOSGY8X","AKNYT1NTK2UFK","3DFYDSXB2WMWAZWJRSN67LWQ0PPJUT","","","null","","","","","","","",""
"710.5","","image-keyboard-response","149","332751","0.0-78.0","3HMIGG0U4MSQTBIZ1RS6AZPBOSGY8X","AKNYT1NTK2UFK","3DFYDSXB2WMWAZWJRSN67LWQ0PPJUT","","img/set1/S2.jpg","68","2","random","68","true","random,structured_normal,structured_incentive","1,2,2,3","",""
"null","","html-keyboard-response","150","333106","0.0-79.0","3HMIGG0U4MSQTBIZ1RS6AZPBOSGY8X","AKNYT1NTK2UFK","3DFYDSXB2WMWAZWJRSN67LWQ0PPJUT","","<img src=""img/set1/S2.jpg"" width=""540"" height = ""360"" style=""border:16px solid orange"">","null","","","","","","","",""
"null","","html-keyboard-response","151","333117","0.0-80.0","3HMIGG0U4MSQTBIZ1RS6AZPBOSGY8X","AKNYT1NTK2UFK","3DFYDSXB2WMWAZWJRSN67LWQ0PPJUT","","","null","","","","","","","",""
"666.1999999955297","","image-keyboard-response","152","333786","0.0-81.0","3HMIGG0U4MSQTBIZ1RS6AZPBOSGY8X","AKNYT1NTK2UFK","3DFYDSXB2WMWAZWJRSN67LWQ0PPJUT","","img/set1/S4.jpg","74","4","random","74","true","random,structured_normal,structured_incentive","1,2,2,3","",""
"null","","html-keyboard-response","153","334144","0.0-82.0","3HMIGG0U4MSQTBIZ1RS6AZPBOSGY8X","AKNYT1NTK2UFK","3DFYDSXB2WMWAZWJRSN67LWQ0PPJUT","","<img src=""img/set1/S4.jpg"" width=""540"" height = ""360"" style=""border:16px solid orange"">","null","","","","","","","",""
"null","","html-keyboard-response","154","334156","0.0-83.0","3HMIGG0U4MSQTBIZ1RS6AZPBOSGY8X","AKNYT1NTK2UFK","3DFYDSXB2WMWAZWJRSN67LWQ0PPJUT","","","null","","","","","","","",""
"598.1999999955297","","image-keyboard-response","155","334757","0.0-84.0","3HMIGG0U4MSQTBIZ1RS6AZPBOSGY8X","AKNYT1NTK2UFK","3DFYDSXB2WMWAZWJRSN67LWQ0PPJUT","","img/set1/S4.jpg","74","4","random","74","true","random,structured_normal,structured_incentive","1,2,2,3","",""
"null","","html-keyboard-response","156","335114","0.0-85.0","3HMIGG0U4MSQTBIZ1RS6AZPBOSGY8X","AKNYT1NTK2UFK","3DFYDSXB2WMWAZWJRSN67LWQ0PPJUT","","<img src=""img/set1/S4.jpg"" width=""540"" height = ""360"" style=""border:16px solid orange"">","null","","","","","","","",""
"null","","html-keyboard-response","157","335125","0.0-86.0","3HMIGG0U4MSQTBIZ1RS6AZPBOSGY8X","AKNYT1NTK2UFK","3DFYDSXB2WMWAZWJRSN67LWQ0PPJUT","","","null","","","","","","","",""
"589.3999999985099","","image-keyboard-response","158","335718","0.0-87.0","3HMIGG0U4MSQTBIZ1RS6AZPBOSGY8X","AKNYT1NTK2UFK","3DFYDSXB2WMWAZWJRSN67LWQ0PPJUT","","img/set1/S4.jpg","74","4","random","74","true","random,structured_normal,structured_incentive","1,2,2,3","",""
"null","","html-keyboard-response","159","336071","0.0-88.0","3HMIGG0U4MSQTBIZ1RS6AZPBOSGY8X","AKNYT1NTK2UFK","3DFYDSXB2WMWAZWJRSN67LWQ0PPJUT","","<img src=""img/set1/S4.jpg"" width=""540"" height = ""360"" style=""border:16px solid orange"">","null","","","","","","","",""
"null","","html-keyboard-response","160","336085","0.0-89.0","3HMIGG0U4MSQTBIZ1RS6AZPBOSGY8X","AKNYT1NTK2UFK","3DFYDSXB2WMWAZWJRSN67LWQ0PPJUT","","","null","","","","","","","",""
"548.5","","image-keyboard-response","161","336637","0.0-90.0","3HMIGG0U4MSQTBIZ1RS6AZPBOSGY8X","AKNYT1NTK2UFK","3DFYDSXB2WMWAZWJRSN67LWQ0PPJUT","","img/set1/S4.jpg","74","4","random","74","true","random,structured_normal,structured_incentive","1,2,2,3","",""
"null","","html-keyboard-response","162","336992","0.0-91.0","3HMIGG0U4MSQTBIZ1RS6AZPBOSGY8X","AKNYT1NTK2UFK","3DFYDSXB2WMWAZWJRSN67LWQ0PPJUT","","<img src=""img/set1/S4.jpg"" width=""540"" height = ""360"" style=""border:16px solid orange"">","null","","","","","","","",""
"null","","html-keyboard-response","163","337006","0.0-92.0","3HMIGG0U4MSQTBIZ1RS6AZPBOSGY8X","AKNYT1NTK2UFK","3DFYDSXB2WMWAZWJRSN67LWQ0PPJUT","","","null","","","","","","","",""
"533.2000000029802","","image-keyboard-response","164","337542","0.0-93.0","3HMIGG0U4MSQTBIZ1RS6AZPBOSGY8X","AKNYT1NTK2UFK","3DFYDSXB2WMWAZWJRSN67LWQ0PPJUT","","img/set1/S4.jpg","74","4","random","74","true","random,structured_normal,structured_incentive","1,2,2,3","",""
"null","","html-keyboard-response","165","337896","0.0-94.0","3HMIGG0U4MSQTBIZ1RS6AZPBOSGY8X","AKNYT1NTK2UFK","3DFYDSXB2WMWAZWJRSN67LWQ0PPJUT","","<img src=""img/set1/S4.jpg"" width=""540"" height = ""360"" style=""border:16px solid orange"">","null","","","","","","","",""
"null","","html-keyboard-response","166","337901","0.0-95.0","3HMIGG0U4MSQTBIZ1RS6AZPBOSGY8X","AKNYT1NTK2UFK","3DFYDSXB2WMWAZWJRSN67LWQ0PPJUT","","","null","","","","","","","",""
"589.3999999985099","","image-keyboard-response","167","338492","0.0-96.0","3HMIGG0U4MSQTBIZ1RS6AZPBOSGY8X","AKNYT1NTK2UFK","3DFYDSXB2WMWAZWJRSN67LWQ0PPJUT","","img/set1/S2.jpg","68","2","random","68","true","random,structured_normal,structured_incentive","1,2,2,3","",""
"null","","html-keyboard-response","168","338848","0.0-97.0","3HMIGG0U4MSQTBIZ1RS6AZPBOSGY8X","AKNYT1NTK2UFK","3DFYDSXB2WMWAZWJRSN67LWQ0PPJUT","","<img src=""img/set1/S2.jpg"" width=""540"" height = ""360"" style=""border:16px solid orange"">","null","","","","","","","",""
"null","","html-keyboard-response","169","338859","0.0-98.0","3HMIGG0U4MSQTBIZ1RS6AZPBOSGY8X","AKNYT1NTK2UFK","3DFYDSXB2WMWAZWJRSN67LWQ0PPJUT","","","null","","","","","","","",""
"639.6999999955297","","image-keyboard-response","170","339502","0.0-99.0","3HMIGG0U4MSQTBIZ1RS6AZPBOSGY8X","AKNYT1NTK2UFK","3DFYDSXB2WMWAZWJRSN67LWQ0PPJUT","","img/set1/S2.jpg","68","2","random","68","true","random,structured_normal,structured_incentive","1,2,2,3","",""
"null","","html-keyboard-response","171","339856","0.0-100.0","3HMIGG0U4MSQTBIZ1RS6AZPBOSGY8X","AKNYT1NTK2UFK","3DFYDSXB2WMWAZWJRSN67LWQ0PPJUT","","<img src=""img/set1/S2.jpg"" width=""540"" height = ""360"" style=""border:16px solid orange"">","null","","","","","","","",""
"null","","html-keyboard-response","172","339868","0.0-101.0","3HMIGG0U4MSQTBIZ1RS6AZPBOSGY8X","AKNYT1NTK2UFK","3DFYDSXB2WMWAZWJRSN67LWQ0PPJUT","","","null","","","","","","","",""
"726.3999999985099","","image-keyboard-response","173","340597","0.0-102.0","3HMIGG0U4MSQTBIZ1RS6AZPBOSGY8X","AKNYT1NTK2UFK","3DFYDSXB2WMWAZWJRSN67LWQ0PPJUT","","img/set1/S1.jpg","72","1","random","83","false","random,structured_normal,structured_incentive","1,2,2,3","",""
"null","","html-keyboard-response","174","340949","0.0-103.0","3HMIGG0U4MSQTBIZ1RS6AZPBOSGY8X","AKNYT1NTK2UFK","3DFYDSXB2WMWAZWJRSN67LWQ0PPJUT","","<img src=""img/set1/S1.jpg"" width=""540"" height = ""360"">","null","","","","","","","",""
"null","","html-keyboard-response","175","340954","0.0-104.0","3HMIGG0U4MSQTBIZ1RS6AZPBOSGY8X","AKNYT1NTK2UFK","3DFYDSXB2WMWAZWJRSN67LWQ0PPJUT","","","null","","","","","","","",""
"880.8000000044703","","image-keyboard-response","176","341836","0.0-105.0","3HMIGG0U4MSQTBIZ1RS6AZPBOSGY8X","AKNYT1NTK2UFK","3DFYDSXB2WMWAZWJRSN67LWQ0PPJUT","","img/set1/S4.jpg","74","4","random","74","true","random,structured_normal,structured_incentive","1,2,2,3","",""
"null","","html-keyboard-response","177","342189","0.0-106.0","3HMIGG0U4MSQTBIZ1RS6AZPBOSGY8X","AKNYT1NTK2UFK","3DFYDSXB2WMWAZWJRSN67LWQ0PPJUT","","<img src=""img/set1/S4.jpg"" width=""540"" height = ""360"" style=""border:16px solid orange"">","null","","","","","","","",""
"null","","html-keyboard-response","178","342195","0.0-107.0","3HMIGG0U4MSQTBIZ1RS6AZPBOSGY8X","AKNYT1NTK2UFK","3DFYDSXB2WMWAZWJRSN67LWQ0PPJUT","","","null","","","","","","","",""
"526.6000000014901","","image-keyboard-response","179","342723","0.0-108.0","3HMIGG0U4MSQTBIZ1RS6AZPBOSGY8X","AKNYT1NTK2UFK","3DFYDSXB2WMWAZWJRSN67LWQ0PPJUT","","img/set1/S4.jpg","74","4","random","74","true","random,structured_normal,structured_incentive","1,2,2,3","",""
"null","","html-keyboard-response","180","343075","0.0-109.0","3HMIGG0U4MSQTBIZ1RS6AZPBOSGY8X","AKNYT1NTK2UFK","3DFYDSXB2WMWAZWJRSN67LWQ0PPJUT","","<img src=""img/set1/S4.jpg"" width=""540"" height = ""360"" style=""border:16px solid orange"">","null","","","","","","","",""
"null","","html-keyboard-response","181","343082","0.0-110.0","3HMIGG0U4MSQTBIZ1RS6AZPBOSGY8X","AKNYT1NTK2UFK","3DFYDSXB2WMWAZWJRSN67LWQ0PPJUT","","","null","","","","","","","",""
"536.1999999955297","","image-keyboard-response","182","343620","0.0-111.0","3HMIGG0U4MSQTBIZ1RS6AZPBOSGY8X","AKNYT1NTK2UFK","3DFYDSXB2WMWAZWJRSN67LWQ0PPJUT","","img/set1/S4.jpg","74","4","random","74","true","random,structured_normal,structured_incentive","1,2,2,3","",""
"null","","html-keyboard-response","183","343973","0.0-112.0","3HMIGG0U4MSQTBIZ1RS6AZPBOSGY8X","AKNYT1NTK2UFK","3DFYDSXB2WMWAZWJRSN67LWQ0PPJUT","","<img src=""img/set1/S4.jpg"" width=""540"" height = ""360"" style=""border:16px solid orange"">","null","","","","","","","",""
"null","","html-keyboard-response","184","343981","0.0-113.0","3HMIGG0U4MSQTBIZ1RS6AZPBOSGY8X","AKNYT1NTK2UFK","3DFYDSXB2WMWAZWJRSN67LWQ0PPJUT","","","null","","","","","","","",""
"666.6000000014901","","image-keyboard-response","185","344651","0.0-114.0","3HMIGG0U4MSQTBIZ1RS6AZPBOSGY8X","AKNYT1NTK2UFK","3DFYDSXB2WMWAZWJRSN67LWQ0PPJUT","","img/set1/S1.jpg","83","1","random","83","true","random,structured_normal,structured_incentive","1,2,2,3","",""
"null","","html-keyboard-response","186","345004","0.0-115.0","3HMIGG0U4MSQTBIZ1RS6AZPBOSGY8X","AKNYT1NTK2UFK","3DFYDSXB2WMWAZWJRSN67LWQ0PPJUT","","<img src=""img/set1/S1.jpg"" width=""540"" height = ""360"" style=""border:16px solid orange"">","null","","","","","","","",""
"null","","html-keyboard-response","187","345011","0.0-116.0","3HMIGG0U4MSQTBIZ1RS6AZPBOSGY8X","AKNYT1NTK2UFK","3DFYDSXB2WMWAZWJRSN67LWQ0PPJUT","","","null","","","","","","","",""
"749.6000000014901","","image-keyboard-response","188","345764","0.0-117.0","3HMIGG0U4MSQTBIZ1RS6AZPBOSGY8X","AKNYT1NTK2UFK","3DFYDSXB2WMWAZWJRSN67LWQ0PPJUT","","img/set1/S3.jpg","72","3","random","72","true","random,structured_normal,structured_incentive","1,2,2,3","",""
"null","","html-keyboard-response","189","346119","0.0-118.0","3HMIGG0U4MSQTBIZ1RS6AZPBOSGY8X","AKNYT1NTK2UFK","3DFYDSXB2WMWAZWJRSN67LWQ0PPJUT","","<img src=""img/set1/S3.jpg"" width=""540"" height = ""360"" style=""border:16px solid orange"">","null","","","","","","","",""
"null","","html-keyboard-response","190","346131","0.0-119.0","3HMIGG0U4MSQTBIZ1RS6AZPBOSGY8X","AKNYT1NTK2UFK","3DFYDSXB2WMWAZWJRSN67LWQ0PPJUT","","","null","","","","","","","",""
"796.6999999955297","","image-keyboard-response","191","346931","0.0-120.0","3HMIGG0U4MSQTBIZ1RS6AZPBOSGY8X","AKNYT1NTK2UFK","3DFYDSXB2WMWAZWJRSN67LWQ0PPJUT","","img/set1/S4.jpg","74","4","random","74","true","random,structured_normal,structured_incentive","1,2,2,3","",""
"null","","html-keyboard-response","192","347286","0.0-121.0","3HMIGG0U4MSQTBIZ1RS6AZPBOSGY8X","AKNYT1NTK2UFK","3DFYDSXB2WMWAZWJRSN67LWQ0PPJUT","","<img src=""img/set1/S4.jpg"" width=""540"" height = ""360"" style=""border:16px solid orange"">","null","","","","","","","",""
"null","","html-keyboard-response","193","347301","0.0-122.0","3HMIGG0U4MSQTBIZ1RS6AZPBOSGY8X","AKNYT1NTK2UFK","3DFYDSXB2WMWAZWJRSN67LWQ0PPJUT","","","null","","","","","","","",""
"740.3999999985099","","image-keyboard-response","194","348045","0.0-123.0","3HMIGG0U4MSQTBIZ1RS6AZPBOSGY8X","AKNYT1NTK2UFK","3DFYDSXB2WMWAZWJRSN67LWQ0PPJUT","","img/set1/S1.jpg","83","1","random","83","true","random,structured_normal,structured_incentive","1,2,2,3","",""
"null","","html-keyboard-response","195","348400","0.0-124.0","3HMIGG0U4MSQTBIZ1RS6AZPBOSGY8X","AKNYT1NTK2UFK","3DFYDSXB2WMWAZWJRSN67LWQ0PPJUT","","<img src=""img/set1/S1.jpg"" width=""540"" height = ""360"" style=""border:16px solid orange"">","null","","","","","","","",""
"null","","html-keyboard-response","196","348414","0.0-125.0","3HMIGG0U4MSQTBIZ1RS6AZPBOSGY8X","AKNYT1NTK2UFK","3DFYDSXB2WMWAZWJRSN67LWQ0PPJUT","","","null","","","","","","","",""
"688","","image-keyboard-response","197","349105","0.0-126.0","3HMIGG0U4MSQTBIZ1RS6AZPBOSGY8X","AKNYT1NTK2UFK","3DFYDSXB2WMWAZWJRSN67LWQ0PPJUT","","img/set1/S3.jpg","72","3","random","72","true","random,structured_normal,structured_incentive","1,2,2,3","",""
"null","","html-keyboard-response","198","349461","0.0-127.0","3HMIGG0U4MSQTBIZ1RS6AZPBOSGY8X","AKNYT1NTK2UFK","3DFYDSXB2WMWAZWJRSN67LWQ0PPJUT","","<img src=""img/set1/S3.jpg"" width=""540"" height = ""360"" style=""border:16px solid orange"">","null","","","","","","","",""
"null","","html-keyboard-response","199","349466","0.0-128.0","3HMIGG0U4MSQTBIZ1RS6AZPBOSGY8X","AKNYT1NTK2UFK","3DFYDSXB2WMWAZWJRSN67LWQ0PPJUT","","","null","","","","","","","",""
"751.1000000014901","","image-keyboard-response","200","350220","0.0-129.0","3HMIGG0U4MSQTBIZ1RS6AZPBOSGY8X","AKNYT1NTK2UFK","3DFYDSXB2WMWAZWJRSN67LWQ0PPJUT","","img/set1/S1.jpg","83","1","random","83","true","random,structured_normal,structured_incentive","1,2,2,3","",""
"null","","html-keyboard-response","201","350574","0.0-130.0","3HMIGG0U4MSQTBIZ1RS6AZPBOSGY8X","AKNYT1NTK2UFK","3DFYDSXB2WMWAZWJRSN67LWQ0PPJUT","","<img src=""img/set1/S1.jpg"" width=""540"" height = ""360"" style=""border:16px solid orange"">","null","","","","","","","",""
"null","","html-keyboard-response","202","350584","0.0-131.0","3HMIGG0U4MSQTBIZ1RS6AZPBOSGY8X","AKNYT1NTK2UFK","3DFYDSXB2WMWAZWJRSN67LWQ0PPJUT","","","null","","","","","","","",""
"827.7000000029802","","image-keyboard-response","203","351414","0.0-132.0","3HMIGG0U4MSQTBIZ1RS6AZPBOSGY8X","AKNYT1NTK2UFK","3DFYDSXB2WMWAZWJRSN67LWQ0PPJUT","","img/set1/S4.jpg","74","4","random","74","true","random,structured_normal,structured_incentive","1,2,2,3","",""
"null","","html-keyboard-response","204","351768","0.0-133.0","3HMIGG0U4MSQTBIZ1RS6AZPBOSGY8X","AKNYT1NTK2UFK","3DFYDSXB2WMWAZWJRSN67LWQ0PPJUT","","<img src=""img/set1/S4.jpg"" width=""540"" height = ""360"" style=""border:16px solid orange"">","null","","","","","","","",""
"null","","html-keyboard-response","205","351773","0.0-134.0","3HMIGG0U4MSQTBIZ1RS6AZPBOSGY8X","AKNYT1NTK2UFK","3DFYDSXB2WMWAZWJRSN67LWQ0PPJUT","","","null","","","","","","","",""
"673.9000000059605","","image-keyboard-response","206","352449","0.0-135.0","3HMIGG0U4MSQTBIZ1RS6AZPBOSGY8X","AKNYT1NTK2UFK","3DFYDSXB2WMWAZWJRSN67LWQ0PPJUT","","img/set1/S2.jpg","68","2","random","68","true","random,structured_normal,structured_incentive","1,2,2,3","",""
"null","","html-keyboard-response","207","352802","0.0-136.0","3HMIGG0U4MSQTBIZ1RS6AZPBOSGY8X","AKNYT1NTK2UFK","3DFYDSXB2WMWAZWJRSN67LWQ0PPJUT","","<img src=""img/set1/S2.jpg"" width=""540"" height = ""360"" style=""border:16px solid orange"">","null","","","","","","","",""
"null","","html-keyboard-response","208","352807","0.0-137.0","3HMIGG0U4MSQTBIZ1RS6AZPBOSGY8X","AKNYT1NTK2UFK","3DFYDSXB2WMWAZWJRSN67LWQ0PPJUT","","","null","","","","","","","",""
"766","","image-keyboard-response","209","353577","0.0-138.0","3HMIGG0U4MSQTBIZ1RS6AZPBOSGY8X","AKNYT1NTK2UFK","3DFYDSXB2WMWAZWJRSN67LWQ0PPJUT","","img/set1/S3.jpg","72","3","random","72","true","random,structured_normal,structured_incentive","1,2,2,3","",""
"null","","html-keyboard-response","210","353931","0.0-139.0","3HMIGG0U4MSQTBIZ1RS6AZPBOSGY8X","AKNYT1NTK2UFK","3DFYDSXB2WMWAZWJRSN67LWQ0PPJUT","","<img src=""img/set1/S3.jpg"" width=""540"" height = ""360"" style=""border:16px solid orange"">","null","","","","","","","",""
"null","","html-keyboard-response","211","353936","0.0-140.0","3HMIGG0U4MSQTBIZ1RS6AZPBOSGY8X","AKNYT1NTK2UFK","3DFYDSXB2WMWAZWJRSN67LWQ0PPJUT","","","null","","","","","","","",""
"709.6999999955297","","image-keyboard-response","212","354647","0.0-141.0","3HMIGG0U4MSQTBIZ1RS6AZPBOSGY8X","AKNYT1NTK2UFK","3DFYDSXB2WMWAZWJRSN67LWQ0PPJUT","","img/set1/S2.jpg","68","2","random","68","true","random,structured_normal,structured_incentive","1,2,2,3","",""
"null","","html-keyboard-response","213","355003","0.0-142.0","3HMIGG0U4MSQTBIZ1RS6AZPBOSGY8X","AKNYT1NTK2UFK","3DFYDSXB2WMWAZWJRSN67LWQ0PPJUT","","<img src=""img/set1/S2.jpg"" width=""540"" height = ""360"" style=""border:16px solid orange"">","null","","","","","","","",""
"null","","html-keyboard-response","214","355018","0.0-143.0","3HMIGG0U4MSQTBIZ1RS6AZPBOSGY8X","AKNYT1NTK2UFK","3DFYDSXB2WMWAZWJRSN67LWQ0PPJUT","","","null","","","","","","","",""
"646.2000000029802","","image-keyboard-response","215","355667","0.0-144.0","3HMIGG0U4MSQTBIZ1RS6AZPBOSGY8X","AKNYT1NTK2UFK","3DFYDSXB2WMWAZWJRSN67LWQ0PPJUT","","img/set1/S2.jpg","68","2","random","68","true","random,structured_normal,structured_incentive","1,2,2,3","",""
"null","","html-keyboard-response","216","356021","0.0-145.0","3HMIGG0U4MSQTBIZ1RS6AZPBOSGY8X","AKNYT1NTK2UFK","3DFYDSXB2WMWAZWJRSN67LWQ0PPJUT","","<img src=""img/set1/S2.jpg"" width=""540"" height = ""360"" style=""border:16px solid orange"">","null","","","","","","","",""
"null","","html-keyboard-response","217","356026","0.0-146.0","3HMIGG0U4MSQTBIZ1RS6AZPBOSGY8X","AKNYT1NTK2UFK","3DFYDSXB2WMWAZWJRSN67LWQ0PPJUT","","","null","","","","","","","",""
"975.8999999985099","","image-keyboard-response","218","357005","0.0-147.0","3HMIGG0U4MSQTBIZ1RS6AZPBOSGY8X","AKNYT1NTK2UFK","3DFYDSXB2WMWAZWJRSN67LWQ0PPJUT","","img/set1/S1.jpg","74","1","random","83","false","random,structured_normal,structured_incentive","1,2,2,3","",""
"null","","html-keyboard-response","219","357358","0.0-148.0","3HMIGG0U4MSQTBIZ1RS6AZPBOSGY8X","AKNYT1NTK2UFK","3DFYDSXB2WMWAZWJRSN67LWQ0PPJUT","","<img src=""img/set1/S1.jpg"" width=""540"" height = ""360"">","null","","","","","","","",""
"null","","html-keyboard-response","220","357372","0.0-149.0","3HMIGG0U4MSQTBIZ1RS6AZPBOSGY8X","AKNYT1NTK2UFK","3DFYDSXB2WMWAZWJRSN67LWQ0PPJUT","","","null","","","","","","","",""
"795","","image-keyboard-response","221","358170","0.0-150.0","3HMIGG0U4MSQTBIZ1RS6AZPBOSGY8X","AKNYT1NTK2UFK","3DFYDSXB2WMWAZWJRSN67LWQ0PPJUT","","img/set1/S3.jpg","72","3","random","72","true","random,structured_normal,structured_incentive","1,2,2,3","",""
"null","","html-keyboard-response","222","358525","0.0-151.0","3HMIGG0U4MSQTBIZ1RS6AZPBOSGY8X","AKNYT1NTK2UFK","3DFYDSXB2WMWAZWJRSN67LWQ0PPJUT","","<img src=""img/set1/S3.jpg"" width=""540"" height = ""360"" style=""border:16px solid orange"">","null","","","","","","","",""
"null","","html-keyboard-response","223","358530","0.0-152.0","3HMIGG0U4MSQTBIZ1RS6AZPBOSGY8X","AKNYT1NTK2UFK","3DFYDSXB2WMWAZWJRSN67LWQ0PPJUT","","","null","","","","","","","",""
"624.1000000014901","","image-keyboard-response","224","359157","0.0-153.0","3HMIGG0U4MSQTBIZ1RS6AZPBOSGY8X","AKNYT1NTK2UFK","3DFYDSXB2WMWAZWJRSN67LWQ0PPJUT","","img/set1/S1.jpg","83","1","random","83","true","random,structured_normal,structured_incentive","1,2,2,3","",""
"null","","html-keyboard-response","225","359515","0.0-154.0","3HMIGG0U4MSQTBIZ1RS6AZPBOSGY8X","AKNYT1NTK2UFK","3DFYDSXB2WMWAZWJRSN67LWQ0PPJUT","","<img src=""img/set1/S1.jpg"" width=""540"" height = ""360"" style=""border:16px solid orange"">","null","","","","","","","",""
"null","","html-keyboard-response","226","359520","0.0-155.0","3HMIGG0U4MSQTBIZ1RS6AZPBOSGY8X","AKNYT1NTK2UFK","3DFYDSXB2WMWAZWJRSN67LWQ0PPJUT","","","null","","","","","","","",""
"988.7000000029802","","image-keyboard-response","227","360510","0.0-156.0","3HMIGG0U4MSQTBIZ1RS6AZPBOSGY8X","AKNYT1NTK2UFK","3DFYDSXB2WMWAZWJRSN67LWQ0PPJUT","","img/set1/S3.jpg","72","3","random","72","true","random,structured_normal,structured_incentive","1,2,2,3","",""
"null","","html-keyboard-response","228","360863","0.0-157.0","3HMIGG0U4MSQTBIZ1RS6AZPBOSGY8X","AKNYT1NTK2UFK","3DFYDSXB2WMWAZWJRSN67LWQ0PPJUT","","<img src=""img/set1/S3.jpg"" width=""540"" height = ""360"" style=""border:16px solid orange"">","null","","","","","","","",""
"null","","html-keyboard-response","229","360869","0.0-158.0","3HMIGG0U4MSQTBIZ1RS6AZPBOSGY8X","AKNYT1NTK2UFK","3DFYDSXB2WMWAZWJRSN67LWQ0PPJUT","","","null","","","","","","","",""
"558.6999999955297","","image-keyboard-response","230","361431","0.0-159.0","3HMIGG0U4MSQTBIZ1RS6AZPBOSGY8X","AKNYT1NTK2UFK","3DFYDSXB2WMWAZWJRSN67LWQ0PPJUT","","img/set1/S3.jpg","72","3","random","72","true","random,structured_normal,structured_incentive","1,2,2,3","",""
"null","","html-keyboard-response","231","361789","0.0-160.0","3HMIGG0U4MSQTBIZ1RS6AZPBOSGY8X","AKNYT1NTK2UFK","3DFYDSXB2WMWAZWJRSN67LWQ0PPJUT","","<img src=""img/set1/S3.jpg"" width=""540"" height = ""360"" style=""border:16px solid orange"">","null","","","","","","","",""
"null","","html-keyboard-response","232","361800","0.0-161.0","3HMIGG0U4MSQTBIZ1RS6AZPBOSGY8X","AKNYT1NTK2UFK","3DFYDSXB2WMWAZWJRSN67LWQ0PPJUT","","","null","","","","","","","",""
"541.3999999985099","","image-keyboard-response","233","362344","0.0-162.0","3HMIGG0U4MSQTBIZ1RS6AZPBOSGY8X","AKNYT1NTK2UFK","3DFYDSXB2WMWAZWJRSN67LWQ0PPJUT","","img/set1/S3.jpg","72","3","random","72","true","random,structured_normal,structured_incentive","1,2,2,3","",""
"null","","html-keyboard-response","234","362699","0.0-163.0","3HMIGG0U4MSQTBIZ1RS6AZPBOSGY8X","AKNYT1NTK2UFK","3DFYDSXB2WMWAZWJRSN67LWQ0PPJUT","","<img src=""img/set1/S3.jpg"" width=""540"" height = ""360"" style=""border:16px solid orange"">","null","","","","","","","",""
"null","","html-keyboard-response","235","362704","0.0-164.0","3HMIGG0U4MSQTBIZ1RS6AZPBOSGY8X","AKNYT1NTK2UFK","3DFYDSXB2WMWAZWJRSN67LWQ0PPJUT","","","null","","","","","","","",""
"678.8000000044703","","image-keyboard-response","236","363385","0.0-165.0","3HMIGG0U4MSQTBIZ1RS6AZPBOSGY8X","AKNYT1NTK2UFK","3DFYDSXB2WMWAZWJRSN67LWQ0PPJUT","","img/set1/S2.jpg","68","2","random","68","true","random,structured_normal,structured_incentive","1,2,2,3","",""
"null","","html-keyboard-response","237","363739","0.0-166.0","3HMIGG0U4MSQTBIZ1RS6AZPBOSGY8X","AKNYT1NTK2UFK","3DFYDSXB2WMWAZWJRSN67LWQ0PPJUT","","<img src=""img/set1/S2.jpg"" width=""540"" height = ""360"" style=""border:16px solid orange"">","null","","","","","","","",""
"null","","html-keyboard-response","238","363752","0.0-167.0","3HMIGG0U4MSQTBIZ1RS6AZPBOSGY8X","AKNYT1NTK2UFK","3DFYDSXB2WMWAZWJRSN67LWQ0PPJUT","","","null","","","","","","","",""
"695.2999999970198","","image-keyboard-response","239","364451","0.0-168.0","3HMIGG0U4MSQTBIZ1RS6AZPBOSGY8X","AKNYT1NTK2UFK","3DFYDSXB2WMWAZWJRSN67LWQ0PPJUT","","img/set1/S3.jpg","72","3","random","72","true","random,structured_normal,structured_incentive","1,2,2,3","",""
"null","","html-keyboard-response","240","364805","0.0-169.0","3HMIGG0U4MSQTBIZ1RS6AZPBOSGY8X","AKNYT1NTK2UFK","3DFYDSXB2WMWAZWJRSN67LWQ0PPJUT","","<img src=""img/set1/S3.jpg"" width=""540"" height = ""360"" style=""border:16px solid orange"">","null","","","","","","","",""
"null","","html-keyboard-response","241","364812","0.0-170.0","3HMIGG0U4MSQTBIZ1RS6AZPBOSGY8X","AKNYT1NTK2UFK","3DFYDSXB2WMWAZWJRSN67LWQ0PPJUT","","","null","","","","","","","",""
"578.5","","image-keyboard-response","242","365395","0.0-171.0","3HMIGG0U4MSQTBIZ1RS6AZPBOSGY8X","AKNYT1NTK2UFK","3DFYDSXB2WMWAZWJRSN67LWQ0PPJUT","","img/set1/S2.jpg","68","2","random","68","true","random,structured_normal,structured_incentive","1,2,2,3","",""
"null","","html-keyboard-response","243","365750","0.0-172.0","3HMIGG0U4MSQTBIZ1RS6AZPBOSGY8X","AKNYT1NTK2UFK","3DFYDSXB2WMWAZWJRSN67LWQ0PPJUT","","<img src=""img/set1/S2.jpg"" width=""540"" height = ""360"" style=""border:16px solid orange"">","null","","","","","","","",""
"null","","html-keyboard-response","244","365764","0.0-173.0","3HMIGG0U4MSQTBIZ1RS6AZPBOSGY8X","AKNYT1NTK2UFK","3DFYDSXB2WMWAZWJRSN67LWQ0PPJUT","","","null","","","","","","","",""
"536.8999999985099","","image-keyboard-response","245","366303","0.0-174.0","3HMIGG0U4MSQTBIZ1RS6AZPBOSGY8X","AKNYT1NTK2UFK","3DFYDSXB2WMWAZWJRSN67LWQ0PPJUT","","img/set1/S3.jpg","72","3","random","72","true","random,structured_normal,structured_incentive","1,2,2,3","",""
"null","","html-keyboard-response","246","366658","0.0-175.0","3HMIGG0U4MSQTBIZ1RS6AZPBOSGY8X","AKNYT1NTK2UFK","3DFYDSXB2WMWAZWJRSN67LWQ0PPJUT","","<img src=""img/set1/S3.jpg"" width=""540"" height = ""360"" style=""border:16px solid orange"">","null","","","","","","","",""
"null","","html-keyboard-response","247","366664","0.0-176.0","3HMIGG0U4MSQTBIZ1RS6AZPBOSGY8X","AKNYT1NTK2UFK","3DFYDSXB2WMWAZWJRSN67LWQ0PPJUT","","","null","","","","","","","",""
"1433.2999999970198","","image-keyboard-response","248","368100","0.0-177.0","3HMIGG0U4MSQTBIZ1RS6AZPBOSGY8X","AKNYT1NTK2UFK","3DFYDSXB2WMWAZWJRSN67LWQ0PPJUT","","img/set1/S4.jpg","74","4","random","74","true","random,structured_normal,structured_incentive","1,2,2,3","",""
"null","","html-keyboard-response","249","368453","0.0-178.0","3HMIGG0U4MSQTBIZ1RS6AZPBOSGY8X","AKNYT1NTK2UFK","3DFYDSXB2WMWAZWJRSN67LWQ0PPJUT","","<img src=""img/set1/S4.jpg"" width=""540"" height = ""360"" style=""border:16px solid orange"">","null","","","","","","","",""
"null","","html-keyboard-response","250","368467","0.0-179.0","3HMIGG0U4MSQTBIZ1RS6AZPBOSGY8X","AKNYT1NTK2UFK","3DFYDSXB2WMWAZWJRSN67LWQ0PPJUT","","","null","","","","","","","",""
"901","","image-keyboard-response","251","369371","0.0-180.0","3HMIGG0U4MSQTBIZ1RS6AZPBOSGY8X","AKNYT1NTK2UFK","3DFYDSXB2WMWAZWJRSN67LWQ0PPJUT","","img/set1/S2.jpg","83","2","random","68","false","random,structured_normal,structured_incentive","1,2,2,3","",""
"null","","html-keyboard-response","252","369725","0.0-181.0","3HMIGG0U4MSQTBIZ1RS6AZPBOSGY8X","AKNYT1NTK2UFK","3DFYDSXB2WMWAZWJRSN67LWQ0PPJUT","","<img src=""img/set1/S2.jpg"" width=""540"" height = ""360"">","null","","","","","","","",""
"null","","html-keyboard-response","253","369730","0.0-182.0","3HMIGG0U4MSQTBIZ1RS6AZPBOSGY8X","AKNYT1NTK2UFK","3DFYDSXB2WMWAZWJRSN67LWQ0PPJUT","","","null","","","","","","","",""
"890.8999999985099","","image-keyboard-response","254","370622","0.0-183.0","3HMIGG0U4MSQTBIZ1RS6AZPBOSGY8X","AKNYT1NTK2UFK","3DFYDSXB2WMWAZWJRSN67LWQ0PPJUT","","img/set1/S3.jpg","83","3","random","72","false","random,structured_normal,structured_incentive","1,2,2,3","",""
"null","","html-keyboard-response","255","370979","0.0-184.0","3HMIGG0U4MSQTBIZ1RS6AZPBOSGY8X","AKNYT1NTK2UFK","3DFYDSXB2WMWAZWJRSN67LWQ0PPJUT","","<img src=""img/set1/S3.jpg"" width=""540"" height = ""360"">","null","","","","","","","",""
"null","","html-keyboard-response","256","370990","0.0-185.0","3HMIGG0U4MSQTBIZ1RS6AZPBOSGY8X","AKNYT1NTK2UFK","3DFYDSXB2WMWAZWJRSN67LWQ0PPJUT","","","null","","","","","","","",""
"644.6000000014901","","image-keyboard-response","257","371639","0.0-186.0","3HMIGG0U4MSQTBIZ1RS6AZPBOSGY8X","AKNYT1NTK2UFK","3DFYDSXB2WMWAZWJRSN67LWQ0PPJUT","","img/set1/S1.jpg","83","1","random","83","true","random,structured_normal,structured_incentive","1,2,2,3","",""
"null","","html-keyboard-response","258","371995","0.0-187.0","3HMIGG0U4MSQTBIZ1RS6AZPBOSGY8X","AKNYT1NTK2UFK","3DFYDSXB2WMWAZWJRSN67LWQ0PPJUT","","<img src=""img/set1/S1.jpg"" width=""540"" height = ""360"" style=""border:16px solid orange"">","null","","","","","","","",""
"null","","html-keyboard-response","259","372000","0.0-188.0","3HMIGG0U4MSQTBIZ1RS6AZPBOSGY8X","AKNYT1NTK2UFK","3DFYDSXB2WMWAZWJRSN67LWQ0PPJUT","","","null","","","","","","","",""
"518.4000000059605","","image-keyboard-response","260","372520","0.0-189.0","3HMIGG0U4MSQTBIZ1RS6AZPBOSGY8X","AKNYT1NTK2UFK","3DFYDSXB2WMWAZWJRSN67LWQ0PPJUT","","img/set1/S3.jpg","72","3","random","72","true","random,structured_normal,structured_incentive","1,2,2,3","",""
"null","","html-keyboard-response","261","372876","0.0-190.0","3HMIGG0U4MSQTBIZ1RS6AZPBOSGY8X","AKNYT1NTK2UFK","3DFYDSXB2WMWAZWJRSN67LWQ0PPJUT","","<img src=""img/set1/S3.jpg"" width=""540"" height = ""360"" style=""border:16px solid orange"">","null","","","","","","","",""
"null","","html-keyboard-response","262","372888","0.0-191.0","3HMIGG0U4MSQTBIZ1RS6AZPBOSGY8X","AKNYT1NTK2UFK","3DFYDSXB2WMWAZWJRSN67LWQ0PPJUT","","","null","","","","","","","",""
"540.5","","image-keyboard-response","263","373431","0.0-192.0","3HMIGG0U4MSQTBIZ1RS6AZPBOSGY8X","AKNYT1NTK2UFK","3DFYDSXB2WMWAZWJRSN67LWQ0PPJUT","","img/set1/S4.jpg","74","4","random","74","true","random,structured_normal,structured_incentive","1,2,2,3","",""
"null","","html-keyboard-response","264","373786","0.0-193.0","3HMIGG0U4MSQTBIZ1RS6AZPBOSGY8X","AKNYT1NTK2UFK","3DFYDSXB2WMWAZWJRSN67LWQ0PPJUT","","<img src=""img/set1/S4.jpg"" width=""540"" height = ""360"" style=""border:16px solid orange"">","null","","","","","","","",""
"null","","html-keyboard-response","265","373795","0.0-194.0","3HMIGG0U4MSQTBIZ1RS6AZPBOSGY8X","AKNYT1NTK2UFK","3DFYDSXB2WMWAZWJRSN67LWQ0PPJUT","","","null","","","","","","","",""
"460.3999999985099","","image-keyboard-response","266","374259","0.0-195.0","3HMIGG0U4MSQTBIZ1RS6AZPBOSGY8X","AKNYT1NTK2UFK","3DFYDSXB2WMWAZWJRSN67LWQ0PPJUT","","img/set1/S4.jpg","74","4","random","74","true","random,structured_normal,structured_incentive","1,2,2,3","",""
"null","","html-keyboard-response","267","374614","0.0-196.0","3HMIGG0U4MSQTBIZ1RS6AZPBOSGY8X","AKNYT1NTK2UFK","3DFYDSXB2WMWAZWJRSN67LWQ0PPJUT","","<img src=""img/set1/S4.jpg"" width=""540"" height = ""360"" style=""border:16px solid orange"">","null","","","","","","","",""
"null","","html-keyboard-response","268","374620","0.0-197.0","3HMIGG0U4MSQTBIZ1RS6AZPBOSGY8X","AKNYT1NTK2UFK","3DFYDSXB2WMWAZWJRSN67LWQ0PPJUT","","","null","","","","","","","",""
"474.19999999552965","","image-keyboard-response","269","375097","0.0-198.0","3HMIGG0U4MSQTBIZ1RS6AZPBOSGY8X","AKNYT1NTK2UFK","3DFYDSXB2WMWAZWJRSN67LWQ0PPJUT","","img/set1/S4.jpg","74","4","random","74","true","random,structured_normal,structured_incentive","1,2,2,3","",""
"null","","html-keyboard-response","270","375450","0.0-199.0","3HMIGG0U4MSQTBIZ1RS6AZPBOSGY8X","AKNYT1NTK2UFK","3DFYDSXB2WMWAZWJRSN67LWQ0PPJUT","","<img src=""img/set1/S4.jpg"" width=""540"" height = ""360"" style=""border:16px solid orange"">","null","","","","","","","",""
"null","","html-keyboard-response","271","375464","0.0-200.0","3HMIGG0U4MSQTBIZ1RS6AZPBOSGY8X","AKNYT1NTK2UFK","3DFYDSXB2WMWAZWJRSN67LWQ0PPJUT","","","null","","","","","","","",""
"430.90000000596046","","image-keyboard-response","272","375899","0.0-201.0","3HMIGG0U4MSQTBIZ1RS6AZPBOSGY8X","AKNYT1NTK2UFK","3DFYDSXB2WMWAZWJRSN67LWQ0PPJUT","","img/set1/S4.jpg","74","4","random","74","true","random,structured_normal,structured_incentive","1,2,2,3","",""
"null","","html-keyboard-response","273","376253","0.0-202.0","3HMIGG0U4MSQTBIZ1RS6AZPBOSGY8X","AKNYT1NTK2UFK","3DFYDSXB2WMWAZWJRSN67LWQ0PPJUT","","<img src=""img/set1/S4.jpg"" width=""540"" height = ""360"" style=""border:16px solid orange"">","null","","","","","","","",""
"null","","html-keyboard-response","274","376267","0.0-203.0","3HMIGG0U4MSQTBIZ1RS6AZPBOSGY8X","AKNYT1NTK2UFK","3DFYDSXB2WMWAZWJRSN67LWQ0PPJUT","","","null","","","","","","","",""
"668.1000000014901","","image-keyboard-response","275","376939","0.0-204.0","3HMIGG0U4MSQTBIZ1RS6AZPBOSGY8X","AKNYT1NTK2UFK","3DFYDSXB2WMWAZWJRSN67LWQ0PPJUT","","img/set1/S1.jpg","83","1","random","83","true","random,structured_normal,structured_incentive","1,2,2,3","",""
"null","","html-keyboard-response","276","377296","0.0-205.0","3HMIGG0U4MSQTBIZ1RS6AZPBOSGY8X","AKNYT1NTK2UFK","3DFYDSXB2WMWAZWJRSN67LWQ0PPJUT","","<img src=""img/set1/S1.jpg"" width=""540"" height = ""360"" style=""border:16px solid orange"">","null","","","","","","","",""
"null","","html-keyboard-response","277","377307","0.0-206.0","3HMIGG0U4MSQTBIZ1RS6AZPBOSGY8X","AKNYT1NTK2UFK","3DFYDSXB2WMWAZWJRSN67LWQ0PPJUT","","","null","","","","","","","",""
"771.5","","image-keyboard-response","278","378081","0.0-207.0","3HMIGG0U4MSQTBIZ1RS6AZPBOSGY8X","AKNYT1NTK2UFK","3DFYDSXB2WMWAZWJRSN67LWQ0PPJUT","","img/set1/S4.jpg","74","4","random","74","true","random,structured_normal,structured_incentive","1,2,2,3","",""
"null","","html-keyboard-response","279","378435","0.0-208.0","3HMIGG0U4MSQTBIZ1RS6AZPBOSGY8X","AKNYT1NTK2UFK","3DFYDSXB2WMWAZWJRSN67LWQ0PPJUT","","<img src=""img/set1/S4.jpg"" width=""540"" height = ""360"" style=""border:16px solid orange"">","null","","","","","","","",""
"null","","html-keyboard-response","280","378450","0.0-209.0","3HMIGG0U4MSQTBIZ1RS6AZPBOSGY8X","AKNYT1NTK2UFK","3DFYDSXB2WMWAZWJRSN67LWQ0PPJUT","","","null","","","","","","","",""
"626.6000000014901","","image-keyboard-response","281","379081","0.0-210.0","3HMIGG0U4MSQTBIZ1RS6AZPBOSGY8X","AKNYT1NTK2UFK","3DFYDSXB2WMWAZWJRSN67LWQ0PPJUT","","img/set1/S3.jpg","72","3","random","72","true","random,structured_normal,structured_incentive","1,2,2,3","",""
"null","","html-keyboard-response","282","379435","0.0-211.0","3HMIGG0U4MSQTBIZ1RS6AZPBOSGY8X","AKNYT1NTK2UFK","3DFYDSXB2WMWAZWJRSN67LWQ0PPJUT","","<img src=""img/set1/S3.jpg"" width=""540"" height = ""360"" style=""border:16px solid orange"">","null","","","","","","","",""
"null","","html-keyboard-response","283","379449","0.0-212.0","3HMIGG0U4MSQTBIZ1RS6AZPBOSGY8X","AKNYT1NTK2UFK","3DFYDSXB2WMWAZWJRSN67LWQ0PPJUT","","","null","","","","","","","",""
"664.1000000014901","","image-keyboard-response","284","380116","0.0-213.0","3HMIGG0U4MSQTBIZ1RS6AZPBOSGY8X","AKNYT1NTK2UFK","3DFYDSXB2WMWAZWJRSN67LWQ0PPJUT","","img/set1/S4.jpg","74","4","random","74","true","random,structured_normal,structured_incentive","1,2,2,3","",""
"null","","html-keyboard-response","285","380473","0.0-214.0","3HMIGG0U4MSQTBIZ1RS6AZPBOSGY8X","AKNYT1NTK2UFK","3DFYDSXB2WMWAZWJRSN67LWQ0PPJUT","","<img src=""img/set1/S4.jpg"" width=""540"" height = ""360"" style=""border:16px solid orange"">","null","","","","","","","",""
"null","","html-keyboard-response","286","380485","0.0-215.0","3HMIGG0U4MSQTBIZ1RS6AZPBOSGY8X","AKNYT1NTK2UFK","3DFYDSXB2WMWAZWJRSN67LWQ0PPJUT","","","null","","","","","","","",""
"769.1000000014901","","image-keyboard-response","287","381257","0.0-216.0","3HMIGG0U4MSQTBIZ1RS6AZPBOSGY8X","AKNYT1NTK2UFK","3DFYDSXB2WMWAZWJRSN67LWQ0PPJUT","","img/set1/S2.jpg","68","2","random","68","true","random,structured_normal,structured_incentive","1,2,2,3","",""
"null","","html-keyboard-response","288","381612","0.0-217.0","3HMIGG0U4MSQTBIZ1RS6AZPBOSGY8X","AKNYT1NTK2UFK","3DFYDSXB2WMWAZWJRSN67LWQ0PPJUT","","<img src=""img/set1/S2.jpg"" width=""540"" height = ""360"" style=""border:16px solid orange"">","null","","","","","","","",""
"null","","html-keyboard-response","289","381617","0.0-218.0","3HMIGG0U4MSQTBIZ1RS6AZPBOSGY8X","AKNYT1NTK2UFK","3DFYDSXB2WMWAZWJRSN67LWQ0PPJUT","","","null","","","","","","","",""
"624.8000000044703","","image-keyboard-response","290","382245","0.0-219.0","3HMIGG0U4MSQTBIZ1RS6AZPBOSGY8X","AKNYT1NTK2UFK","3DFYDSXB2WMWAZWJRSN67LWQ0PPJUT","","img/set1/S4.jpg","74","4","random","74","true","random,structured_normal,structured_incentive","1,2,2,3","",""
"null","","html-keyboard-response","291","382600","0.0-220.0","3HMIGG0U4MSQTBIZ1RS6AZPBOSGY8X","AKNYT1NTK2UFK","3DFYDSXB2WMWAZWJRSN67LWQ0PPJUT","","<img src=""img/set1/S4.jpg"" width=""540"" height = ""360"" style=""border:16px solid orange"">","null","","","","","","","",""
"null","","html-keyboard-response","292","382605","0.0-221.0","3HMIGG0U4MSQTBIZ1RS6AZPBOSGY8X","AKNYT1NTK2UFK","3DFYDSXB2WMWAZWJRSN67LWQ0PPJUT","","","null","","","","","","","",""
"891.2999999970198","","image-keyboard-response","293","383500","0.0-222.0","3HMIGG0U4MSQTBIZ1RS6AZPBOSGY8X","AKNYT1NTK2UFK","3DFYDSXB2WMWAZWJRSN67LWQ0PPJUT","","img/set1/S4.jpg","74","4","random","74","true","random,structured_normal,structured_incentive","1,2,2,3","",""
"null","","html-keyboard-response","294","383854","0.0-223.0","3HMIGG0U4MSQTBIZ1RS6AZPBOSGY8X","AKNYT1NTK2UFK","3DFYDSXB2WMWAZWJRSN67LWQ0PPJUT","","<img src=""img/set1/S4.jpg"" width=""540"" height = ""360"" style=""border:16px solid orange"">","null","","","","","","","",""
"null","","html-keyboard-response","295","383861","0.0-224.0","3HMIGG0U4MSQTBIZ1RS6AZPBOSGY8X","AKNYT1NTK2UFK","3DFYDSXB2WMWAZWJRSN67LWQ0PPJUT","","","null","","","","","","","",""
"674.1000000014901","","image-keyboard-response","296","384537","0.0-225.0","3HMIGG0U4MSQTBIZ1RS6AZPBOSGY8X","AKNYT1NTK2UFK","3DFYDSXB2WMWAZWJRSN67LWQ0PPJUT","","img/set1/S2.jpg","68","2","random","68","true","random,structured_normal,structured_incentive","1,2,2,3","",""
"null","","html-keyboard-response","297","384892","0.0-226.0","3HMIGG0U4MSQTBIZ1RS6AZPBOSGY8X","AKNYT1NTK2UFK","3DFYDSXB2WMWAZWJRSN67LWQ0PPJUT","","<img src=""img/set1/S2.jpg"" width=""540"" height = ""360"" style=""border:16px solid orange"">","null","","","","","","","",""
"null","","html-keyboard-response","298","384896","0.0-227.0","3HMIGG0U4MSQTBIZ1RS6AZPBOSGY8X","AKNYT1NTK2UFK","3DFYDSXB2WMWAZWJRSN67LWQ0PPJUT","","","null","","","","","","","",""
"505.19999999552965","","image-keyboard-response","299","385404","0.0-228.0","3HMIGG0U4MSQTBIZ1RS6AZPBOSGY8X","AKNYT1NTK2UFK","3DFYDSXB2WMWAZWJRSN67LWQ0PPJUT","","img/set1/S2.jpg","68","2","random","68","true","random,structured_normal,structured_incentive","1,2,2,3","",""
"null","","html-keyboard-response","300","385761","0.0-229.0","3HMIGG0U4MSQTBIZ1RS6AZPBOSGY8X","AKNYT1NTK2UFK","3DFYDSXB2WMWAZWJRSN67LWQ0PPJUT","","<img src=""img/set1/S2.jpg"" width=""540"" height = ""360"" style=""border:16px solid orange"">","null","","","","","","","",""
"null","","html-keyboard-response","301","385771","0.0-230.0","3HMIGG0U4MSQTBIZ1RS6AZPBOSGY8X","AKNYT1NTK2UFK","3DFYDSXB2WMWAZWJRSN67LWQ0PPJUT","","","null","","","","","","","",""
"675.6999999955297","","image-keyboard-response","302","386449","0.0-231.0","3HMIGG0U4MSQTBIZ1RS6AZPBOSGY8X","AKNYT1NTK2UFK","3DFYDSXB2WMWAZWJRSN67LWQ0PPJUT","","img/set1/S3.jpg","72","3","random","72","true","random,structured_normal,structured_incentive","1,2,2,3","",""
"null","","html-keyboard-response","303","386804","0.0-232.0","3HMIGG0U4MSQTBIZ1RS6AZPBOSGY8X","AKNYT1NTK2UFK","3DFYDSXB2WMWAZWJRSN67LWQ0PPJUT","","<img src=""img/set1/S3.jpg"" width=""540"" height = ""360"" style=""border:16px solid orange"">","null","","","","","","","",""
"null","","html-keyboard-response","304","386812","0.0-233.0","3HMIGG0U4MSQTBIZ1RS6AZPBOSGY8X","AKNYT1NTK2UFK","3DFYDSXB2WMWAZWJRSN67LWQ0PPJUT","","","null","","","","","","","",""
"806.6000000014901","","image-keyboard-response","305","387621","0.0-234.0","3HMIGG0U4MSQTBIZ1RS6AZPBOSGY8X","AKNYT1NTK2UFK","3DFYDSXB2WMWAZWJRSN67LWQ0PPJUT","","img/set1/S2.jpg","68","2","random","68","true","random,structured_normal,structured_incentive","1,2,2,3","",""
"null","","html-keyboard-response","306","387973","0.0-235.0","3HMIGG0U4MSQTBIZ1RS6AZPBOSGY8X","AKNYT1NTK2UFK","3DFYDSXB2WMWAZWJRSN67LWQ0PPJUT","","<img src=""img/set1/S2.jpg"" width=""540"" height = ""360"" style=""border:16px solid orange"">","null","","","","","","","",""
"null","","html-keyboard-response","307","387979","0.0-236.0","3HMIGG0U4MSQTBIZ1RS6AZPBOSGY8X","AKNYT1NTK2UFK","3DFYDSXB2WMWAZWJRSN67LWQ0PPJUT","","","null","","","","","","","",""
"456.6000000014901","","image-keyboard-response","308","388439","0.0-237.0","3HMIGG0U4MSQTBIZ1RS6AZPBOSGY8X","AKNYT1NTK2UFK","3DFYDSXB2WMWAZWJRSN67LWQ0PPJUT","","img/set1/S2.jpg","68","2","random","68","true","random,structured_normal,structured_incentive","1,2,2,3","",""
"null","","html-keyboard-response","309","388796","0.0-238.0","3HMIGG0U4MSQTBIZ1RS6AZPBOSGY8X","AKNYT1NTK2UFK","3DFYDSXB2WMWAZWJRSN67LWQ0PPJUT","","<img src=""img/set1/S2.jpg"" width=""540"" height = ""360"" style=""border:16px solid orange"">","null","","","","","","","",""
"null","","html-keyboard-response","310","388806","0.0-239.0","3HMIGG0U4MSQTBIZ1RS6AZPBOSGY8X","AKNYT1NTK2UFK","3DFYDSXB2WMWAZWJRSN67LWQ0PPJUT","","","null","","","","","","","",""
"579.2999999970198","","image-keyboard-response","311","389390","0.0-240.0","3HMIGG0U4MSQTBIZ1RS6AZPBOSGY8X","AKNYT1NTK2UFK","3DFYDSXB2WMWAZWJRSN67LWQ0PPJUT","","img/set1/S1.jpg","83","1","random","83","true","random,structured_normal,structured_incentive","1,2,2,3","",""
"null","","html-keyboard-response","312","389746","0.0-241.0","3HMIGG0U4MSQTBIZ1RS6AZPBOSGY8X","AKNYT1NTK2UFK","3DFYDSXB2WMWAZWJRSN67LWQ0PPJUT","","<img src=""img/set1/S1.jpg"" width=""540"" height = ""360"" style=""border:16px solid orange"">","null","","","","","","","",""
"null","","html-keyboard-response","313","389751","0.0-242.0","3HMIGG0U4MSQTBIZ1RS6AZPBOSGY8X","AKNYT1NTK2UFK","3DFYDSXB2WMWAZWJRSN67LWQ0PPJUT","","","null","","","","","","","",""
"646.1000000014901","","image-keyboard-response","314","390399","0.0-243.0","3HMIGG0U4MSQTBIZ1RS6AZPBOSGY8X","AKNYT1NTK2UFK","3DFYDSXB2WMWAZWJRSN67LWQ0PPJUT","","img/set1/S4.jpg","74","4","random","74","true","random,structured_normal,structured_incentive","1,2,2,3","",""
"null","","html-keyboard-response","315","390755","0.0-244.0","3HMIGG0U4MSQTBIZ1RS6AZPBOSGY8X","AKNYT1NTK2UFK","3DFYDSXB2WMWAZWJRSN67LWQ0PPJUT","","<img src=""img/set1/S4.jpg"" width=""540"" height = ""360"" style=""border:16px solid orange"">","null","","","","","","","",""
"null","","html-keyboard-response","316","390768","0.0-245.0","3HMIGG0U4MSQTBIZ1RS6AZPBOSGY8X","AKNYT1NTK2UFK","3DFYDSXB2WMWAZWJRSN67LWQ0PPJUT","","","null","","","","","","","",""
"488.8999999985099","","image-keyboard-response","317","391260","0.0-246.0","3HMIGG0U4MSQTBIZ1RS6AZPBOSGY8X","AKNYT1NTK2UFK","3DFYDSXB2WMWAZWJRSN67LWQ0PPJUT","","img/set1/S4.jpg","74","4","random","74","true","random,structured_normal,structured_incentive","1,2,2,3","",""
"null","","html-keyboard-response","318","391615","0.0-247.0","3HMIGG0U4MSQTBIZ1RS6AZPBOSGY8X","AKNYT1NTK2UFK","3DFYDSXB2WMWAZWJRSN67LWQ0PPJUT","","<img src=""img/set1/S4.jpg"" width=""540"" height = ""360"" style=""border:16px solid orange"">","null","","","","","","","",""
"null","","html-keyboard-response","319","391620","0.0-248.0","3HMIGG0U4MSQTBIZ1RS6AZPBOSGY8X","AKNYT1NTK2UFK","3DFYDSXB2WMWAZWJRSN67LWQ0PPJUT","","","null","","","","","","","",""
"617.8000000044703","","image-keyboard-response","320","392240","0.0-249.0","3HMIGG0U4MSQTBIZ1RS6AZPBOSGY8X","AKNYT1NTK2UFK","3DFYDSXB2WMWAZWJRSN67LWQ0PPJUT","","img/set1/S3.jpg","72","3","random","72","true","random,structured_normal,structured_incentive","1,2,2,3","",""
"null","","html-keyboard-response","321","392593","0.0-250.0","3HMIGG0U4MSQTBIZ1RS6AZPBOSGY8X","AKNYT1NTK2UFK","3DFYDSXB2WMWAZWJRSN67LWQ0PPJUT","","<img src=""img/set1/S3.jpg"" width=""540"" height = ""360"" style=""border:16px solid orange"">","null","","","","","","","",""
"null","","html-keyboard-response","322","392599","0.0-251.0","3HMIGG0U4MSQTBIZ1RS6AZPBOSGY8X","AKNYT1NTK2UFK","3DFYDSXB2WMWAZWJRSN67LWQ0PPJUT","","","null","","","","","","","",""
"623.5","","image-keyboard-response","323","393225","0.0-252.0","3HMIGG0U4MSQTBIZ1RS6AZPBOSGY8X","AKNYT1NTK2UFK","3DFYDSXB2WMWAZWJRSN67LWQ0PPJUT","","img/set1/S4.jpg","74","4","random","74","true","random,structured_normal,structured_incentive","1,2,2,3","",""
"null","","html-keyboard-response","324","393579","0.0-253.0","3HMIGG0U4MSQTBIZ1RS6AZPBOSGY8X","AKNYT1NTK2UFK","3DFYDSXB2WMWAZWJRSN67LWQ0PPJUT","","<img src=""img/set1/S4.jpg"" width=""540"" height = ""360"" style=""border:16px solid orange"">","null","","","","","","","",""
"null","","html-keyboard-response","325","393584","0.0-254.0","3HMIGG0U4MSQTBIZ1RS6AZPBOSGY8X","AKNYT1NTK2UFK","3DFYDSXB2WMWAZWJRSN67LWQ0PPJUT","","","null","","","","","","","",""
"692.8000000044703","","image-keyboard-response","326","394279","0.0-255.0","3HMIGG0U4MSQTBIZ1RS6AZPBOSGY8X","AKNYT1NTK2UFK","3DFYDSXB2WMWAZWJRSN67LWQ0PPJUT","","img/set1/S1.jpg","83","1","random","83","true","random,structured_normal,structured_incentive","1,2,2,3","",""
"null","","html-keyboard-response","327","394635","0.0-256.0","3HMIGG0U4MSQTBIZ1RS6AZPBOSGY8X","AKNYT1NTK2UFK","3DFYDSXB2WMWAZWJRSN67LWQ0PPJUT","","<img src=""img/set1/S1.jpg"" width=""540"" height = ""360"" style=""border:16px solid orange"">","null","","","","","","","",""
"null","","html-keyboard-response","328","394647","0.0-257.0","3HMIGG0U4MSQTBIZ1RS6AZPBOSGY8X","AKNYT1NTK2UFK","3DFYDSXB2WMWAZWJRSN67LWQ0PPJUT","","","null","","","","","","","",""
"803.5","","image-keyboard-response","329","395452","0.0-258.0","3HMIGG0U4MSQTBIZ1RS6AZPBOSGY8X","AKNYT1NTK2UFK","3DFYDSXB2WMWAZWJRSN67LWQ0PPJUT","","img/set1/S3.jpg","72","3","random","72","true","random,structured_normal,structured_incentive","1,2,2,3","",""
"null","","html-keyboard-response","330","395805","0.0-259.0","3HMIGG0U4MSQTBIZ1RS6AZPBOSGY8X","AKNYT1NTK2UFK","3DFYDSXB2WMWAZWJRSN67LWQ0PPJUT","","<img src=""img/set1/S3.jpg"" width=""540"" height = ""360"" style=""border:16px solid orange"">","null","","","","","","","",""
"null","","html-keyboard-response","331","395814","0.0-260.0","3HMIGG0U4MSQTBIZ1RS6AZPBOSGY8X","AKNYT1NTK2UFK","3DFYDSXB2WMWAZWJRSN67LWQ0PPJUT","","","null","","","","","","","",""
"655.3999999985099","","image-keyboard-response","332","396472","0.0-261.0","3HMIGG0U4MSQTBIZ1RS6AZPBOSGY8X","AKNYT1NTK2UFK","3DFYDSXB2WMWAZWJRSN67LWQ0PPJUT","","img/set1/S1.jpg","83","1","random","83","true","random,structured_normal,structured_incentive","1,2,2,3","",""
"null","","html-keyboard-response","333","396829","0.0-262.0","3HMIGG0U4MSQTBIZ1RS6AZPBOSGY8X","AKNYT1NTK2UFK","3DFYDSXB2WMWAZWJRSN67LWQ0PPJUT","","<img src=""img/set1/S1.jpg"" width=""540"" height = ""360"" style=""border:16px solid orange"">","null","","","","","","","",""
"null","","html-keyboard-response","334","396841","0.0-263.0","3HMIGG0U4MSQTBIZ1RS6AZPBOSGY8X","AKNYT1NTK2UFK","3DFYDSXB2WMWAZWJRSN67LWQ0PPJUT","","","null","","","","","","","",""
"555.8999999985099","","image-keyboard-response","335","397404","0.0-264.0","3HMIGG0U4MSQTBIZ1RS6AZPBOSGY8X","AKNYT1NTK2UFK","3DFYDSXB2WMWAZWJRSN67LWQ0PPJUT","","img/set1/S4.jpg","74","4","random","74","true","random,structured_normal,structured_incentive","1,2,2,3","",""
"null","","html-keyboard-response","336","397760","0.0-265.0","3HMIGG0U4MSQTBIZ1RS6AZPBOSGY8X","AKNYT1NTK2UFK","3DFYDSXB2WMWAZWJRSN67LWQ0PPJUT","","<img src=""img/set1/S4.jpg"" width=""540"" height = ""360"" style=""border:16px solid orange"">","null","","","","","","","",""
"null","","html-keyboard-response","337","397775","0.0-266.0","3HMIGG0U4MSQTBIZ1RS6AZPBOSGY8X","AKNYT1NTK2UFK","3DFYDSXB2WMWAZWJRSN67LWQ0PPJUT","","","null","","","","","","","",""
"636.5","","image-keyboard-response","338","398417","0.0-267.0","3HMIGG0U4MSQTBIZ1RS6AZPBOSGY8X","AKNYT1NTK2UFK","3DFYDSXB2WMWAZWJRSN67LWQ0PPJUT","","img/set1/S2.jpg","68","2","random","68","true","random,structured_normal,structured_incentive","1,2,2,3","",""
"null","","html-keyboard-response","339","398772","0.0-268.0","3HMIGG0U4MSQTBIZ1RS6AZPBOSGY8X","AKNYT1NTK2UFK","3DFYDSXB2WMWAZWJRSN67LWQ0PPJUT","","<img src=""img/set1/S2.jpg"" width=""540"" height = ""360"" style=""border:16px solid orange"">","null","","","","","","","",""
"null","","html-keyboard-response","340","398783","0.0-269.0","3HMIGG0U4MSQTBIZ1RS6AZPBOSGY8X","AKNYT1NTK2UFK","3DFYDSXB2WMWAZWJRSN67LWQ0PPJUT","","","null","","","","","","","",""
"539.7000000029802","","image-keyboard-response","341","399327","0.0-270.0","3HMIGG0U4MSQTBIZ1RS6AZPBOSGY8X","AKNYT1NTK2UFK","3DFYDSXB2WMWAZWJRSN67LWQ0PPJUT","","img/set1/S2.jpg","68","2","random","68","true","random,structured_normal,structured_incentive","1,2,2,3","",""
"null","","html-keyboard-response","342","399682","0.0-271.0","3HMIGG0U4MSQTBIZ1RS6AZPBOSGY8X","AKNYT1NTK2UFK","3DFYDSXB2WMWAZWJRSN67LWQ0PPJUT","","<img src=""img/set1/S2.jpg"" width=""540"" height = ""360"" style=""border:16px solid orange"">","null","","","","","","","",""
"null","","html-keyboard-response","343","399687","0.0-272.0","3HMIGG0U4MSQTBIZ1RS6AZPBOSGY8X","AKNYT1NTK2UFK","3DFYDSXB2WMWAZWJRSN67LWQ0PPJUT","","","null","","","","","","","",""
"588","","image-keyboard-response","344","400278","0.0-273.0","3HMIGG0U4MSQTBIZ1RS6AZPBOSGY8X","AKNYT1NTK2UFK","3DFYDSXB2WMWAZWJRSN67LWQ0PPJUT","","img/set1/S3.jpg","72","3","random","72","true","random,structured_normal,structured_incentive","1,2,2,3","",""
"null","","html-keyboard-response","345","400643","0.0-274.0","3HMIGG0U4MSQTBIZ1RS6AZPBOSGY8X","AKNYT1NTK2UFK","3DFYDSXB2WMWAZWJRSN67LWQ0PPJUT","","<img src=""img/set1/S3.jpg"" width=""540"" height = ""360"" style=""border:16px solid orange"">","null","","","","","","","",""
"null","","html-keyboard-response","346","400670","0.0-275.0","3HMIGG0U4MSQTBIZ1RS6AZPBOSGY8X","AKNYT1NTK2UFK","3DFYDSXB2WMWAZWJRSN67LWQ0PPJUT","","","null","","","","","","","",""
"568.9000000059605","","image-keyboard-response","347","401242","0.0-276.0","3HMIGG0U4MSQTBIZ1RS6AZPBOSGY8X","AKNYT1NTK2UFK","3DFYDSXB2WMWAZWJRSN67LWQ0PPJUT","","img/set1/S2.jpg","68","2","random","68","true","random,structured_normal,structured_incentive","1,2,2,3","",""
"null","","html-keyboard-response","348","401596","0.0-277.0","3HMIGG0U4MSQTBIZ1RS6AZPBOSGY8X","AKNYT1NTK2UFK","3DFYDSXB2WMWAZWJRSN67LWQ0PPJUT","","<img src=""img/set1/S2.jpg"" width=""540"" height = ""360"" style=""border:16px solid orange"">","null","","","","","","","",""
"null","","html-keyboard-response","349","401601","0.0-278.0","3HMIGG0U4MSQTBIZ1RS6AZPBOSGY8X","AKNYT1NTK2UFK","3DFYDSXB2WMWAZWJRSN67LWQ0PPJUT","","","null","","","","","","","",""
"758.8999999985099","","image-keyboard-response","350","402363","0.0-279.0","3HMIGG0U4MSQTBIZ1RS6AZPBOSGY8X","AKNYT1NTK2UFK","3DFYDSXB2WMWAZWJRSN67LWQ0PPJUT","","img/set1/S1.jpg","83","1","random","83","true","random,structured_normal,structured_incentive","1,2,2,3","",""
"null","","html-keyboard-response","351","402717","0.0-280.0","3HMIGG0U4MSQTBIZ1RS6AZPBOSGY8X","AKNYT1NTK2UFK","3DFYDSXB2WMWAZWJRSN67LWQ0PPJUT","","<img src=""img/set1/S1.jpg"" width=""540"" height = ""360"" style=""border:16px solid orange"">","null","","","","","","","",""
"null","","html-keyboard-response","352","402722","0.0-281.0","3HMIGG0U4MSQTBIZ1RS6AZPBOSGY8X","AKNYT1NTK2UFK","3DFYDSXB2WMWAZWJRSN67LWQ0PPJUT","","","null","","","","","","","",""
"575","","image-keyboard-response","353","403301","0.0-282.0","3HMIGG0U4MSQTBIZ1RS6AZPBOSGY8X","AKNYT1NTK2UFK","3DFYDSXB2WMWAZWJRSN67LWQ0PPJUT","","img/set1/S2.jpg","72","2","random","68","false","random,structured_normal,structured_incentive","1,2,2,3","",""
"null","","html-keyboard-response","354","403655","0.0-283.0","3HMIGG0U4MSQTBIZ1RS6AZPBOSGY8X","AKNYT1NTK2UFK","3DFYDSXB2WMWAZWJRSN67LWQ0PPJUT","","<img src=""img/set1/S2.jpg"" width=""540"" height = ""360"">","null","","","","","","","",""
"null","","html-keyboard-response","355","403662","0.0-284.0","3HMIGG0U4MSQTBIZ1RS6AZPBOSGY8X","AKNYT1NTK2UFK","3DFYDSXB2WMWAZWJRSN67LWQ0PPJUT","","","null","","","","","","","",""
"623.1999999955297","","image-keyboard-response","356","404287","0.0-285.0","3HMIGG0U4MSQTBIZ1RS6AZPBOSGY8X","AKNYT1NTK2UFK","3DFYDSXB2WMWAZWJRSN67LWQ0PPJUT","","img/set1/S4.jpg","74","4","random","74","true","random,structured_normal,structured_incentive","1,2,2,3","",""
"null","","html-keyboard-response","357","404642","0.0-286.0","3HMIGG0U4MSQTBIZ1RS6AZPBOSGY8X","AKNYT1NTK2UFK","3DFYDSXB2WMWAZWJRSN67LWQ0PPJUT","","<img src=""img/set1/S4.jpg"" width=""540"" height = ""360"" style=""border:16px solid orange"">","null","","","","","","","",""
"null","","html-keyboard-response","358","404645","0.0-287.0","3HMIGG0U4MSQTBIZ1RS6AZPBOSGY8X","AKNYT1NTK2UFK","3DFYDSXB2WMWAZWJRSN67LWQ0PPJUT","","","null","","","","","","","",""
"617.5","","image-keyboard-response","359","405264","0.0-288.0","3HMIGG0U4MSQTBIZ1RS6AZPBOSGY8X","AKNYT1NTK2UFK","3DFYDSXB2WMWAZWJRSN67LWQ0PPJUT","","img/set1/S4.jpg","74","4","random","74","true","random,structured_normal,structured_incentive","1,2,2,3","",""
"null","","html-keyboard-response","360","405618","0.0-289.0","3HMIGG0U4MSQTBIZ1RS6AZPBOSGY8X","AKNYT1NTK2UFK","3DFYDSXB2WMWAZWJRSN67LWQ0PPJUT","","<img src=""img/set1/S4.jpg"" width=""540"" height = ""360"" style=""border:16px solid orange"">","null","","","","","","","",""
"null","","html-keyboard-response","361","405624","0.0-290.0","3HMIGG0U4MSQTBIZ1RS6AZPBOSGY8X","AKNYT1NTK2UFK","3DFYDSXB2WMWAZWJRSN67LWQ0PPJUT","","","null","","","","","","","",""
"591.5","","image-keyboard-response","362","406219","0.0-291.0","3HMIGG0U4MSQTBIZ1RS6AZPBOSGY8X","AKNYT1NTK2UFK","3DFYDSXB2WMWAZWJRSN67LWQ0PPJUT","","img/set1/S2.jpg","68","2","random","68","true","random,structured_normal,structured_incentive","1,2,2,3","",""
"null","","html-keyboard-response","363","406572","0.0-292.0","3HMIGG0U4MSQTBIZ1RS6AZPBOSGY8X","AKNYT1NTK2UFK","3DFYDSXB2WMWAZWJRSN67LWQ0PPJUT","","<img src=""img/set1/S2.jpg"" width=""540"" height = ""360"" style=""border:16px solid orange"">","null","","","","","","","",""
"null","","html-keyboard-response","364","406584","0.0-293.0","3HMIGG0U4MSQTBIZ1RS6AZPBOSGY8X","AKNYT1NTK2UFK","3DFYDSXB2WMWAZWJRSN67LWQ0PPJUT","","","null","","","","","","","",""
"629.7999999970198","","image-keyboard-response","365","407217","0.0-294.0","3HMIGG0U4MSQTBIZ1RS6AZPBOSGY8X","AKNYT1NTK2UFK","3DFYDSXB2WMWAZWJRSN67LWQ0PPJUT","","img/set1/S1.jpg","83","1","random","83","true","random,structured_normal,structured_incentive","1,2,2,3","",""
"null","","html-keyboard-response","366","407571","0.0-295.0","3HMIGG0U4MSQTBIZ1RS6AZPBOSGY8X","AKNYT1NTK2UFK","3DFYDSXB2WMWAZWJRSN67LWQ0PPJUT","","<img src=""img/set1/S1.jpg"" width=""540"" height = ""360"" style=""border:16px solid orange"">","null","","","","","","","",""
"null","","html-keyboard-response","367","407578","0.0-296.0","3HMIGG0U4MSQTBIZ1RS6AZPBOSGY8X","AKNYT1NTK2UFK","3DFYDSXB2WMWAZWJRSN67LWQ0PPJUT","","","null","","","","","","","",""
"533.3000000044703","","image-keyboard-response","368","408114","0.0-297.0","3HMIGG0U4MSQTBIZ1RS6AZPBOSGY8X","AKNYT1NTK2UFK","3DFYDSXB2WMWAZWJRSN67LWQ0PPJUT","","img/set1/S3.jpg","72","3","random","72","true","random,structured_normal,structured_incentive","1,2,2,3","",""
"null","","html-keyboard-response","369","408469","0.0-298.0","3HMIGG0U4MSQTBIZ1RS6AZPBOSGY8X","AKNYT1NTK2UFK","3DFYDSXB2WMWAZWJRSN67LWQ0PPJUT","","<img src=""img/set1/S3.jpg"" width=""540"" height = ""360"" style=""border:16px solid orange"">","null","","","","","","","",""
"null","","html-keyboard-response","370","408483","0.0-299.0","3HMIGG0U4MSQTBIZ1RS6AZPBOSGY8X","AKNYT1NTK2UFK","3DFYDSXB2WMWAZWJRSN67LWQ0PPJUT","","","null","","","","","","","",""
"456.90000000596046","","image-keyboard-response","371","408942","0.0-300.0","3HMIGG0U4MSQTBIZ1RS6AZPBOSGY8X","AKNYT1NTK2UFK","3DFYDSXB2WMWAZWJRSN67LWQ0PPJUT","","img/set1/S3.jpg","72","3","random","72","true","random,structured_normal,structured_incentive","1,2,2,3","",""
"null","","html-keyboard-response","372","409295","0.0-301.0","3HMIGG0U4MSQTBIZ1RS6AZPBOSGY8X","AKNYT1NTK2UFK","3DFYDSXB2WMWAZWJRSN67LWQ0PPJUT","","<img src=""img/set1/S3.jpg"" width=""540"" height = ""360"" style=""border:16px solid orange"">","null","","","","","","","",""
"null","","html-keyboard-response","373","409305","0.0-302.0","3HMIGG0U4MSQTBIZ1RS6AZPBOSGY8X","AKNYT1NTK2UFK","3DFYDSXB2WMWAZWJRSN67LWQ0PPJUT","","","null","","","","","","","",""
"483.5","","image-keyboard-response","374","409793","0.0-303.0","3HMIGG0U4MSQTBIZ1RS6AZPBOSGY8X","AKNYT1NTK2UFK","3DFYDSXB2WMWAZWJRSN67LWQ0PPJUT","","img/set1/S2.jpg","68","2","random","68","true","random,structured_normal,structured_incentive","1,2,2,3","",""
"null","","html-keyboard-response","375","410146","0.0-304.0","3HMIGG0U4MSQTBIZ1RS6AZPBOSGY8X","AKNYT1NTK2UFK","3DFYDSXB2WMWAZWJRSN67LWQ0PPJUT","","<img src=""img/set1/S2.jpg"" width=""540"" height = ""360"" style=""border:16px solid orange"">","null","","","","","","","",""
"null","","html-keyboard-response","376","410151","0.0-305.0","3HMIGG0U4MSQTBIZ1RS6AZPBOSGY8X","AKNYT1NTK2UFK","3DFYDSXB2WMWAZWJRSN67LWQ0PPJUT","","","null","","","","","","","",""
"600.5","","image-keyboard-response","377","410754","0.0-306.0","3HMIGG0U4MSQTBIZ1RS6AZPBOSGY8X","AKNYT1NTK2UFK","3DFYDSXB2WMWAZWJRSN67LWQ0PPJUT","","img/set1/S4.jpg","74","4","random","74","true","random,structured_normal,structured_incentive","1,2,2,3","",""
"null","","html-keyboard-response","378","411111","0.0-307.0","3HMIGG0U4MSQTBIZ1RS6AZPBOSGY8X","AKNYT1NTK2UFK","3DFYDSXB2WMWAZWJRSN67LWQ0PPJUT","","<img src=""img/set1/S4.jpg"" width=""540"" height = ""360"" style=""border:16px solid orange"">","null","","","","","","","",""
"null","","html-keyboard-response","379","411120","0.0-308.0","3HMIGG0U4MSQTBIZ1RS6AZPBOSGY8X","AKNYT1NTK2UFK","3DFYDSXB2WMWAZWJRSN67LWQ0PPJUT","","","null","","","","","","","",""
"617.1000000014901","","image-keyboard-response","380","411741","0.0-309.0","3HMIGG0U4MSQTBIZ1RS6AZPBOSGY8X","AKNYT1NTK2UFK","3DFYDSXB2WMWAZWJRSN67LWQ0PPJUT","","img/set1/S1.jpg","83","1","random","83","true","random,structured_normal,structured_incentive","1,2,2,3","",""
"null","","html-keyboard-response","381","412097","0.0-310.0","3HMIGG0U4MSQTBIZ1RS6AZPBOSGY8X","AKNYT1NTK2UFK","3DFYDSXB2WMWAZWJRSN67LWQ0PPJUT","","<img src=""img/set1/S1.jpg"" width=""540"" height = ""360"" style=""border:16px solid orange"">","null","","","","","","","",""
"null","","html-keyboard-response","382","412109","0.0-311.0","3HMIGG0U4MSQTBIZ1RS6AZPBOSGY8X","AKNYT1NTK2UFK","3DFYDSXB2WMWAZWJRSN67LWQ0PPJUT","","","null","","","","","","","",""
"908.9000000059605","","image-keyboard-response","383","413023","0.0-312.0","3HMIGG0U4MSQTBIZ1RS6AZPBOSGY8X","AKNYT1NTK2UFK","3DFYDSXB2WMWAZWJRSN67LWQ0PPJUT","","img/set1/S3.jpg","72","3","random","72","true","random,structured_normal,structured_incentive","1,2,2,3","",""
"null","","html-keyboard-response","384","413378","0.0-313.0","3HMIGG0U4MSQTBIZ1RS6AZPBOSGY8X","AKNYT1NTK2UFK","3DFYDSXB2WMWAZWJRSN67LWQ0PPJUT","","<img src=""img/set1/S3.jpg"" width=""540"" height = ""360"" style=""border:16px solid orange"">","null","","","","","","","",""
"null","","html-keyboard-response","385","413395","0.0-314.0","3HMIGG0U4MSQTBIZ1RS6AZPBOSGY8X","AKNYT1NTK2UFK","3DFYDSXB2WMWAZWJRSN67LWQ0PPJUT","","","null","","","","","","","",""
"521.8999999985099","","image-keyboard-response","386","413921","0.0-315.0","3HMIGG0U4MSQTBIZ1RS6AZPBOSGY8X","AKNYT1NTK2UFK","3DFYDSXB2WMWAZWJRSN67LWQ0PPJUT","","img/set1/S2.jpg","68","2","random","68","true","random,structured_normal,structured_incentive","1,2,2,3","",""
"null","","html-keyboard-response","387","414275","0.0-316.0","3HMIGG0U4MSQTBIZ1RS6AZPBOSGY8X","AKNYT1NTK2UFK","3DFYDSXB2WMWAZWJRSN67LWQ0PPJUT","","<img src=""img/set1/S2.jpg"" width=""540"" height = ""360"" style=""border:16px solid orange"">","null","","","","","","","",""
"null","","html-keyboard-response","388","414279","0.0-317.0","3HMIGG0U4MSQTBIZ1RS6AZPBOSGY8X","AKNYT1NTK2UFK","3DFYDSXB2WMWAZWJRSN67LWQ0PPJUT","","","null","","","","","","","",""
"607","","image-keyboard-response","389","414888","0.0-318.0","3HMIGG0U4MSQTBIZ1RS6AZPBOSGY8X","AKNYT1NTK2UFK","3DFYDSXB2WMWAZWJRSN67LWQ0PPJUT","","img/set1/S1.jpg","83","1","random","83","true","random,structured_normal,structured_incentive","1,2,2,3","",""
"null","","html-keyboard-response","390","415244","0.0-319.0","3HMIGG0U4MSQTBIZ1RS6AZPBOSGY8X","AKNYT1NTK2UFK","3DFYDSXB2WMWAZWJRSN67LWQ0PPJUT","","<img src=""img/set1/S1.jpg"" width=""540"" height = ""360"" style=""border:16px solid orange"">","null","","","","","","","",""
"null","","html-keyboard-response","391","415261","0.0-320.0","3HMIGG0U4MSQTBIZ1RS6AZPBOSGY8X","AKNYT1NTK2UFK","3DFYDSXB2WMWAZWJRSN67LWQ0PPJUT","","","null","","","","","","","",""
"650.5","","image-keyboard-response","392","415916","0.0-321.0","3HMIGG0U4MSQTBIZ1RS6AZPBOSGY8X","AKNYT1NTK2UFK","3DFYDSXB2WMWAZWJRSN67LWQ0PPJUT","","img/set1/S2.jpg","72","2","random","68","false","random,structured_normal,structured_incentive","1,2,2,3","",""
"null","","html-keyboard-response","393","416268","0.0-322.0","3HMIGG0U4MSQTBIZ1RS6AZPBOSGY8X","AKNYT1NTK2UFK","3DFYDSXB2WMWAZWJRSN67LWQ0PPJUT","","<img src=""img/set1/S2.jpg"" width=""540"" height = ""360"">","null","","","","","","","",""
"null","","html-keyboard-response","394","416276","0.0-323.0","3HMIGG0U4MSQTBIZ1RS6AZPBOSGY8X","AKNYT1NTK2UFK","3DFYDSXB2WMWAZWJRSN67LWQ0PPJUT","","","null","","","","","","","",""
"123.80000000447035","","image-keyboard-response","395","416403","0.0-324.0","3HMIGG0U4MSQTBIZ1RS6AZPBOSGY8X","AKNYT1NTK2UFK","3DFYDSXB2WMWAZWJRSN67LWQ0PPJUT","","img/set1/S4.jpg","74","4","random","74","true","random,structured_normal,structured_incentive","1,2,2,3","",""
"null","","html-keyboard-response","396","416762","0.0-325.0","3HMIGG0U4MSQTBIZ1RS6AZPBOSGY8X","AKNYT1NTK2UFK","3DFYDSXB2WMWAZWJRSN67LWQ0PPJUT","","<img src=""img/set1/S4.jpg"" width=""540"" height = ""360"" style=""border:16px solid orange"">","null","","","","","","","",""
"null","","html-keyboard-response","397","416769","0.0-326.0","3HMIGG0U4MSQTBIZ1RS6AZPBOSGY8X","AKNYT1NTK2UFK","3DFYDSXB2WMWAZWJRSN67LWQ0PPJUT","","","null","","","","","","","",""
"648.3000000044703","","image-keyboard-response","398","417421","0.0-327.0","3HMIGG0U4MSQTBIZ1RS6AZPBOSGY8X","AKNYT1NTK2UFK","3DFYDSXB2WMWAZWJRSN67LWQ0PPJUT","","img/set1/S3.jpg","68","3","random","72","false","random,structured_normal,structured_incentive","1,2,2,3","",""
"null","","html-keyboard-response","399","417782","0.0-328.0","3HMIGG0U4MSQTBIZ1RS6AZPBOSGY8X","AKNYT1NTK2UFK","3DFYDSXB2WMWAZWJRSN67LWQ0PPJUT","","<img src=""img/set1/S3.jpg"" width=""540"" height = ""360"">","null","","","","","","","",""
"null","","html-keyboard-response","400","417799","0.0-329.0","3HMIGG0U4MSQTBIZ1RS6AZPBOSGY8X","AKNYT1NTK2UFK","3DFYDSXB2WMWAZWJRSN67LWQ0PPJUT","","","null","","","","","","","",""
"687.7000000029802","","image-keyboard-response","401","418492","0.0-330.0","3HMIGG0U4MSQTBIZ1RS6AZPBOSGY8X","AKNYT1NTK2UFK","3DFYDSXB2WMWAZWJRSN67LWQ0PPJUT","","img/set1/S1.jpg","83","1","random","83","true","random,structured_normal,structured_incentive","1,2,2,3","",""
"null","","html-keyboard-response","402","418846","0.0-331.0","3HMIGG0U4MSQTBIZ1RS6AZPBOSGY8X","AKNYT1NTK2UFK","3DFYDSXB2WMWAZWJRSN67LWQ0PPJUT","","<img src=""img/set1/S1.jpg"" width=""540"" height = ""360"" style=""border:16px solid orange"">","null","","","","","","","",""
"null","","html-keyboard-response","403","418851","0.0-332.0","3HMIGG0U4MSQTBIZ1RS6AZPBOSGY8X","AKNYT1NTK2UFK","3DFYDSXB2WMWAZWJRSN67LWQ0PPJUT","","","null","","","","","","","",""
"842.7999999970198","","image-keyboard-response","404","419697","0.0-333.0","3HMIGG0U4MSQTBIZ1RS6AZPBOSGY8X","AKNYT1NTK2UFK","3DFYDSXB2WMWAZWJRSN67LWQ0PPJUT","","img/set1/S2.jpg","68","2","random","68","true","random,structured_normal,structured_incentive","1,2,2,3","",""
"null","","html-keyboard-response","405","420051","0.0-334.0","3HMIGG0U4MSQTBIZ1RS6AZPBOSGY8X","AKNYT1NTK2UFK","3DFYDSXB2WMWAZWJRSN67LWQ0PPJUT","","<img src=""img/set1/S2.jpg"" width=""540"" height = ""360"" style=""border:16px solid orange"">","null","","","","","","","",""
"null","","html-keyboard-response","406","420063","0.0-335.0","3HMIGG0U4MSQTBIZ1RS6AZPBOSGY8X","AKNYT1NTK2UFK","3DFYDSXB2WMWAZWJRSN67LWQ0PPJUT","","","null","","","","","","","",""
"470.6000000014901","","image-keyboard-response","407","420539","0.0-336.0","3HMIGG0U4MSQTBIZ1RS6AZPBOSGY8X","AKNYT1NTK2UFK","3DFYDSXB2WMWAZWJRSN67LWQ0PPJUT","","img/set1/S2.jpg","68","2","random","68","true","random,structured_normal,structured_incentive","1,2,2,3","",""
"null","","html-keyboard-response","408","420896","0.0-337.0","3HMIGG0U4MSQTBIZ1RS6AZPBOSGY8X","AKNYT1NTK2UFK","3DFYDSXB2WMWAZWJRSN67LWQ0PPJUT","","<img src=""img/set1/S2.jpg"" width=""540"" height = ""360"" style=""border:16px solid orange"">","null","","","","","","","",""
"null","","html-keyboard-response","409","420904","0.0-338.0","3HMIGG0U4MSQTBIZ1RS6AZPBOSGY8X","AKNYT1NTK2UFK","3DFYDSXB2WMWAZWJRSN67LWQ0PPJUT","","","null","","","","","","","",""
"718.7999999970198","","image-keyboard-response","410","421625","0.0-339.0","3HMIGG0U4MSQTBIZ1RS6AZPBOSGY8X","AKNYT1NTK2UFK","3DFYDSXB2WMWAZWJRSN67LWQ0PPJUT","","img/set1/S1.jpg","83","1","random","83","true","random,structured_normal,structured_incentive","1,2,2,3","",""
"null","","html-keyboard-response","411","421978","0.0-340.0","3HMIGG0U4MSQTBIZ1RS6AZPBOSGY8X","AKNYT1NTK2UFK","3DFYDSXB2WMWAZWJRSN67LWQ0PPJUT","","<img src=""img/set1/S1.jpg"" width=""540"" height = ""360"" style=""border:16px solid orange"">","null","","","","","","","",""
"null","","html-keyboard-response","412","422004","0.0-341.0","3HMIGG0U4MSQTBIZ1RS6AZPBOSGY8X","AKNYT1NTK2UFK","3DFYDSXB2WMWAZWJRSN67LWQ0PPJUT","","","null","","","","","","","",""
"594.2999999970198","","image-keyboard-response","413","422600","0.0-342.0","3HMIGG0U4MSQTBIZ1RS6AZPBOSGY8X","AKNYT1NTK2UFK","3DFYDSXB2WMWAZWJRSN67LWQ0PPJUT","","img/set1/S1.jpg","83","1","random","83","true","random,structured_normal,structured_incentive","1,2,2,3","",""
"null","","html-keyboard-response","414","422954","0.0-343.0","3HMIGG0U4MSQTBIZ1RS6AZPBOSGY8X","AKNYT1NTK2UFK","3DFYDSXB2WMWAZWJRSN67LWQ0PPJUT","","<img src=""img/set1/S1.jpg"" width=""540"" height = ""360"" style=""border:16px solid orange"">","null","","","","","","","",""
"null","","html-keyboard-response","415","422968","0.0-344.0","3HMIGG0U4MSQTBIZ1RS6AZPBOSGY8X","AKNYT1NTK2UFK","3DFYDSXB2WMWAZWJRSN67LWQ0PPJUT","","","null","","","","","","","",""
"429","","image-keyboard-response","416","423400","0.0-345.0","3HMIGG0U4MSQTBIZ1RS6AZPBOSGY8X","AKNYT1NTK2UFK","3DFYDSXB2WMWAZWJRSN67LWQ0PPJUT","","img/set1/S1.jpg","83","1","random","83","true","random,structured_normal,structured_incentive","1,2,2,3","",""
"null","","html-keyboard-response","417","423755","0.0-346.0","3HMIGG0U4MSQTBIZ1RS6AZPBOSGY8X","AKNYT1NTK2UFK","3DFYDSXB2WMWAZWJRSN67LWQ0PPJUT","","<img src=""img/set1/S1.jpg"" width=""540"" height = ""360"" style=""border:16px solid orange"">","null","","","","","","","",""
"null","","html-keyboard-response","418","423762","0.0-347.0","3HMIGG0U4MSQTBIZ1RS6AZPBOSGY8X","AKNYT1NTK2UFK","3DFYDSXB2WMWAZWJRSN67LWQ0PPJUT","","","null","","","","","","","",""
